loggingTime(txt)|accelerometerTimestamp_sinceReboot(s)|accelerometerAccelerationX(G)|accelerometerAccelerationY(G)|accelerometerAccelerationZ(G)|motionTimestamp_sinceReboot(s)|motionYaw(rad)|motionRoll(rad)|motionPitch(rad)|motionRotationRateX(rad/s)|motionRotationRateY(rad/s)|motionRotationRateZ(rad/s)|motionUserAccelerationX(G)|motionUserAccelerationY(G)|motionUserAccelerationZ(G)|motionAttitudeReferenceFrame(txt)|motionQuaternionX(R)|motionQuaternionY(R)|motionQuaternionZ(R)|motionQuaternionW(R)|motionGravityX(G)|motionGravityY(G)|motionGravityZ(G)|motionMagneticFieldX(µT)|motionMagneticFieldY(µT)|motionMagneticFieldZ(µT)|motionHeading(°)|motionMagneticFieldCalibrationAccuracy(Z)|label
2021-04-08 19:23:14.442 +0100|17534.76109116667|0.1659698486328125|-0.2548828125|-0.9601287841796875|17534.74113016667|3.065985703672234|0.2116354892216136|0.2930178016609127|-0.1608488857746124|-0.1679246425628662|0.01267616450786591|0.00995442271232605|-0.05368751287460327|-0.04202598333358765|XArbitraryZVertical|-0.09892760333352352|0.1490141429326146|0.983633134533574|0.02177242895880557|0.2011057436466217|-0.2888427078723907|-0.9360162019729614|0|0|0|-1|-1|3
2021-04-08 19:23:14.453 +0100|17534.78105216667|0.2241363525390625|-0.2867584228515625|-0.94012451171875|17534.76109116667|3.066236958703424|0.2118401650186553|0.2896416526005826|-0.0391463115811348|0.1753265112638474|-0.01201711036264896|-0.04390785098075867|0.05123290419578552|-0.006313800811767578|XArbitraryZVertical|-0.09913542753853187|0.1473452386497666|0.9838626140765845|0.02181924714198541|0.2015012055635452|-0.2856088280677795|-0.936923086643219|0|0|0|-1|-1|3
2021-04-08 19:23:14.454 +0100|17534.80101216667|0.2306365966796875|-0.26470947265625|-0.92919921875|17534.78105216667|3.066612851040186|0.2159758493874358|0.2878614533824789|0.05582677200436592|0.1697787195444107|0.04597482085227966|0.009727612137794495|-0.008060246706008911|-0.001258373260498047|XArbitraryZVertical|-0.1012440073719865|0.1464964576454425|0.9837831533722975|0.02142927097229457|0.2054829150438309|-0.2839023172855377|-0.9365769028663635|0|0|0|-1|-1|3
2021-04-08 19:23:14.456 +0100|17534.82097316667|0.1815948486328125|-0.2342071533203125|-0.9401702880859375|17534.80101216667|3.06861801400586|0.2177037147864649|0.2887919521637151|-0.1432697772979736|-0.001123568974435329|0.2317522317171097|0.02548553049564362|0.04933512210845947|0.006702244281768799|XArbitraryZVertical|-0.1022167767487286|0.1468696089501303|0.983651642587533|0.02026405068803841|0.2070437520742416|-0.284794420003891|-0.9359620809555054|0|0|0|-1|-1|3
2021-04-08 19:23:14.476 +0100|17534.84093416667|0.199310302734375|-0.267303466796875|-0.9383087158203125|17534.82097316667|3.073299359175431|0.216350027012404|0.2910008378542216|0.1423986852169037|0.08871544897556305|0.1708322465419769|-0.01119767129421234|0.00640791654586792|-0.005445361137390137|XArbitraryZVertical|-0.1018401424722406|0.1477030239519611|0.9836110066471812|0.01793748313102553|0.2056410163640976|-0.2869111299514771|-0.9356247782707214|0|0|0|-1|-1|3
2021-04-08 19:23:14.496 +0100|17534.86089416667|0.2037811279296875|-0.3703765869140625|-0.9296417236328125|17534.84093416667|3.076219724166243|0.2184020458352458|0.2909967955741494|-0.02678503468632698|0.2271396964788437|0.07808872312307358|-0.01853430271148682|0.06914815306663513|0.002173244953155518|XArbitraryZVertical|-0.1030649550373973|0.1475690094802709|0.9835313439348337|0.01635005950293157|0.2075607478618622|-0.2869072556495667|-0.9352020025253296|0|0|0|-1|-1|3
2021-04-08 19:23:14.516 +0100|17534.88085516667|0.182891845703125|-0.2769622802734375|-0.9134674072265625|17534.86089416667|3.078055851899844|0.2216542528206666|0.2899397941350156|-0.1457385867834091|0.1737965792417526|0.0848773866891861|0.0006976425647735596|-0.08332329988479614|-0.001614153385162354|XArbitraryZVertical|-0.1048245617815172|0.1469800520665764|0.9834509757738986|0.01526750271463302|0.2106676697731018|-0.2858945429325104|-0.934817373752594|0|0|0|-1|-1|3
2021-04-08 19:23:14.535 +0100|17534.90081516667|0.2402191162109375|-0.2704315185546875|-0.931549072265625|17534.88085516667|3.079768753717331|0.2254260252739215|0.2865972253728387|-0.1575302928686142|0.2583774030208588|-0.01156996469944715|-0.0333278626203537|-0.03011620044708252|0.006277561187744141|XArbitraryZVertical|-0.1068827067993129|0.1452753345840019|0.9834966153113286|0.01434147695552743|0.2144044935703278|-0.2826898992061615|-0.9349423050880432|0|0|0|-1|-1|3
2021-04-08 19:23:14.556 +0100|17534.92077616667|0.2325592041015625|-0.185089111328125|-0.9541168212890625|17534.90081516667|3.080897371552517|0.2285002429928895|0.2828235047901875|-0.1431677043437958|0.04078542441129684|0.08083497732877731|0.01871936023235321|0.01536476612091064|0.005257904529571533|XArbitraryZVertical|-0.1085631039114846|0.1433821991151908|0.9835983501320434|0.0137841534254888|0.2175177782773972|-0.2790680825710297|-0.9353111982345581|0|0|0|-1|-1|3
2021-04-08 19:23:14.575 +0100|17534.94073716667|0.2054901123046875|-0.2567291259765625|-0.9623260498046875|17534.92077616667|3.080281008976147|0.2280377059625917|0.2805636380336706|0.02747898548841476|-0.03839434683322906|-0.1429120153188705|0.01148739457130432|0.09189882874488831|-0.009929299354553223|XArbitraryZVertical|-0.1083435445232523|0.1423019882484664|0.9837727033438735|0.0142524933943942|0.2172271609306335|-0.2768972814083099|-0.9360236525535583|0|0|0|-1|-1|3
2021-04-08 19:23:14.595 +0100|17534.96069716667|0.194610595703125|-0.332489013671875|-0.9637603759765625|17534.94073716667|3.077166776806538|0.2262435647118635|0.2828488802145605|0.1126233264803886|-0.1566932946443558|-0.1824842691421509|0.00275053083896637|0.03699561953544617|-0.02750939130783081|XArbitraryZVertical|-0.1071849896030098|0.1435792036488757|0.9836907761184414|0.01577936117348125|0.2154049426317215|-0.2790924608707428|-0.9357928037643433|0|0|0|-1|-1|3
2021-04-08 19:23:14.616 +0100|17534.98065816667|0.186798095703125|-0.315673828125|-0.9466552734375|17534.96069716667|3.07341124119292|0.2245060706013116|0.2842403455672273|0.01081210747361183|-0.1156219765543938|-0.159204438328743|-0.01645633578300476|-0.03967142105102539|-0.02296894788742065|XArbitraryZVertical|-0.1060262705397194|0.144448499656458|0.9836568974709531|0.01767093665170861|0.2136920243501663|-0.2804283499717712|-0.9357861280441284|0|0|0|-1|-1|3
2021-04-08 19:23:14.635 +0100|17535.00061916667|0.1861114501953125|-0.3067779541015625|-0.9352874755859375|17534.98065816667|3.070189987648666|0.2234251351956745|0.2825097490262475|-0.06708706915378571|-0.09904187917709351|-0.1636324673891068|-0.02670606970787048|-0.04220274090766907|-0.013904869556427|XArbitraryZVertical|-0.1053058465214031|0.1437583956019635|0.983802128922321|0.01943314545046216|0.2127875834703445|-0.2787667810916901|-0.9364883899688721|0|0|0|-1|-1|3
2021-04-08 19:23:14.655 +0100|17535.02057916667|0.1810455322265625|-0.244781494140625|-0.93408203125|17535.00061916667|3.068317323144582|0.2217951000232849|0.2795316876604563|-0.06622908264398575|-0.1523439735174179|-0.04851945862174034|-0.02304163575172424|-0.03522205352783203|-0.001034796237945557|XArbitraryZVertical|-0.1044460905171679|0.1423768209155875|0.9840700760455905|0.02064219826018644|0.2114424854516983|-0.2759055495262146|-0.9376397132873535|0|0|0|-1|-1|3
2021-04-08 19:23:14.675 +0100|17535.04054016667|0.223541259765625|-0.294769287109375|-0.9320526123046875|17535.02057916667|3.066555391510788|0.2202428313364928|0.2781820619423351|0.04027137905359268|-0.03936310112476349|-0.1503205746412277|-0.03511005640029907|0.01380392909049988|0.002553939819335938|XArbitraryZVertical|-0.1035920419561382|0.1417886733927805|0.9842226252031337|0.02169658503926938|0.2100679278373718|-0.2746080458164215|-0.9383293390274048|0|0|0|-1|-1|3
2021-04-08 19:23:14.695 +0100|17535.06050016667|0.2193756103515625|-0.3209991455078125|-0.9202117919921875|17535.04054016667|3.062893580233874|0.2205642102692461|0.2774740277573324|-0.05530193075537682|-0.02284724079072475|-0.2265306413173676|0.004584982991218567|0.003204822540283203|0.004323840141296387|XArbitraryZVertical|-0.103509524652836|0.1416338960971343|0.9842116931464779|0.0235162090105049|0.2104119509458542|-0.2739271819591522|-0.9384512305259705|0|0|0|-1|-1|3
2021-04-08 19:23:14.715 +0100|17535.08046116667|0.166229248046875|-0.26495361328125|-0.901092529296875|17535.06050016667|3.059943135558169|0.219062058210532|0.2762919004044636|-0.1117856949567795|-0.1577221751213074|-0.09378449618816376|0.01953552663326263|-0.06121048331260681|0.02173894643783569|XArbitraryZVertical|-0.1025939074708327|0.1411865953720151|0.9843316495305775|0.02514184930624878|0.2090722471475601|-0.2727900743484497|-0.9390816688537598|0|0|0|-1|-1|3
2021-04-08 19:23:14.735 +0100|17535.10042216667|0.2296600341796875|-0.28607177734375|-0.8949737548828125|17535.08046116667|3.060094485824812|0.2174856978490809|0.2746250806102662|-0.1423140019178391|0.09958706051111221|0.007883894257247448|-0.03209073841571808|-0.001825094223022461|0.03079551458358765|XArbitraryZVertical|-0.1018745599915991|0.1403395676367259|0.9845241756800607|0.02527278780021777|0.2076894789934158|-0.2711860835552216|-0.939852774143219|0|0|0|-1|-1|3
2021-04-08 19:23:14.755 +0100|17535.12038216667|0.27264404296875|-0.302490234375|-0.9219818115234375|17535.10042216667|3.060987176687556|0.2212282664221673|0.2711082681289615|-0.2352080643177032|0.2992052733898163|-0.02879644371569157|-0.00734180212020874|-0.01648801565170288|0.04361635446548462|XArbitraryZVertical|-0.1038754917483255|0.1386113520070301|0.9845726844807731|0.02477250683875161|0.2114134430885315|-0.2677993774414062|-0.9399935603141785|0|0|0|-1|-1|3
2021-04-08 19:23:14.775 +0100|17535.14034316667|0.149566650390625|-0.2417755126953125|-0.8112030029296875|17535.12038216667|3.063499513985412|0.225534526506972|0.2648880526324632|-0.3404630720615387|0.0842730849981308|0.3796008825302124|0.06360712647438049|-0.02678912878036499|0.02771639823913574|XArbitraryZVertical|-0.1063355455296664|0.1354726284670411|0.9847756761141752|0.02360015937518225|0.2158276736736298|-0.2618012130260468|-0.9406798481941223|0|0|0|-1|-1|3
2021-04-08 19:23:14.795 +0100|17535.16030416667|0.5283355712890625|-0.6225738525390625|-0.84466552734375|17535.14034316667|3.08014450847227|0.2265099092519848|0.265463545129253|-0.5397507548332214|0.9315958619117737|0.3454446792602539|-0.110417902469635|0.04323944449424744|0.08259522914886475|XArbitraryZVertical|-0.1079266463248236|0.1348735883115263|0.9848487104391381|0.01530463157847354|0.2167112231254578|-0.2623566091060638|-0.9403219223022461|0|0|0|-1|-1|3
2021-04-08 19:23:14.815 +0100|17535.18026416667|0.5275115966796875|-0.56304931640625|-0.7692108154296875|17535.16030416667|3.087840852227286|0.2431496612740669|0.253591187028879|-0.9500478506088257|0.5107790231704712|0.4378367066383362|0.2156397700309753|-0.3291513919830322|0.07256948947906494|XArbitraryZVertical|-0.1168854021638015|0.1287102213784048|0.9847069500933544|0.01112969143444706|0.233060747385025|-0.2508819103240967|-0.9395429491996765|0|0|0|-1|-1|3
2021-04-08 19:23:14.835 +0100|17535.20022516667|0.413818359375|-0.5268402099609375|-0.69677734375|17535.18026416667|3.105894075107959|0.242070842955994|0.2270597890642868|-2.0251145362854|-0.004494491964578629|0.4597891271114349|0.3250488042831421|-0.3588105440139771|0.1689625978469849|XArbitraryZVertical|-0.117936537723177|0.1145805940422019|0.9863808142042536|0.003927712484001676|0.2335607558488846|-0.2251137644052505|-0.9459245204925537|0|0|0|-1|-1|3
2021-04-08 19:23:14.860 +0100|17535.22018616667|0.3873748779296875|-0.474761962890625|-0.62506103515625|17535.20022516667|3.126930790871546|0.2379033407278844|0.1790765706150931|-3.198814630508423|0.05987059697508812|0.4877927899360657|0.2071752846240997|-0.3535114526748657|0.24154132604599|XArbitraryZVertical|-0.1175418959676881|0.08965090834318523|0.9890073433205679|-0.003361242676982693|0.2318969219923019|-0.1781209856271744|-0.9562932252883911|0|0|0|-1|-1|3
2021-04-08 19:23:14.875 +0100|17535.24014616667|0.5151519775390625|-0.2410125732421875|-0.583038330078125|17535.22018616667|-3.127997717166438|0.2398578382365387|0.1078610051388523|-4.34409761428833|0.594790518283844|0.4769758284091949|0.143134817481041|-0.3944547176361084|0.304823100566864|XArbitraryZVertical|-0.1198287012992116|0.05270386467330389|0.9913070161981913|-0.0131878366426853|0.2361839711666107|-0.107651986181736|-0.9657267928123474|0|0|0|-1|-1|3
2021-04-08 19:23:14.895 +0100|17535.26010716667|0.5506744384765625|0.0291900634765625|-0.5811920166015625|17535.24014616667|-3.095481290305383|0.2515126454386238|0.016197409513376|-5.346518993377686|0.6194208264350891|0.4637357592582703|0.2280468046665192|-0.2998595833778381|0.403972327709198|XArbitraryZVertical|-0.12557289210429|0.005141115395531654|0.9917835489718568|-0.02388634134604953|0.2488366514444351|-0.01619670167565346|-0.9684100151062012|0|0|0|-1|-1|3
2021-04-08 19:23:14.915 +0100|17535.28006816667|0.539398193359375|0.071685791015625|-0.4943695068359375|17535.26010716667|-3.060489378180217|0.2613438442216932|-0.08991213886043049|-5.817945957183838|0.2042992115020752|0.1299774050712585|0.3050278723239899|-0.1269624382257462|0.3550552725791931|XArbitraryZVertical|-0.1282553025816726|-0.0497982622955116|0.9898959923732102|-0.03430328828790121|0.2573353052139282|0.08979104459285736|-0.9621413946151733|0|0|0|-1|-1|3
2021-04-08 19:23:14.935 +0100|17535.30002816667|0.406402587890625|0.3131256103515625|-0.471343994140625|17535.28006816667|-3.023780338908312|0.2689594850333863|-0.2099295976480537|-6.615809440612793|-0.05453331768512726|0.3288638591766357|0.2966397702693939|-0.1312588453292847|0.461681604385376|XArbitraryZVertical|-0.1269931103292774|-0.1114959263865172|0.9846348905465012|-0.04399653991502041|0.2598945498466492|0.2083910405635834|-0.9428828358650208|0|0|0|-1|-1|3
2021-04-08 19:23:14.955 +0100|17535.31998916667|0.31573486328125|0.554718017578125|-0.4056396484375|17535.30002816667|-2.9784036741084|0.275976539570907|-0.3385968473687513|-7.001715660095215|-0.3396627306938171|0.3908830285072327|0.1820873618125916|-0.105724424123764|0.3903939723968506|XArbitraryZVertical|-0.1215310016834573|-0.1773846861876838|0.9749746766353191|-0.05647620083423183|0.2570153176784515|0.33216392993927|-0.9075297713279724|0|0|0|-1|-1|3
2021-04-08 19:23:14.975 +0100|17535.33994916667|0.306671142578125|0.7525482177734375|-0.388519287109375|17535.31998916667|-2.92392545290535|0.2911385945568704|-0.472417172188887|-7.080400466918945|-0.2757779657840729|0.7285959124565125|0.07732847332954407|0.06084346771240234|0.4355933666229248|XArbitraryZVertical|-0.1150434989171571|-0.245491429029095|0.9599451832470031|-0.07074104793123244|0.255603551864624|0.4550400376319885|-0.852997899055481|0|0|0|-1|-1|3
2021-04-08 19:23:14.995 +0100|17535.35991016667|0.3739471435546875|0.940460205078125|-0.3232269287109375|17535.33994916667|-2.859779172996305|0.3183697149941744|-0.5972179116076728|-6.407511234283447|-0.253237783908844|0.7673901915550232|0.03509441018104553|0.1372247338294983|0.3915801644325256|XArbitraryZVertical|-0.1092030866048233|-0.3088692573709154|0.9408596245700683|-0.08635787272701149|0.2588361203670502|0.5623441338539124|-0.7853489518165588|0|0|0|-1|-1|3
2021-04-08 19:23:15.015 +0100|17535.37987116667|0.38629150390625|0.9080047607421875|-0.243499755859375|17535.35991016667|-2.789769485276043|0.3532480301205004|-0.7060319654054875|-5.987213611602783|-0.545073926448822|0.9481855630874634|0.08863756060600281|0.2675769329071045|0.3822612166404724|XArbitraryZVertical|-0.1027642616716757|-0.3639517022792572|0.920111690840051|-0.1018495675866583|0.2632458508014679|0.6488194465637207|-0.7139573097229004|0|0|0|-1|-1|3
2021-04-08 19:23:15.035 +0100|17535.39983116667|0.3564453125|1.027694702148438|-0.34716796875|17535.37987116667|-2.707063875515165|0.395399845151726|-0.8058768059462943|-5.64816427230835|-0.9619995355606079|1.004758954048157|0.1126220524311066|0.1810270547866821|0.3647412657737732|XArbitraryZVertical|-0.0935572613743102|-0.4143940808942305|0.897390745836556|-0.1192250415938178|0.2667271494865417|0.7214381098747253|-0.6390491724014282|0|0|0|-1|-1|3
2021-04-08 19:23:15.055 +0100|17535.41979216667|0.1939544677734375|0.9003143310546875|-0.1346435546875|17535.39983116667|-2.613016074245887|0.4416855061790328|-0.8996989675328562|-5.492055416107178|-1.696736216545105|0.6387585401535034|0.134986400604248|0.241105854511261|0.2371406555175781|XArbitraryZVertical|-0.07958131274463778|-0.4610666123991968|0.8730159313143103|-0.1375778177868107|0.2658165991306305|0.7831397652626038|-0.5621687769889832|0|0|0|-1|-1|3
2021-04-08 19:23:15.075 +0100|17535.43975316667|0.1864776611328125|1.059539794921875|-0.2082672119140625|17535.41979216667|-2.51142150710845|0.489367558849901|-0.9990148492693723|-5.796210289001465|-1.518758177757263|0.3622078001499176|-0.009861141443252563|0.08159232139587402|0.2100856006145477|XArbitraryZVertical|-0.05816471473921532|-0.5077474662880561|0.8457033101391249|-0.1536079789923887|0.2543683052062988|0.8409382700920105|-0.4776187539100647|0|0|0|-1|-1|3
2021-04-08 19:23:15.095 +0100|17535.45971316667|0.17938232421875|1.157257080078125|-0.120635986328125|17535.43975316667|-2.378544542675728|0.5734613666691708|-1.104663588966177|-6.533502578735352|-1.463472247123718|0.06813205778598785|-0.07525835931301117|0.1727113127708435|0.1370129287242889|XArbitraryZVertical|-0.03607351949883075|-0.5567132846590571|0.813086357881935|-0.1663118454559195|0.2438378036022186|0.8933130502700806|-0.3775380253791809|0|0|0|-1|-1|3
2021-04-08 19:23:15.115 +0100|17535.47967416667|0.1549224853515625|1.296875|-0.144317626953125|17535.45971316667|-2.185639324500879|0.7197504159747395|-1.210198274655936|-6.500741004943848|-1.612058043479919|-0.272808313369751|-0.05824008584022522|0.1759014129638672|0.1341097056865692|XArbitraryZVertical|-0.01227354292905525|-0.6059611223679086|0.7756366558948572|-0.1762058100948359|0.2325873672962189|0.9356859922409058|-0.2653209567070007|0|0|0|-1|-1|3
2021-04-08 19:23:15.135 +0100|17535.49963516667|0.0937957763671875|1.226547241210938|-0.1119384765625|17535.47967416667|-1.90960843717746|0.9474597406343376|-1.300730921790565|-5.952386379241943|-1.88657808303833|-0.6525104641914368|-0.04270036518573761|0.3134223222732544|-0.007834196090698242|XArbitraryZVertical|0.01495508824299867|-0.6495428173197441|0.7376403635989853|-0.1837317427597386|0.2166203111410141|0.9637534618377686|-0.1557409465312958|0|0|0|-1|-1|3
2021-04-08 19:23:15.155 +0100|17535.51959516667|0.056732177734375|1.335403442382812|-0.2574615478515625|17535.49963516667|-1.497849278993888|1.310975462315371|-1.363498081562718|-5.333601951599121|-1.787382245063782|-0.6853052973747253|-0.09180736541748047|0.2683118581771851|-0.05230384320020676|XArbitraryZVertical|0.04364004280063265|-0.6867733109689802|0.7004251057315644|-0.189321699211265|0.1989090144634247|0.9785905480384827|-0.05287593230605125|0|0|0|-1|-1|3
2021-04-08 19:23:15.175 +0100|17535.53955666667|0.0075225830078125|1.428878784179688|-0.2211761474609375|17535.51959516667|-1.010222565168577|1.755894011430531|-1.380768921062999|-4.196444034576416|-1.651448130607605|-0.7176177501678467|-0.1169035136699677|0.2957872748374939|-0.24705970287323|XArbitraryZVertical|0.06890228251173748|-0.7159846595906638|0.6671129547264777|-0.1938526153395645|0.1856597810983658|0.9819990396499634|0.03476311638951302|0|0|0|-1|-1|3
2021-04-08 19:23:15.195 +0100|17535.55951666667|0.0110626220703125|1.267044067382812|-0.0466156005859375|17535.53955666667|-0.628212477423676|2.102109619838159|-1.369375393708283|-3.230656862258911|-1.15594208240509|-0.8859535455703735|-0.1471827179193497|0.4510945081710815|-0.3425154685974121|XArbitraryZVertical|0.0910061763764707|-0.7364782307385682|0.640925024965788|-0.1962978628796894|0.1724819391965866|0.979783296585083|0.1013646200299263|0|0|0|-1|-1|3
2021-04-08 19:23:15.214 +0100|17535.57947766667|-0.0939178466796875|1.183914184570312|0.0414581298828125|17535.55951666667|-0.3838073189492535|2.32319921964271|-1.352695978612124|-1.851707935333252|-0.7604280710220337|-0.7324832081794739|-0.1480163931846619|0.3236473202705383|-0.2361282110214233|XArbitraryZVertical|0.1080144688309415|-0.7498453866485402|0.622909316397823|-0.1950613403277095|0.1579652577638626|0.9763102531433105|0.1478704661130905|0|0|0|-1|-1|3
2021-04-08 19:23:15.235 +0100|17535.59943866667|-0.1988067626953125|0.853271484375|0.0047607421875|17535.59943866667|-0.09981288945178424|2.553142223670913|-1.323065885747964|-1.756416082382202|-0.9246347546577454|-0.4474662244319916|-0.3050064742565155|-0.06569278240203857|-0.1393577605485916|XArbitraryZVertical|0.140261332558353|-0.7630911334519906|0.5986103436843329|-0.1992100437816814|0.1361070722341537|0.9694713950157166|0.2039626389741898|0|0|0|-1|-1|3
2021-04-08 19:23:15.254 +0100|17535.61939866667|-0.2277374267578125|1.142715454101562|-0.0858001708984375||||||||||||||||||||||||3
2021-04-08 19:23:15.274 +0100|17535.63935966667|-0.2031097412109375|1.426300048828125|-0.015899658203125|17535.61939866667|-0.009265481272253096|2.62705000698231|-1.300264857426439|-1.097349762916565|-0.1123903840780258|-0.2371511608362198|-0.379857063293457|0.09430879354476929|-0.2723445296287537|XArbitraryZVertical|0.1504440843479706|-0.7705106486652326|0.5863024550751236|-0.1998231800998558|0.1315203011035919|0.9636290073394775|0.2326401621103287|0|0|0|-1|-1|3
2021-04-08 19:23:15.294 +0100|17535.65932066667|-0.12225341796875|1.151168823242188|-0.0071868896484375|17535.63935966667|0.01049319242812454|2.653525098531371|-1.293014954460212|0.1551059186458588|0.6831874251365662|0.01192515343427658|-0.3332852125167847|0.4490395784378052|-0.304705798625946|XArbitraryZVertical|0.1496134659164287|-0.7737688360372117|0.5835340149080178|-0.1959226444766654|0.1285885870456696|0.9616662263870239|0.2422048002481461|0|0|0|-1|-1|3
2021-04-08 19:23:15.314 +0100|17535.67928066667|0.0192413330078125|0.6693572998046875|-0.0482940673828125|17535.65932066667|0.02364391050511685|2.683296046149105|-1.298258862723203|-0.2286949902772903|1.343110680580139|-0.3743501305580139|-0.33669513463974|0.3007187247276306|-0.1935798823833466|XArbitraryZVertical|0.1464710660175054|-0.774109955280705|0.5865113020494527|-0.1878954623033852|0.1190896257758141|0.9630909562110901|0.2413999885320663|0|0|0|-1|-1|3
2021-04-08 19:23:15.334 +0100|17535.69924166667|0.0788116455078125|0.9856414794921875|-0.074188232421875|17535.67928066667|0.03767034479533986|2.723078031970526|-1.290201697731525|-0.4366261959075928|1.061380624771118|0.1506241708993912|-0.1083939671516418|-0.267256498336792|-0.3056403398513794|XArbitraryZVertical|0.1396045085738991|-0.7791175377095912|0.5849316907989049|-0.1770353353593512|0.1125444695353508|0.9608909487724304|0.2530271112918854|0|0|0|-1|-1|3
2021-04-08 19:23:15.368 +0100|17535.71920266667|-0.0908203125|1.146774291992188|-0.0579986572265625|17535.71920266667|0.002209635339962658|2.71451138958686|-1.277517945355321|0.3864181935787201|0.6005573272705078|0.604985773563385|-0.1619526892900467|0.2011770606040955|-0.3780412375926971|XArbitraryZVertical|0.1272142780369744|-0.784461455650289|0.5824693040457742|-0.1707820523508091|0.1197470501065254|0.9573012590408325|0.2631264925003052|0|0|0|-1|-1|3
2021-04-08 19:23:15.375 +0100|17535.73916266667|-0.1552734375|0.8443145751953125|0.0454254150390625|17535.73916266667|-0.0513741605880597|2.68125716988222|-1.281154419572532|0.5111871957778931|1.221155524253845|0.5738202929496765|-0.2909592390060425|-0.04721307754516602|-0.2142992317676544|XArbitraryZVertical|0.1162560012284141|-0.783851910403475|0.5864028457619167|-0.1679062983996968|0.1268816441297531|0.9583461880683899|0.2558785378932953|0|0|0|-1|-1|3
2021-04-08 19:23:15.395 +0100|17535.75912366667|0.010650634765625|0.7906951904296875|0.1275634765625|17535.75912366667|-0.09760162349600192|2.667807585064642|-1.283186437230727|0.1521154195070267|1.701334238052368|0.5184416174888611|-0.1633428037166595|-0.1815347671508789|-0.1255853474140167|XArbitraryZVertical|0.1022947334164366|-0.7846932614697393|0.5902373731849028|-0.1594120015492214|0.1294226944446564|0.9589245915412903|0.2524154484272003|0|0|0|-1|-1|3
2021-04-08 19:23:15.415 +0100|17535.77908466667|0.12689208984375|0.8407135009765625|0.123443603515625||||||||||||||||||||||||3
2021-04-08 19:23:15.434 +0100|17535.79904466667|0.128204345703125|0.955902099609375|0.228363037109375|17535.77908466667|-0.1207891657847894|2.677485833422999|-1.278924997384282|-0.1994491666555405|1.461191058158875|0.2644245028495789|-0.01974700391292572|-0.1342204809188843|-0.1631622612476349|XArbitraryZVertical|0.0898574878753169|-0.7877688058414913|0.5908479804096485|-0.1491465647634734|0.1288017928600311|0.9577071070671082|0.2573081254959106|0|0|0|-1|-1|3
2021-04-08 19:23:15.454 +0100|17535.81900566667|0.0888519287109375|1.097412109375|0.3180999755859375|17535.79904466667|-0.125240971418656|2.700015373370505|-1.269304117016753|-0.4855475425720215|1.221141338348389|0.2430790215730667|0.01129418611526489|-0.03071475028991699|-0.03721719980239868|XArbitraryZVertical|0.08041899681333801|-0.79231587274777|0.5884068132817927|-0.1398073392305672|0.1269049793481827|0.9548944234848022|0.2684633135795593|0|0|0|-1|-1|3
2021-04-08 19:23:15.474 +0100|17535.83896666667|0.080108642578125|1.14129638671875|0.4003448486328125|17535.81900566667|-0.1270234492416194|2.722206262055474|-1.261355982104722|-0.1628288775682449|1.138790845870972|0.1735768914222717|-0.02697233110666275|0.1149402856826782|0.01727324724197388|XArbitraryZVertical|0.07236634475252433|-0.7961351398076494|0.5862821333475715|-0.1311696209508356|0.1240032985806465|0.9525041580200195|0.2781361043453217|0|0|0|-1|-1|3
2021-04-08 19:23:15.494 +0100|17535.85892666667|0.103302001953125|1.07305908203125|0.576995849609375|17535.83896666667|-0.1433512157448986|2.727582147435497|-1.262809571008585|0.4943365156650543|0.958373486995697|0.2733394503593445|-0.0463566854596138|0.1917994618415833|0.09356224536895752|XArbitraryZVertical|0.06443583257766279|-0.796626197800835|0.5880749370089369|-0.124107924170859|0.1219490543007851|0.9529457688331604|0.2775305509567261|0|0|0|-1|-1|3
2021-04-08 19:23:15.514 +0100|17535.87888766667|0.2100677490234375|1.089523315429688|0.732940673828125|17535.85892666667|-0.1901497513758445|2.702142872515836|-1.272792642157824|0.9436087608337402|1.016386151313782|0.5433923006057739|-0.02716716378927231|0.1353387832641602|0.2698056995868683|XArbitraryZVertical|0.054437076656854|-0.7936589716837921|0.5940338187940464|-0.1194406265300118|0.124915324151516|0.9559245109558105|0.2657159268856049|0|0|0|-1|-1|3
2021-04-08 19:23:15.534 +0100|17535.89884866667|0.3179168701171875|1.231094360351562|0.727203369140625|17535.87888766667|-0.2615016932876006|2.653691222118467|-1.288293160071693|1.329064607620239|0.9789193272590637|0.6519578695297241|0.04129128158092499|0.1038790941238403|0.4161637723445892|XArbitraryZVertical|0.04264399020542264|-0.7882250997649075|0.6029425187207055|-0.1155122898938914|0.1306756287813187|0.9603606462478638|0.2462346404790878|0|0|0|-1|-1|3
2021-04-08 19:23:15.558 +0100|17535.91880866667|0.308349609375|1.068893432617188|0.757537841796875|17535.89884866667|-0.3605543291843037|2.573145817031677|-1.306795691474848|1.606849193572998|0.4139052629470825|0.6674760580062866|0.1620328277349472|0.2524199485778809|0.5321657657623291|XArbitraryZVertical|0.03103858096119373|-0.7803786646434607|0.613965220473089|-0.1144228211445331|0.1404730379581451|0.965353786945343|0.2199085056781769|0|0|0|-1|-1|3
2021-04-08 19:23:15.574 +0100|17535.93876966667|0.2178955078125|0.7891998291015625|0.6992645263671875|17535.91880866667|-0.4809387695554603|2.457985307778905|-1.32581802211011|1.54375422000885|-0.2181001901626587|0.6590319275856018|0.1738883554935455|0.1645317077636719|0.5670424699783325|XArbitraryZVertical|0.02348425153452893|-0.770368381447493|0.6260488448709612|-0.1185074263795225|0.153184175491333|0.9701426029205322|0.1880379021167755|0|0|0|-1|-1|3
2021-04-08 19:23:15.594 +0100|17535.95872966667|0.1847076416015625|0.902099609375|0.6736907958984375|17535.93876966667|-0.587731357559896|2.347616652787955|-1.337821907018919|1.076962113380432|-0.4077152907848358|0.4014553129673004|0.07137677073478699|-0.1363596320152283|0.5479158163070679|XArbitraryZVertical|0.01992974454753629|-0.7619224055139553|0.6352451223843369|-0.124663027376276|0.1646465659141541|0.9729840159416199|0.1618458926677704|0|0|0|-1|-1|3
2021-04-08 19:23:15.614 +0100|17535.97869066667|0.16729736328125|0.975006103515625|0.6364898681640625|17535.95872966667|-0.6597793595661303|2.268569277999396|-1.343670239416956|0.5187828540802002|-0.4264102280139923|0.2892197668552399|0.01965092122554779|-0.1251199245452881|0.5375542640686035|XArbitraryZVertical|0.01919278944063387|-0.7562882264072786|0.6408366413174403|-0.1303392325873304|0.1725491732358932|0.9743175506591797|0.1446804851293564|0|0|0|-1|-1|3
2021-04-08 19:23:15.633 +0100|17535.99865166667|0.1842193603515625|1.0052490234375|0.593536376953125|17535.97869066667|-0.7003552363456381|2.222240262665997|-1.344786489919788|0.3210341930389404|-0.2477299422025681|0.1891473382711411|-0.01071836054325104|-0.003910839557647705|0.5108381509780884|XArbitraryZVertical|0.01903561668491281|-0.7533755862583409|0.6434020624544513|-0.1345240641388177|0.1781991869211197|0.9745683073997498|0.1358742564916611|0|0|0|-1|-1|3
2021-04-08 19:23:15.653 +0100|17536.01861166667|0.142974853515625|0.8515777587890625|0.4443511962890625|17535.99865166667|-0.726182987895716|2.1924271121477|-1.345312403781648|0.1533094048500061|-0.2839070856571198|0.1039174869656563|7.058680057525635e-05|0.0379636287689209|0.493498682975769|XArbitraryZVertical|0.01905954040359369|-0.7514908256406473|0.6450196784190151|-0.1372878133679826|0.1817535012960434|0.9746860265731812|0.1302034556865692|0|0|0|-1|-1|3
2021-04-08 19:23:15.675 +0100|17536.03857266667|0.071533203125|0.8148651123046875|0.407928466796875|17536.01861166667|-0.7349051206222229|2.175160337277931|-1.345362737521253|0.005609122570604086|-0.588830292224884|0.006117774173617363|-0.02127543091773987|-0.07928085327148438|0.3487193584442139|XArbitraryZVertical|0.02136885221010661|-0.7503682454995344|0.6454655103731511|-0.1409442528415142|0.1839344650506973|0.9746972918510437|0.1270182579755783|0|0|0|-1|-1|3
2021-04-08 19:23:15.694 +0100|17536.05853366667|0.0680694580078125|0.7985382080078125|0.3772735595703125|17536.03857266667|-0.7239920234629138|2.174722796057674|-1.343924167719587|-0.3281185328960419|-0.4778366386890411|-0.06546559929847717|-0.09455244243144989|-0.1774384379386902|0.280559778213501|XArbitraryZVertical|0.02521894271263599|-0.750487201140584|0.6442889567151213|-0.144999669050065|0.1851442158222198|0.9743747115135193|0.1277340650558472|0|0|0|-1|-1|3
2021-04-08 19:23:15.713 +0100|17536.07849366667|0.074798583984375|0.8390655517578125|0.3404083251953125|17536.05853366667|-0.6762302425848484|2.214057540442951|-1.339716059089045|-0.6447011232376099|-0.281592071056366|-0.1963539272546768|-0.1180562824010849|-0.1609649658203125|0.234573021531105|XArbitraryZVertical|0.0294415998664071|-0.7535385812117088|0.6401707238825323|-0.1466101060565642|0.1832574456930161|0.9734195470809937|0.1373744010925293|0|0|0|-1|-1|3
2021-04-08 19:23:15.733 +0100|17536.09845466667|-0.0023040771484375|0.7179107666015625|0.3268585205078125|17536.07849366667|-0.6150425365436879|2.267023900472948|-1.33467800307138|-0.7802428603172302|-0.3931447863578796|-0.2527556121349335|-0.1035746484994888|-0.1139310002326965|0.2168702930212021|XArbitraryZVertical|0.03440816122612384|-0.7575151906343118|0.6350470383155868|-0.147316544561896|0.1794874370098114|0.9722533226013184|0.1500263661146164|0|0|0|-1|-1|3
2021-04-08 19:23:15.753 +0100|17536.11841566667|-0.0582427978515625|0.6879119873046875|0.29364013671875|17536.09845466667|-0.5501175461488351|2.320617346693273|-1.329283099779725|-0.8255995512008667|-0.5323551893234253|-0.3513475060462952|-0.1601214408874512|-0.2339316010475159|0.1623638868331909|XArbitraryZVertical|0.04084776945335127|-0.761466141609254|0.6295938455312342|-0.1487030054389755|0.1750296056270599|0.9709771871566772|0.1629984527826309|0|0|0|-1|-1|3
2021-04-08 19:23:15.773 +0100|17536.13837566667|-0.05438232421875|0.6580352783203125|0.24664306640625|17536.11841566667|-0.4804984866211115|2.377833956523427|-1.32139143461687|-1.024200677871704|-0.4338258504867554|-0.2751064300537109|-0.2192698568105698|-0.28595370054245|0.1190316677093506|XArbitraryZVertical|0.04778419526144426|-0.7660623633630516|0.6231191447992642|-0.1502927133078354|0.1707166880369186|0.9690594673156738|0.1782697439193726|0|0|0|-1|-1|3
2021-04-08 19:23:15.793 +0100|17536.15833666667|-0.0199127197265625|0.7082977294921875|0.2957305908203125|17536.13837566667|-0.3991987440860707|2.449929050992333|-1.306329275777769|-1.477000713348389|-0.261912077665329|-0.2923965752124786|-0.227834552526474|-0.302008330821991|0.04476940631866455|XArbitraryZVertical|0.05376747930697929|-0.7731563976994908|0.6137488777793803|-0.150501803595138|0.1667234003543854|0.9652319550514221|0.2013235092163086|0|0|0|-1|-1|3
2021-04-08 19:23:15.813 +0100|17536.17829766667|-0.0100555419921875|0.9225006103515625|0.323486328125|17536.15833666667|-0.3076594083413114|2.533497065487024|-1.283747651050311|-1.684653282165527|-0.2124139219522476|-0.3150874078273773|-0.1864082366228104|-0.2786022424697876|0.04816141724586487|XArbitraryZVertical|0.06002528983151958|-0.7826763378175978|0.6012338952004309|-0.1494416123709201|0.1617503464221954|0.959083616733551|0.2323705703020096|0|0|0|-1|-1|3
2021-04-08 19:23:15.833 +0100|17536.19825766667|-0.079345703125|0.9394683837890625|0.357513427734375|17536.17829766667|-0.2326440193323378|2.598927061341534|-1.259995334165786|-1.564082264900208|-0.4861873090267181|-0.2261249572038651|-0.1664927452802658|-0.07234305143356323|0.07615602016448975|XArbitraryZVertical|0.0664838289088124|-0.7915320991417681|0.5888873983918111|-0.1492269458635066|0.1579328626394272|0.9520888924598694|0.261886328458786|0|0|0|-1|-1|3
2021-04-08 19:23:15.853 +0100|17536.21821866667|-0.0769805908203125|0.8674163818359375|0.3433837890625|17536.19825766667|-0.1748215235215728|2.642563356841927|-1.237861819591301|-1.398640155792236|-0.5685967803001404|-0.2370848506689072|-0.222675234079361|-0.01098966598510742|0.05248403549194336|XArbitraryZVertical|0.07381188742802121|-0.7987695763237166|0.577610164711534|-0.1512799132818444|0.1564065963029861|0.9450873732566833|0.2869620621204376|0|0|0|-1|-1|3
2021-04-08 19:23:15.873 +0100|17536.23817966667|0.00750732421875|0.8325653076171875|0.3494720458984375|17536.21821866667|-0.1245072357664132|2.680737497532207|-1.211820766409148|-1.656534194946289|-0.3282804191112518|-0.08592995256185532|-0.2371825724840164|-0.0362628698348999|0.01838883757591248|XArbitraryZVertical|0.0800339673172307|-0.8068000558268801|0.565063420462087|-0.1528777009613632|0.156234934926033|0.9362572431564331|0.3146635293960571|0|0|0|-1|-1|3
2021-04-08 19:23:15.893 +0100|17536.25813966667|0.0135040283203125|0.9284210205078125|0.4196014404296875|17536.23817966667|-0.07869612282473144|2.717706791831621|-1.177461919819682|-2.173539876937866|-0.2427450269460678|-0.006991546601057053|-0.1637140512466431|-0.07733762264251709|-0.003007084131240845|XArbitraryZVertical|0.08474046250189174|-0.8170031558303897|0.5493422721409074|-0.1534537156481633|0.1576413065195084|0.9236361980438232|0.3493502140045166|0|0|0|-1|-1|3
2021-04-08 19:23:15.913 +0100|17536.27810066667|-0.0171356201171875|1.026031494140625|0.4736785888671875|17536.25813966667|-0.03752161537101904|2.748685666859048|-1.139124653299441|-2.037584543228149|-0.3891642987728119|0.04462024942040443|-0.1471599936485291|-0.05755925178527832|-0.004642903804779053|XArbitraryZVertical|0.08974719036583523|-0.827767905371768|0.5318813759956718|-0.1544279154480626|0.160191223025322|0.908267617225647|0.3865085244178772|0|0|0|-1|-1|3
2021-04-08 19:23:15.933 +0100|17536.29806066667|0.0362396240234375|1.075485229492188|0.505828857421875|17536.27810066667|-0.006517725340996913|2.770074604507028|-1.100612788452874|-1.886764049530029|-0.2238614559173584|0.09609036892652512|-0.1714442223310471|0.1519268155097961|0.04067105054855347|XArbitraryZVertical|0.09385425065287795|-0.8380111314719275|0.5144618978731077|-0.1557497753483527|0.164471223950386|0.8914851546287537|0.4221425652503967|0|0|0|-1|-1|3
2021-04-08 19:23:15.953 +0100|17536.31802166667|0.06927490234375|0.97357177734375|0.496002197265625|17536.29806066667|0.01699324031857465|2.787767743628303|-1.065336285466282|-1.808680772781372|-0.1878327280282974|0.1100482568144798|-0.1470974534749985|0.1764710545539856|0.07518702745437622|XArbitraryZVertical|0.09657610026534785|-0.8472195875773799|0.498600925181142|-0.1558505154394912|0.1677733510732651|0.8749518394470215|0.454215943813324|0|0|0|-1|-1|3
2021-04-08 19:23:15.973 +0100|17536.33798266667|0.0773162841796875|0.93231201171875|0.4568634033203125|17536.31802166667|0.03899458982216384|2.804358688143332|-1.029337984980787|-2.004259824752808|-0.09051161259412766|0.04661308974027634|-0.1023230999708176|0.1377477645874023|0.01855596899986267|XArbitraryZVertical|0.09932249024443895|-0.8563371464412569|0.4823253807872274|-0.1555121251455108|0.1705300956964493|0.8569579720497131|0.4863565266132355|0|0|0|-1|-1|3
2021-04-08 19:23:15.993 +0100|17536.35794266667|0.1149749755859375|0.9085693359375|0.3878326416015625|17536.33798266667|0.06335272321509941|2.825782041566324|-0.989135776459238|-2.166443586349487|0.204838439822197|0.04449152946472168|-0.09199643135070801|0.1076407432556152|-0.05823767185211182|XArbitraryZVertical|0.1021306861706915|-0.8664236983705443|0.4641274167181301|-0.1531835881846916|0.1706404834985733|0.8355515003204346|0.5222414135932922|0|0|0|-1|-1|3
2021-04-08 19:23:16.013 +0100|17536.37790366667|0.1814727783203125|0.907379150390625|0.3772125244140625|17536.35794266667|0.08162848307279215|2.847576289924878|-0.947610599700722|-2.104102849960327|0.4785143435001373|0.2076088935136795|-0.07161466777324677|0.1037642359733582|-0.1577940583229065|XArbitraryZVertical|0.1026956355610717|-0.8767804821940123|0.4456598432361494|-0.1486509417576456|0.1691338419914246|0.8120232820510864|0.5585808157920837|0|0|0|-1|-1|3
2021-04-08 19:23:16.033 +0100|17536.39786466667|0.230010986328125|0.9221649169921875|0.3616485595703125|17536.37790366667|0.09248713851018432|2.867388382166171|-0.9097548141443716|-1.713714003562927|0.5774799585342407|0.3074612021446228|-0.008512824773788452|0.1002196073532104|-0.2302711009979248|XArbitraryZVertical|0.1011202066421015|-0.8861582408128721|0.4290885273207782|-0.1427635785933631|0.1662431955337524|0.7893532514572144|0.5910034775733948|0|0|0|-1|-1|3
2021-04-08 19:23:16.053 +0100|17536.41782466667|0.2160491943359375|0.7978363037109375|0.2915496826171875|17536.39786466667|0.09170385320858562|2.876868081193225|-0.877678363086388|-1.3945232629776|0.4261871576309204|0.5854457020759583|0.05970890820026398|0.1771849989891052|-0.2526228427886963|XArbitraryZVertical|0.09714602999449301|-0.8938140655867017|0.4152535655218068|-0.1386501032364372|0.1671743541955948|0.7692575454711914|0.6166818737983704|0|0|0|-1|-1|3
2021-04-08 19:23:16.073 +0100|17536.43778566667|0.2597503662109375|0.8299560546875|0.314422607421875|17536.41782466667|0.08047725148558856|2.876100929253661|-0.8484652528797552|-1.235105752944946|0.3968798816204071|0.8578945994377136|0.05263374745845795|0.06229513883590698|-0.3338648676872253|XArbitraryZVertical|0.0907758535086203|-0.9004141580892457|0.4028174773172371|-0.1369389167874185|0.1734712719917297|0.7502666115760803|0.637971818447113|0|0|0|-1|-1|3
2021-04-08 19:23:16.093 +0100|17536.45774666667|0.3244171142578125|0.97271728515625|0.3663482666015625|17536.43778566667|0.06184541797416031|2.871500580559103|-0.8199634423146464|-1.043460965156555|0.5321181416511536|1.093852639198303|0.05619817972183228|0.09175586700439453|-0.3584884405136108|XArbitraryZVertical|0.08173661920769526|-0.9066842111444242|0.390956893120275|-0.1356307892628023|0.1820376068353653|0.7311208844184875|0.6575142741203308|0|0|0|-1|-1|3
2021-04-08 19:23:16.113 +0100|17536.47770666667|0.2993927001953125|0.9764251708984375|0.391815185546875|17536.45774666667|0.03631950540917289|2.863480618071593|-0.7992446322730569|-0.3771913349628448|0.4286257326602936|1.244518041610718|0.1286760717630386|0.2478317022323608|-0.3076189756393433|XArbitraryZVertical|0.07048602485923335|-0.9111861926162668|0.3829326647218483|-0.1346628851381328|0.1914231181144714|0.7168295979499817|0.670457124710083|0|0|0|-1|-1|3
2021-04-08 19:23:16.133 +0100|17536.49766766667|0.2829132080078125|0.8748626708984375|0.387054443359375|17536.47770666667|-0.001374719783558972|2.843532513461247|-0.7903957167476178|0.2532120943069458|0.3223540484905243|1.543387055397034|0.1055971682071686|0.2783826589584351|-0.2784852385520935|XArbitraryZVertical|0.05653570361154577|-0.9127295073015048|0.3808174604762422|-0.1367726325069239|0.2066132724285126|0.7106317281723022|0.6725428700447083|0|0|0|-1|-1|3
2021-04-08 19:23:16.153 +0100|17536.51762866667|0.299835205078125|0.7705841064453125|0.356048583984375|17536.49766766667|-0.04954939729639871|2.817645934243039|-0.7877050238175839|0.4988482594490051|0.4932703971862793|1.770383715629578|0.05664479732513428|0.1837207674980164|-0.2759278416633606|XArbitraryZVertical|0.03929054974586572|-0.9126041322936472|0.3822986680686565|-0.1394916396783584|0.2245598435401917|0.7087361216545105|0.6687800884246826|0|0|0|-1|-1|3
2021-04-08 19:23:16.173 +0100|17536.53758825|0.2930908203125|0.805755615234375|0.4514617919921875|17536.51762866667|-0.102865168168248|2.790077164934124|-0.7841976102154947|0.5550891160964966|0.5111806392669678|1.911101102828979|0.05819261074066162|0.1143458485603333|-0.3014153838157654|XArbitraryZVertical|0.01995203597098519|-0.9121045399976534|0.3840512881832519|-0.1420282478560378|0.2437640130519867|0.7062573432922363|0.6646655797958374|0|0|0|-1|-1|3
2021-04-08 19:23:16.193 +0100|17536.55754925|0.2865753173828125|0.8014373779296875|0.536163330078125|17536.53758825|-0.1621891861215917|2.758288063698201|-0.7832046957558155|0.8322563171386719|0.5101852416992188|2.068112134933472|0.02717781066894531|0.09657061100006104|-0.2291471362113953|XArbitraryZVertical|-0.001040589742223194|-0.9102828282125983|0.3877125265379642|-0.1451315695732877|0.2650284469127655|0.7055540680885315|0.6572318077087402|0|0|0|-1|-1|3
2021-04-08 19:23:16.213 +0100|17536.57751025|0.3379364013671875|0.93341064453125|0.5514984130859375|17536.55754925|-0.2293378977006991|2.721252395239246|-0.7859096705287306|1.294124841690063|0.5620437860488892|2.184979438781738|-0.006602555513381958|0.06841117143630981|-0.1156066060066223|XArbitraryZVertical|-0.02400876604937104|-0.9066615695692862|0.3940854697341915|-0.1486107662560553|0.2884023487567902|0.7074683904647827|0.6452232599258423|0|0|0|-1|-1|3
2021-04-08 19:23:16.233 +0100|17536.59747025|0.43511962890625|1.066162109375|0.4488372802734375|17536.57751025|-0.3060720309796794|2.680158246841766|-0.7940242720745587|1.704392910003662|0.8193488121032715|2.356483936309814|0.0057411789894104|0.1912547945976257|-0.0713646411895752|XArbitraryZVertical|-0.04947016575423542|-0.9007703144798099|0.4041675690313201|-0.1510437499405523|0.3120999336242676|0.7131800055503845|0.6276689171791077|0|0|0|-1|-1|3
2021-04-08 19:23:16.252 +0100|17536.61743125|0.456756591796875|0.8659820556640625|0.476470947265625|17536.59747025|-0.3959299209750744|2.634215082862591|-0.8090258279158162|2.577288389205933|0.8938929438591003|2.532229900360107|0.08215048909187317|0.2699919939041138|-0.137220025062561|XArbitraryZVertical|-0.07816696529578659|-0.8919173651738624|0.4189101361456168|-0.1512871133550215|0.3353610634803772|0.7236151695251465|0.6032533049583435|0|0|0|-1|-1|3
2021-04-08 19:23:16.272 +0100|17536.63739225|0.387847900390625|0.64459228515625|0.593475341796875|17536.61743125|-0.4964584337246776|2.577923655319499|-0.8225650816512006|2.429063320159912|0.8146336078643799|2.652723789215088|0.09523910284042358|0.3181172013282776|-0.04163306951522827|XArbitraryZVertical|-0.1085352162107734|-0.8807767015410449|0.4348741857596544|-0.152764823366584|0.3635017275810242|0.7328933477401733|0.575094997882843|0|0|0|-1|-1|3
2021-04-08 19:23:16.292 +0100|17536.65735225|0.370269775390625|0.57763671875|0.6544189453125|17536.63739225|-0.5995670449995071|2.515990433109458|-0.8330809371920233|2.211188316345215|0.7185510993003845|2.547228336334229|0.01792508363723755|-0.07858389616012573|0.000559389591217041|XArbitraryZVertical|-0.1380052024995823|-0.8680799217158667|0.4509016958164277|-0.1551764044759931|0.3938646018505096|0.7400071024894714|0.5452163815498352|0|0|0|-1|-1|3
2021-04-08 19:23:16.312 +0100|17536.67731325|0.574859619140625|0.7095794677734375|0.57464599609375|17536.65735225|-0.6918231516060573|2.466387101942404|-0.8362691377708639|1.902266502380371|1.193732380867004|2.219388484954834|-0.06978431344032288|-0.1692104339599609|0.1377156376838684|XArbitraryZVertical|-0.1658240311474965|-0.8567896631606186|0.4630692626109894|-0.154857481360763|0.4189366102218628|0.7421477437019348|0.5231722593307495|0|0|0|-1|-1|3
2021-04-08 19:23:16.332 +0100|17536.69727425|0.8208160400390625|0.7820892333984375|0.5698394775390625|17536.67731325|-0.7773174109526542|2.429524466376619|-0.8366768882699802|1.73905348777771|1.405484080314636|2.147403955459595|0.08001118898391724|-0.05792653560638428|0.08521252870559692|XArbitraryZVertical|-0.1935141156645155|-0.8462425550705939|0.4730630673715176|-0.1504573414362908|0.4377355575561523|0.7424209713935852|0.5071483254432678|0|0|0|-1|-1|3
2021-04-08 19:23:16.352 +0100|17536.71723425|1.022918701171875|1.144454956054688|0.626068115234375|17536.69727425|-0.8493869423154516|2.40556057113783|-0.8341059614523412|1.383210301399231|1.474038481712341|1.61807119846344|0.2992794215679169|-0.01709365844726562|0.07395690679550171|XArbitraryZVertical|-0.2187162855549196|-0.8373329792077636|0.4799029933065174|-0.1439788748388976|0.4510417282581329|0.740696132183075|0.497926652431488|0|0|0|-1|-1|3
2021-04-08 19:23:16.372 +0100|17536.73719525|1.01666259765625|1.322128295898438|0.7658233642578125|17536.71723425|-0.9068562309036305|2.387177310415886|-0.8326518566609942|1.258678793907166|0.9196919798851013|1.304399728775024|0.5434328317642212|0.3476383686065674|0.1254472732543945|XArbitraryZVertical|-0.2385656363936136|-0.829610923116339|0.4855435146221856|-0.1381296142520445|0.4608556628227234|0.7397184371948242|0.4903357028961182|0|0|0|-1|-1|3
2021-04-08 19:23:16.392 +0100|17536.75715525|1.041030883789062|1.48211669921875|0.818328857421875|17536.73719525|-0.9554668232312523|2.365377387970705|-0.8363081618048908|1.389916658401489|0.6490112543106079|0.8010144829750061|0.5489272475242615|0.5466752052307129|0.2688599228858948|XArbitraryZVertical|-0.252437446323181|-0.8218244965678287|0.4927922215034594|-0.1342977309558357|0.4695367515087128|0.7421739101409912|0.4782403409481049|0|0|0|-1|-1|3
2021-04-08 19:23:16.412 +0100|17536.77711625|1.037673950195312|1.262786865234375|0.710968017578125|17536.75715525|-1.002035005162185|2.34028114162001|-0.8495875180056622|1.613833546638489|0.2992652654647827|0.4442821443080902|0.5547545552253723|0.7174674868583679|0.354265034198761|XArbitraryZVertical|-0.2619863749161365|-0.8130607670302994|0.5035373582993953|-0.1294052629349861|0.4742685258388519|0.7510080933570862|0.4594093561172485|0|0|0|-1|-1|3
2021-04-08 19:23:16.432 +0100|17536.79707725|0.94940185546875|0.9927978515625|0.519927978515625|17536.77711625|-1.045405484445815|2.308710603219766|-0.8703290552943094|1.727506041526794|-0.2023832201957703|-0.01436619460582733|0.5704295635223389|0.5413670539855957|0.3000369668006897|XArbitraryZVertical|-0.2662517507931436|-0.8036962978999082|0.5171714576117924|-0.1253634807924157|0.4769039452075958|0.7645410895347595|0.4336354732513428|0|0|0|-1|-1|3
2021-04-08 19:23:16.452 +0100|17536.81703725|0.8111724853515625|0.8549652099609375|0.3498687744140625|17536.79707725|-1.074362736332005|2.279251683188765|-0.8925164722061237|1.174594521522522|-0.5176374316215515|-0.4918454885482788|0.5092952251434326|0.286440908908844|0.1809567213058472|XArbitraryZVertical|-0.2643835588125215|-0.796386699877062|0.5297879515532566|-0.1232659356057644|0.4764691591262817|0.7786532044410706|0.4082608819007874|0|0|0|-1|-1|3
2021-04-08 19:23:16.472 +0100|17536.83699825|0.6828460693359375|1.030532836914062|0.306182861328125|17536.81703725|-1.078059446648273|2.263993365086555|-0.9150350511132319|0.5455048084259033|-0.7098706960678101|-1.050658941268921|0.3790502846240997|0.07454252243041992|-0.003896772861480713|XArbitraryZVertical|-0.2558261517260261|-0.7933297660461643|0.538824819351427|-0.1218553597916472|0.4690339267253876|0.7925839424133301|0.3896382749080658|0|0|0|-1|-1|3
2021-04-08 19:23:16.492 +0100|17536.85695925|0.5985260009765625|1.161163330078125|0.16595458984375|17536.83699825|-1.068231405097233|2.256273043879415|-0.9400975249050694|0.7003041505813599|-0.7966145873069763|-1.163925409317017|0.2544949352741241|0.1604782342910767|-0.06412270665168762|XArbitraryZVertical|-0.2431344696027358|-0.792174916220111|0.5466822939395644|-0.1203457192043021|0.4565043449401855|0.8076156377792358|0.373310923576355|0|0|0|-1|-1|3
2021-04-08 19:23:16.512 +0100|17536.87691925|0.5053558349609375|0.8678131103515625|0.173919677734375|17536.85695925|-1.075636432770593|2.234045932913234|-0.9695916383482954|1.463460803031921|-0.9083583950996399|-0.8691039085388184|0.1747496724128723|0.3308324217796326|-0.1450967490673065|XArbitraryZVertical|-0.2319193062362122|-0.7876161908114317|0.558413836241178|-0.1185256203323548|0.445719301700592|0.8246548175811768|0.3482516705989838|0|0|0|-1|-1|3
2021-04-08 19:23:16.532 +0100|17536.89688025|0.44671630859375|0.5637054443359375|0.1511993408203125|17536.87691925|-1.104588545265599|2.191591467941163|-1.001867282544854|1.659039378166199|-0.9534316658973694|-0.7708624005317688|0.08740812540054321|0.114583432674408|-0.1379402875900269|XArbitraryZVertical|-0.2222557700705755|-0.7792864263271834|0.5740402278522011|-0.1174437477048777|0.4382121562957764|0.8424783945083618|0.3133699297904968|0|0|0|-1|-1|3
2021-04-08 19:23:16.552 +0100|17536.91684125|0.3426971435546875|0.40679931640625|0.175689697265625|17536.89688025|-1.123117196807316|2.15570617457405|-1.026696289383567|0.5862818956375122|-1.055142283439636|-0.746106743812561|0.03797882795333862|-0.2096734642982483|-0.116495668888092|XArbitraryZVertical|-0.2119352241808983|-0.7732960137230899|0.5857004257762711|-0.11854119074602|0.4315959513187408|0.8555935025215149|0.2858065366744995|0|0|0|-1|-1|3
2021-04-08 19:23:16.572 +0100|17536.93680125|0.2449951171875|0.4466705322265625|0.2102813720703125|17536.91684125|-1.110876073577018|2.144438272283897|-1.041743616216374|-0.2894793748855591|-1.099413633346558|-0.8452255725860596|-0.05428162217140198|-0.4504435658454895|-0.1092195212841034|XArbitraryZVertical|-0.199519645481901|-0.7727518191488306|0.5900644369059059|-0.1219457969770361|0.4239265620708466|0.8632855415344238|0.2739069163799286|0|0|0|-1|-1|3
2021-04-08 19:23:16.592 +0100|17536.95676225|0.15704345703125|0.5718231201171875|0.21380615234375|17536.93680125|-1.074686575036747|2.154273369906137|-1.047680780868758|-0.7755411863327026|-1.003596425056458|-0.6534658670425415|-0.1458387970924377|-0.4468942284584045|-0.08153986930847168|XArbitraryZVertical|-0.1866782724800327|-0.7763815535239362|0.5884290907956501|-0.1270208502929975|0.4169271290302277|0.8662669062614441|0.275234192609787|0|0|0|-1|-1|3
2021-04-08 19:23:16.612 +0100|17536.97672325|0.080902099609375|0.5429840087890625|0.22882080078125|17536.97672325|-1.022113379852957|2.156280903369409|-1.055152604661954|0.06239164248108864|-1.10877001285553|-0.3362726867198944|-0.3191088140010834|-0.3177293539047241|-0.04667201638221741|XArbitraryZVertical|-0.1646537925345606|-0.7804691704187803|0.5867698225332578|-0.1394927687673271|0.4109673500061035|0.8699755072593689|0.2724860012531281|0|0|0|-1|-1|3
2021-04-08 19:23:16.632 +0100|17536.99668325|0.0472259521484375|0.4922332763671875|0.2850189208984375||||||||||||||||||||||||3
2021-04-08 19:23:16.652 +0100|17537.01664425|0.085693359375|0.525054931640625|0.2510528564453125|17536.99668325|-1.023175026057193|2.134401731356625|-1.061065146904677|0.229109600186348|-0.930817723274231|-0.1249534338712692|-0.360945463180542|-0.3714260458946228|-0.007092386484146118|XArbitraryZVertical|-0.1569247488462555|-0.7782758647922815|0.5902109727673774|-0.1459878153272759|0.4124749898910522|0.8728756904602051|0.2606773972511292|0|0|0|-1|-1|3
2021-04-08 19:23:16.672 +0100|17537.03660525|0.1038055419921875|0.399200439453125|0.35443115234375|17537.01664425|-1.030278707978475|2.111586500983619|-1.062967427693144|-0.04524673521518707|-0.7818678617477417|0.179492399096489|-0.3488355875015259|-0.3357315063476562|0.01808738708496094|XArbitraryZVertical|-0.1523809670338552|-0.7758558253083041|0.5930132253232291|-0.1521948562616248|0.4168903827667236|0.8738023042678833|0.250344455242157|0|0|0|-1|-1|3
2021-04-08 19:23:16.692 +0100|17537.05656525|0.1691741943359375|0.840087890625|0.4639434814453125|17537.03660525|-1.022503607357568|2.106278963755763|-1.05684767062983|-0.484570175409317|-0.436177134513855|0.1127432808279991|-0.3312661945819855|-0.4963134527206421|0.07832491397857666|XArbitraryZVertical|-0.1495880250975251|-0.7765626221151537|0.5911849735362342|-0.1583490445701819|0.4228042960166931|0.8708100914955139|0.2508521676063538|0|0|0|-1|-1|3
2021-04-08 19:23:16.711 +0100|17537.07652625|0.148345947265625|0.9730224609375|0.54296875|17537.05656525|-1.008234939699136|2.10915553789346|-1.048114820013226|-0.4972923994064331|-0.5139749646186829|0.2498716711997986|-0.2605020701885223|-0.1403178572654724|0.1644831597805023|XArbitraryZVertical|-0.1474457311213275|-0.7786129213085059|0.5874801991793911|-0.1639778717934255|0.4285934865474701|0.8664836883544922|0.2559566497802734|0|0|0|-1|-1|3
2021-04-08 19:23:16.732 +0100|17537.09648725|0.129425048828125|0.93548583984375|0.54473876953125|17537.07652625|-1.004521413975685|2.101384240646272|-1.040688079460387|0.04660467430949211|-0.5947540998458862|0.3416014313697815|-0.2817959487438202|0.1044873595237732|0.2725889086723328|XArbitraryZVertical|-0.1458926339981288|-0.7788769986291433|0.5857327089442885|-0.1702454897768002|0.4361087679862976|0.8627523183822632|0.2558680772781372|0|0|0|-1|-1|3
2021-04-08 19:23:16.751 +0100|17537.11644725|0.2145233154296875|0.9053192138671875|0.515411376953125|17537.09648725|-1.021364890896838|2.07507342228835|-1.035745701665051|0.4230212867259979|-0.4993695318698883|0.4750247895717621|-0.3166552186012268|0.1072713732719421|0.3071329593658447|XArbitraryZVertical|-0.1461774674676465|-0.7757666518528027|0.5877929911941071|-0.1769683967547592|0.4464165568351746|0.8602428436279297|0.2463635057210922|0|0|0|-1|-1|3
2021-04-08 19:23:16.771 +0100|17537.13640825|0.3283843994140625|0.9039459228515625|0.4594573974609375|17537.11644725|-1.042841672777693|2.050002371581732|-1.031067717601664|0.218736469745636|-0.1328389346599579|0.4741380512714386|-0.27887824177742|0.03277689218521118|0.2885792255401611|XArbitraryZVertical|-0.148503068095311|-0.7722828620308448|0.5903413535296639|-0.1817229747946486|0.4560180902481079|0.8578481674194336|0.2369479537010193|0|0|0|-1|-1|3
2021-04-08 19:23:16.791 +0100|17537.15636925|0.412445068359375|0.9561920166015625|0.453460693359375|17537.13640825|-1.05397809172766|2.039911371230263|-1.023968976606215|-0.009371224790811539|0.05056237056851387|0.3961739242076874|-0.1591180264949799|0.06108951568603516|0.2184545993804932|XArbitraryZVertical|-0.1519613382696933|-0.7710048851222819|0.5902900992012872|-0.1844369386874339|0.4638061225414276|0.8541785478591919|0.2350815683603287|0|0|0|-1|-1|3
2021-04-08 19:23:16.811 +0100|17537.17632925|0.440582275390625|1.06341552734375|0.474395751953125|17537.15636925|-1.057173819712916|2.03877931741624|-1.016973072005356|-0.08596596866846085|0.06905109435319901|0.3196583986282349|-0.0734277069568634|0.08005285263061523|0.2178615629673004|XArbitraryZVertical|-0.1549734709842793|-0.7711072250406913|0.5888768417570003|-0.1860139177992217|0.4693939387798309|0.8505199551582336|0.2372462600469589|0|0|0|-1|-1|3
2021-04-08 19:23:16.831 +0100|17537.19629025|0.4241485595703125|1.026138305664062|0.5133514404296875|17537.17632925|-1.061891311665455|2.034413874618529|-1.012214052772291|0.09771837294101715|-0.1323905736207962|0.2195499837398529|-0.03457093238830566|0.2045286893844604|0.2380641400814056|XArbitraryZVertical|-0.1569461398307702|-0.7706289355170569|0.5884369256404929|-0.1877258897544846|0.4740398228168488|0.8480073213577271|0.2370020896196365|0|0|0|-1|-1|3
2021-04-08 19:23:16.851 +0100|17537.21625125|0.4825439453125|0.929107666015625|0.4545440673828125|17537.19629025|-1.071652369116529|2.022648487833703|-1.010567506337796|0.2117689549922943|-0.1505693644285202|0.1615438461303711|-0.05411559343338013|0.1829416751861572|0.2787691354751587|XArbitraryZVertical|-0.1577368143159387|-0.7688485586181625|0.589864474130913|-0.1898712077005009|0.478051096200943|0.8471335172653198|0.2320180237293243|0|0|0|-1|-1|3
2021-04-08 19:23:16.871 +0100|17537.23621125|0.558837890625|0.9647064208984375|0.39715576171875|17537.21625125|-1.073888305750778|2.020226347683182|-1.009305702128089|-0.1511645913124084|0.04715240746736526|-0.02172566391527653|-0.01552319526672363|0.1149024963378906|0.242476224899292|XArbitraryZVertical|-0.1582660352608392|-0.7685139481047668|0.5899492190966454|-0.1905210938845599|0.4795740842819214|0.8464623689651489|0.2313236594200134|0|0|0|-1|-1|3
2021-04-08 19:23:16.891 +0100|17537.25617225|0.5755157470703125|1.102508544921875|0.345062255859375|17537.23621125|-1.058291358412247|2.034785285041606|-1.008131336982271|-0.5918346047401428|0.05418496206402779|-0.2533960044384003|0.06871730089187622|0.09726375341415405|0.1786775887012482|XArbitraryZVertical|-0.1569025713612268|-0.7711967882497118|0.5870192478346911|-0.189857369497869|0.4770444333553314|0.8458365201950073|0.2387258112430573|0|0|0|-1|-1|3
2021-04-08 19:23:16.911 +0100|17537.27613325|0.5653076171875|0.9885406494140625|0.264068603515625|17537.25617225|-1.035144418064575|2.054147386080153|-1.009712963827071|-0.4638970494270325|-0.06773801892995834|-0.4111296832561493|0.09934863448143005|0.2130895853042603|0.1158025115728378|XArbitraryZVertical|-0.153148170087145|-0.7747212598322165|0.5837398850853249|-0.1886808437651214|0.4711475074291229|0.846679151058197|0.2472947835922241|0|0|0|-1|-1|3
2021-04-08 19:23:16.931 +0100|17537.29609325|0.55792236328125|0.8948211669921875|0.240966796875|17537.27613325|-1.013266917997069|2.071040394314194|-1.014639840054673|-0.3306843638420105|-0.1071600392460823|-0.594233512878418|0.1066945791244507|0.1970964074134827|0.02429640293121338|XArbitraryZVertical|-0.1481129076323781|-0.7776051350631265|0.5817233150793699|-0.1870586627373854|0.4632370173931122|0.8492904901504517|0.2532143592834473|0|0|0|-1|-1|3
2021-04-08 19:23:16.951 +0100|17537.31605425|0.5319366455078125|0.8520660400390625|0.211883544921875|17537.29609325|-0.9882676890253381|2.089719400531759|-1.022814766205525|-0.4860866069793701|-0.1369867622852325|-0.7496344447135925|0.1097211837768555|0.04904073476791382|-0.01726722717285156|XArbitraryZVertical|-0.1413916980169015|-0.780508587644638|0.5802646596040455|-0.1846830591040236|0.4523826241493225|0.8535777926445007|0.2583705484867096|0|0|0|-1|-1|3
2021-04-08 19:23:16.971 +0100|17537.33601525|0.4953460693359375|0.8492584228515625|0.19439697265625|17537.31605425|-0.9519857093698818|2.117450830690406|-1.030396733733757|-0.7400371432304382|-0.1863973438739777|-0.8530794978141785|0.1028864085674286|0.007792294025421143|-0.05145540833473206|XArbitraryZVertical|-0.133013733657432|-0.7848749456073151|0.5771406539723375|-0.1821740873616751|0.439503014087677|0.8575031757354736|0.2674426734447479|0|0|0|-1|-1|3
2021-04-08 19:23:16.991 +0100|17537.35597525|0.502166748046875|0.9097900390625|0.179290771484375|17537.33601525|-0.90781668964243|2.151398959714053|-1.036907388078073|-0.7991203665733337|-0.2129926383495331|-0.9085416197776794|0.07726708054542542|-0.03061896562576294|-0.07926371693611145|XArbitraryZVertical|-0.1235286177526068|-0.7901326106906945|0.5728345690208632|-0.1796991863951009|0.4254952967166901|0.860834538936615|0.2791377305984497|0|0|0|-1|-1|3
2021-04-08 19:23:17.011 +0100|17537.37593625|0.50189208984375|0.907989501953125|0.1526336669921875|17537.35597525|-0.8636641917016831|2.184583059334341|-1.043668665071527|-0.6215240955352783|-0.3036083281040192|-0.8901692032814026|0.08860030770301819|0.03595209121704102|-0.1054930984973907|XArbitraryZVertical|-0.1136271121497562|-0.7949590874879164|0.5689315285758273|-0.1773300613329368|0.4112323820590973|0.8642555475234985|0.2897421419620514|0|0|0|-1|-1|3
2021-04-08 19:23:17.031 +0100|17537.39589725|0.4395904541015625|0.7998199462890625|0.1470489501953125|17537.37593625|-0.8258677873690419|2.209484611862169|-1.051358811170341|-0.4734620451927185|-0.4740034639835358|-0.8510423898696899|0.1097279787063599|0.07008844614028931|-0.1304706037044525|XArbitraryZVertical|-0.1035573046650673|-0.7982708270201454|0.5665853383829492|-0.1761274287798001|0.3985428810119629|0.8680985569953918|0.2959208488464355|0|0|0|-1|-1|3
2021-04-08 19:23:17.051 +0100|17537.41585725|0.3797149658203125|0.72991943359375|0.130126953125|17537.39589725|-0.792297376381659|2.228080514124847|-1.059648724875598|-0.420804888010025|-0.5603505373001099|-0.8045946359634399|0.07090038061141968|-0.06398642063140869|-0.1490784883499146|XArbitraryZVertical|-0.0932002389028303|-0.8004687877097456|0.5652966311852252|-0.1760774359782625|0.3872605562210083|0.8721836805343628|0.2988731265068054|0|0|0|-1|-1|3
2021-04-08 19:23:17.071 +0100|17537.43581825|0.389617919921875|0.7675018310546875|0.150177001953125|17537.41585725|-0.7602642915256312|2.245215055111399|-1.065725415794039|-0.5288938283920288|-0.4288316965103149|-0.7398490309715271|0.01275035738945007|-0.1251246929168701|-0.1725113689899445|XArbitraryZVertical|-0.08361449640039657|-0.8025479711907518|0.5636396129072938|-0.1767366423244694|0.3779361546039581|0.8751401901245117|0.3021492660045624|0|0|0|-1|-1|3
2021-04-08 19:23:17.091 +0100|17537.45577925|0.41754150390625|0.8523712158203125|0.199249267578125|17537.43581825|-0.7297291366075013|2.263163076755796|-1.06992490134185|-0.6465681791305542|-0.3206081390380859|-0.640163242816925|0.01241403818130493|-0.1383944153785706|-0.1649647355079651|XArbitraryZVertical|-0.07531941606545862|-0.8047325608669941|0.5615788382645186|-0.1770931691219029|0.3696208596229553|0.8771644234657288|0.306535005569458|0|0|0|-1|-1|3
2021-04-08 19:23:17.111 +0100|17537.47573925|0.3986358642578125|0.890960693359375|0.2259521484375|17537.45577925|-0.6947516034274169|2.287430305615243|-1.071884018188701|-0.4868426322937012|-0.3527577221393585|-0.5665518641471863|0.04609879851341248|-0.05653947591781616|-0.1374201774597168|XArbitraryZVertical|-0.06752261310292071|-0.8078258934630352|0.558262448025553|-0.1766386913363671|0.3607772886753082|0.878103494644165|0.3142839670181274|0|0|0|-1|-1|3
2021-04-08 19:23:17.131 +0100|17537.49570025|0.367950439453125|0.8389129638671875|0.2412872314453125|17537.47573925|-0.6723891061489801|2.29702360247706|-1.074416605432529|-0.3133951723575592|-0.5228343605995178|-0.4255853295326233|0.05885100364685059|0.02591544389724731|-0.1000516712665558|XArbitraryZVertical|-0.06053771060183073|-0.8089879303638688|0.5568152750724281|-0.1784112132550918|0.3560816943645477|0.8793124556541443|0.3162525594234467|0|0|0|-1|-1|3
2021-04-08 19:23:17.151 +0100|17537.51566125|0.3742218017578125|0.8685455322265625|0.25238037109375|17537.49570025|-0.6590921581642322|2.297234238891588|-1.076967147795495|-0.3205889463424683|-0.4496978521347046|-0.2987796366214752|0.01368987560272217|-0.03932225704193115|-0.07127693295478821|XArbitraryZVertical|-0.05459894052719696|-0.8089730331637076|0.5564696900107899|-0.1814473155501625|0.3543372750282288|0.8805242776870728|0.3148368299007416|0|0|0|-1|-1|3
2021-04-08 19:23:17.171 +0100|17537.53562125|0.3505859375|0.8149261474609375|0.240631103515625|17537.51566125|-0.6464028312805661|2.298324222372729|-1.076744794556635|-0.4972783327102661|-0.3941472172737122|-0.2004876881837845|0.01765593886375427|-0.005998492240905762|-0.06666615605354309|XArbitraryZVertical|-0.04982139723587584|-0.8094407776197302|0.555205058851089|-0.1845829703739497|0.3541401624679565|0.8804188370704651|0.3153530955314636|0|0|0|-1|-1|3
2021-04-08 19:23:17.191 +0100|17537.555583|0.2680511474609375|0.80792236328125|0.2403411865234375|17537.53562125|-0.6266895291542042|2.306977596650746|-1.072746747117062|-0.6049476861953735|-0.4114438593387604|-0.1712277978658676|0.006439745426177979|-0.05988162755966187|-0.07990765571594238|XArbitraryZVertical|-0.04518498003913781|-0.8113826084791893|0.5518068857257131|-0.1874189966539869|0.3540037870407104|0.8785159587860107|0.3207668364048004|0|0|0|-1|-1|3
2021-04-08 19:23:17.211 +0100|17537.575544|0.228668212890625|0.8289794921875|0.236724853515625|17537.555583|-0.6035211058083566|2.31965122174973|-1.066077590773615|-0.6554937958717346|-0.3020166158676147|-0.1143501400947571|-0.06340652704238892|-0.05858367681503296|-0.08546575903892517|XArbitraryZVertical|-0.04082235059445689|-0.8142099915899849|0.5470514588644035|-0.1900798190676193|0.3541936278343201|0.8753105401992798|0.3292087614536285|0|0|0|-1|-1|3
2021-04-08 19:23:17.230 +0100|17537.595504|0.2668914794921875|0.91326904296875|0.21136474609375|17537.575544|-0.5812325578633493|2.335299075365231|-1.058641537922116|-0.6224578022956848|-0.06956419348716736|-0.07159282267093658|-0.1250795125961304|-0.05975490808486938|-0.1078996062278748|XArbitraryZVertical|-0.03770975789514378|-0.8174235778606066|0.5420208046293445|-0.1913378414638879|0.3536870777606964|0.871690571308136|0.3392066657543182|0|0|0|-1|-1|3
2021-04-08 19:23:17.250 +0100|17537.615465|0.3111419677734375|0.9349365234375|0.1975555419921875|17537.595504|-0.5649382427509625|2.349845495814538|-1.051353985964246|-0.4421900808811188|0.06738816201686859|0.02050612308084965|-0.09726029634475708|0.03412604331970215|-0.1313177049160004|XArbitraryZVertical|-0.0366164160355645|-0.8203927048834702|0.5376110766450791|-0.1912840976208554|0.3532269299030304|0.8680961132049561|0.3487699031829834|0|0|0|-1|-1|3
2021-04-08 19:23:17.270 +0100|17537.635426|0.32452392578125|0.9099884033203125|0.1529693603515625|17537.615465|-0.5601892028704641|2.355142540891135|-1.047181126716954|-0.2174389809370041|0.1275575011968613|0.09362374991178513|-0.0537029504776001|0.06147325038909912|-0.149380624294281|XArbitraryZVertical|-0.03702272966306227|-0.8217207648989842|0.5355694401270698|-0.1912320984505137|0.3539352715015411|0.8660171627998352|0.3531914055347443|0|0|0|-1|-1|3
2021-04-08 19:23:17.290 +0100|17537.655386|0.27752685546875|0.823944091796875|0.1297149658203125|17537.635426|-0.5630283634288465|2.354368264063697|-1.044824094159345|-0.06294100731611252|0.1163768023252487|0.1959177106618881|-0.02690276503562927|0.06030446290969849|-0.1923401653766632|XArbitraryZVertical|-0.03850889883471769|-0.8220070749540261|0.5350120164653952|-0.1912686261393875|0.3556537628173828|0.8648362159729004|0.354357123374939|0|0|0|-1|-1|3
2021-04-08 19:23:17.310 +0100|17537.675347|0.2361297607421875|0.7631072998046875|0.120697021484375|17537.655386|-0.570225591659535|2.350640105780082|-1.043490893748555|-0.01995169743895531|0.2097307741641998|0.279872715473175|-0.06770676374435425|-0.02442866563796997|-0.2177623212337494|XArbitraryZVertical|-0.04076792776194803|-0.8217406260434704|0.5352975243243473|-0.1911467709493363|0.3577920794487|0.8641661405563354|0.3538393676280975|0|0|0|-1|-1|3
2021-04-08 19:23:17.330 +0100|17537.695308|0.152923583984375|0.767486572265625|0.1443939208984375|17537.675347|-0.580745682421147|2.346425428965503|-1.038673765907164|0.09937950968742371|0.2555880844593048|0.4509443938732147|-0.1111185848712921|-0.08548653125762939|-0.2348324954509735|XArbitraryZVertical|-0.04505088284492222|-0.8219427091427244|0.534676265729948|-0.1910552381342641|0.3622481822967529|0.8617321252822876|0.3552387952804565|0|0|0|-1|-1|3
2021-04-08 19:23:17.350 +0100|17537.715268|0.0985870361328125|0.6899871826171875|0.17681884765625|17537.695308|-0.6045714635789609|2.331216092005037|-1.035367253642467|0.5292438268661499|0.2782910168170929|0.664967954158783|-0.1962702870368958|-0.1051664352416992|-0.2129030525684357|XArbitraryZVertical|-0.0515190589013925|-0.8204700021762065|0.5361520635374384|-0.1916143161929075|0.3696717023849487|0.8600497841835022|0.3516504764556885|0|0|0|-1|-1|3
2021-04-08 19:23:17.370 +0100|17537.735229|0.183746337890625|0.6373291015625|0.19696044921875|17537.715268|-0.6431871261410493|2.306498875851567|-1.031345423262531|0.5878856778144836|0.6243086457252502|0.9566295146942139|-0.2824977934360504|-0.122333824634552|-0.172469288110733|XArbitraryZVertical|-0.06163417165759122|-0.8176574523052031|0.539153797286846|-0.1922259814582324|0.3808106184005737|0.8579908609390259|0.3447249531745911|0|0|0|-1|-1|3
2021-04-08 19:23:17.390 +0100|17537.75519|0.2020263671875|0.761932373046875|0.2293701171875|17537.735229|-0.6881717293318359|2.283244119094253|-1.023204537937932|0.5796107649803162|0.8494963049888611|1.168323993682861|-0.233107328414917|-0.23660808801651|-0.1570439040660858|XArbitraryZVertical|-0.0756873287684547|-0.8151302469780064|0.5414801775444005|-0.1913989582479819|0.39399653673172|0.8537808060646057|0.3403317928314209|0|0|0|-1|-1|3
2021-04-08 19:23:17.410 +0100|17537.77515|0.2016448974609375|0.802886962890625|0.2104644775390625|17537.75519|-0.7372881716534916|2.25940522332953|-1.012671307464384|0.7161810994148254|0.9927181601524353|1.305309414863586|-0.1997959315776825|-0.1272562742233276|-0.1223833858966827|XArbitraryZVertical|-0.09183363568407518|-0.8123031516096454|0.5436338887442483|-0.190243242788242|0.4089181125164032|0.848249614238739|0.3365396559238434|0|0|0|-1|-1|3
2021-04-08 19:23:17.430 +0100|17537.795111|0.3067779541015625|0.8797149658203125|0.207855224609375|17537.77515|-0.7921270120080087|2.236970173964504|-1.001706861243453|0.9196425080299377|1.428668260574341|1.368188142776489|-0.2316345572471619|-0.0299680233001709|-0.1177240610122681|XArbitraryZVertical|-0.1107618016506414|-0.8088488904782148|0.5463519150062619|-0.1870694600652811|0.4236516952514648|0.8423919677734375|0.3330094218254089|0|0|0|-1|-1|3
2021-04-08 19:23:17.450 +0100|17537.815072|0.3475189208984375|1.0030517578125|0.298309326171875|17537.795111|-0.8554443540224729|2.215014036682717|-0.9922441937932912|1.230423450469971|1.638143658638|1.503681421279907|-0.1555219888687134|0.01120996475219727|-0.1361563205718994|XArbitraryZVertical|-0.1327702285948112|-0.8040973937155658|0.5504993157030746|-0.1809701310390392|0.4372150599956512|0.8372552394866943|0.328401118516922|0|0|0|-1|-1|3
2021-04-08 19:23:17.470 +0100|17537.835032|0.3639068603515625|1.13494873046875|0.3091888427734375|17537.815072|-0.9294751252104559|2.186923327339855|-0.9832477919377268|1.50811493396759|1.775989890098572|1.615463852882385|-0.1105519235134125|0.1428719758987427|-0.05112114548683167|XArbitraryZVertical|-0.1570755037342761|-0.7971780599677422|0.5563400971463069|-0.1741269542505855|0.4523951709270477|0.8323020935058594|0.3203311562538147|0|0|0|-1|-1|3
2021-04-08 19:23:17.490 +0100|17537.854993|0.3468017578125|1.247085571289062|0.2530517578125|17537.835032|-1.010901134201978|2.156089782363546|-0.975127639139301|1.775050520896912|1.940037727355957|1.613291621208191|-0.108069509267807|0.2730720639228821|0.009623438119888306|XArbitraryZVertical|-0.182988056153297|-0.7883484876092102|0.5634943534981932|-0.1658204790982523|0.4676741063594818|0.8277735114097595|0.3099559247493744|0|0|0|-1|-1|3
2021-04-08 19:23:17.510 +0100|17537.874954|0.308807373046875|1.346847534179688|0.22918701171875|17537.854993|-1.099896765178547|2.12332357785911|-0.9691893080276541|2.162713289260864|2.157977342605591|1.629899978637695|-0.125627338886261|0.395940363407135|-0.02676475048065186|XArbitraryZVertical|-0.2102267802724002|-0.7773842002551262|0.5722046341030697|-0.155114693556164|0.4817529022693634|0.8244271874427795|0.2970429956912994|0|0|0|-1|-1|3
2021-04-08 19:23:17.530 +0100|17537.894914|0.3694305419921875|1.395751953125|0.2163543701171875|17537.874954|-1.198970316670426|2.088602945132509|-0.9637985379560606|2.434865236282349|2.559921741485596|1.709948182106018|-0.1875983476638794|0.502778172492981|-0.03598371148109436|XArbitraryZVertical|-0.239971735982366|-0.7639251493090244|0.5820607480688498|-0.1415531228723671|0.4956282377243042|0.821364164352417|0.2823361456394196|0|0|0|-1|-1|3
2021-04-08 19:23:17.550 +0100|17537.914875|0.482177734375|1.548019409179688|0.2100982666015625|17537.894914|-1.307721600529778|2.05526186829724|-0.9581998234250949|2.833333492279053|2.993495464324951|1.779966711997986|-0.1639460921287537|0.5592377185821533|-0.04397979378700256|XArbitraryZVertical|-0.2729718420922756|-0.747919732310005|0.5922183573024697|-0.1240160628701169|0.5088260173797607|0.8181577920913696|0.2677951157093048|0|0|0|-1|-1|3
2021-04-08 19:23:17.570 +0100|17537.934836|0.62750244140625|1.772125244140625|0.198760986328125|17537.914875|-1.431661003807223|2.016718591770585|-0.9538067489913679|3.404626131057739|3.231828927993774|1.837060809135437|-0.07038980722427368|0.6755868792533875|-0.02427208423614502|XArbitraryZVertical|-0.3085146463567607|-0.7277274361359258|0.6039021554173933|-0.1026343611275734|0.522005021572113|0.815623939037323|0.2495370209217072|0|0|0|-1|-1|3
2021-04-08 19:23:17.590 +0100|17537.954796|0.802734375|1.871597290039062|0.14483642578125|17537.934836|-1.573188725665895|1.968449773091003|-0.9489296105388511|3.945693254470825|3.479730844497681|1.959888815879822|0.04732930660247803|0.9142276644706726|-0.003262162208557129|XArbitraryZVertical|-0.3458855693242016|-0.7022548589612562|0.6173005934843661|-0.07836735000705951|0.5370984673500061|0.8127924203872681|0.2255974262952805|0|0|0|-1|-1|3
2021-04-08 19:23:17.610 +0100|17537.974757|0.8596038818359375|1.825698852539062|0.0484466552734375|17537.954796|-1.727687363351565|1.913169208630809|-0.9422789483345394|4.22487211227417|3.475252628326416|1.969151020050049|0.2048454880714417|1.0653977394104|-0.03588868677616119|XArbitraryZVertical|-0.3837691287873503|-0.6718741472477732|0.6313905527106167|-0.05150216209359169|0.5538223385810852|0.8089001178741455|0.197387233376503|0|0|0|-1|-1|3
2021-04-08 19:23:17.630 +0100|17537.994718|0.9042816162109375|1.800643920898438|0.0380859375|17537.974757|-1.894093557814645|1.845521636677081|-0.9315563281149933|4.887182235717773|3.247028827667236|2.078133344650269|0.2904874682426453|1.027406215667725|-0.0853055864572525|XArbitraryZVertical|-0.4198586628237317|-0.6361134846994342|0.6469039933467728|-0.02436452220808086|0.5742136836051941|0.802549421787262|0.161843329668045|0|0|0|-1|-1|3
2021-04-08 19:23:17.650 +0100|17538.014678|1.55548095703125|1.726119995117188|-0.27001953125|17537.994718|-2.074925863734625|1.77548203466025|-0.9140925430477299|5.2787184715271|4.37282133102417|2.294996976852417|0.2453904747962952|1.028257369995117|-0.04514313489198685|XArbitraryZVertical|-0.4577598310708615|-0.5937186822973706|0.6617461212392807|0.006801417759847645|0.597765326499939|0.7920088768005371|0.1240918710827827|0|0|0|-1|-1|3
2021-04-08 19:23:17.681 +0100|17538.034639|3.06951904296875|0.978851318359375|-1.397354125976562|17538.014678|-2.257357674592306|1.736785675803453|-0.8874084076514702|5.075584888458252|6.115958213806152|2.529489040374756|0.6802341341972351|1.028867483139038|-0.2603654861450195|XArbitraryZVertical|-0.5044322924519899|-0.5456304409146511|0.6675867359122594|0.04651433997369883|0.6227453351020813|0.7754379510879517|0.1043290346860886|0|0|0|-1|-1|3
2021-04-08 19:23:17.715 +0100|17538.0546|4.361312866210938|-0.2795257568359375|-2.83612060546875|17538.034639|-2.407486693355467|1.745879206633083|-0.8494573766594393|3.750712156295776|5.766037464141846|2.639699935913086|2.010960578918457|0.4505544304847717|-1.28277313709259|XArbitraryZVertical|-0.5566149577433814|-0.4976911447085962|0.6597931118236285|0.08459689485179288|0.6502951979637146|0.7509221434593201|0.1150333732366562|0|0|0|-1|-1|3
2021-04-08 19:23:17.717 +0100|17538.07456|5.161697387695312|-0.75384521484375|-3.528533935546875|17538.0546|-2.493773214914887|1.765063289535496|-0.8156612304211346|1.405977964401245|2.437269687652588|1.412818908691406|3.483389854431152|-0.6505581736564636|-2.569827318191528|XArbitraryZVertical|-0.5919509697247918|-0.4644891264422105|0.6502757460155711|0.1048118310829287|0.6724948287010193|0.7281789779663086|0.1323121935129166|0|0|0|-1|-1|3
2021-04-08 19:23:17.730 +0100|17538.094521|7.448135375976562|0.537628173828125|-1.1817626953125|17538.07456|-2.506848497864152|1.769276009211107|-0.8078527810814642|-0.1706885695457458|-0.7397139072418213|-0.6976198554039001|4.191625595092773|-1.518429517745972|-3.715225219726562|XArbitraryZVertical|-0.5981841806209459|-0.4585915470206575|0.6483836954021858|0.1070894567457544|0.6774851083755493|0.7228050231933594|0.1362610459327698|0|0|0|-1|-1|3
2021-04-08 19:23:17.749 +0100|17538.114482|5.900238037109375|0.87274169921875|4.132568359375|17538.094521|-2.487961454086289|1.713004003040228|-0.839321878626783|-0.3313090801239014|-8.042373657226562|-2.090660572052002|6.260772705078125|-0.5841414332389832|-2.283406257629395|XArbitraryZVertical|-0.5677848521755579|-0.474294778588192|0.6654051627643996|0.09950418619258844|0.6612253189086914|0.7441903352737427|0.09467034786939621|0|0|0|-1|-1|3
2021-04-08 19:23:17.769 +0100|17538.134442|1.271957397460938|0.102203369140625|7.410842895507812|17538.114482|-2.474320239112049|1.444258367959873|-0.8831760038979015|0.01695886626839638|-19.04465293884277|-2.21441912651062|6.260481357574463|0.4798348546028137|2.854360818862915|XArbitraryZVertical|-0.4596025916276636|-0.4987140393447207|0.733517599490105|0.04474249449505852|0.6296257376670837|0.7727586030960083|-0.08009953051805496|0|0|0|-1|-1|3
2021-04-08 19:23:17.789 +0100|17538.154403|0.375030517578125|-4.285049438476562|2.93218994140625|17538.134442|-2.506510042945684|0.9805957110832383|-0.9330502517031367|-1.299021124839783|-24.29866600036621|-4.126290798187256|1.663799047470093|-0.4181711077690125|7.626880645751953|XArbitraryZVertical|-0.2756492078992137|-0.5082745590160143|0.8146578231175691|-0.04480320974774602|0.4946642220020294|0.803439736366272|-0.3313489854335785|0|0|0|-1|-1|3
2021-04-08 19:23:17.809 +0100|17538.174364|2.011932373046875|0.097564697265625|5.15557861328125|17538.154403|-2.597877123930145|0.4320335274695681|-1.079772173282541|-8.442794799804688|-17.77724647521973|-6.456732749938965|-0.1416820138692856|-3.198699474334717|5.044230461120605|XArbitraryZVertical|-0.04227973646860914|-0.533020319986955|0.8366470113014661|-0.1188431314458319|0.1974380314350128|0.8818504214286804|-0.4282035231590271|0|0|0|-1|-1|3
2021-04-08 19:23:17.829 +0100|17538.194324|3.117095947265625|5.72314453125|7.053375244140625|17538.174364|2.68053144789392|-0.6560251646232647|-1.43089482600159|-18.72951126098633|7.563617706298828|-25.19582557678223|1.635580658912659|-3.795252799987793|3.00702977180481|XArbitraryZVertical|0.09484398954639148|-0.6601169060585301|0.7439405262237431|-0.04246077905885032|-0.08505842089653015|0.9902297258377075|-0.1105005741119385|0|0|0|-1|-1|3
2021-04-08 19:23:17.849 +0100|17538.214285|1.425323486328125|-1.689971923828125|0.4105224609375|17538.194324|1.576453641910528|-1.849133118422359|-1.024119362283644|-13.02331161499023|-10.40375328063965|-13.76137065887451|3.702710390090942|3.667579174041748|8.289951324462891|XArbitraryZVertical|0.2854650963724596|-0.6999472188421704|0.648058757932908|0.09275587654336624|-0.4998447597026825|0.8542567491531372|0.1428328603506088|0|0|0|-1|-1|3
2021-04-08 19:23:17.869 +0100|17538.234246|2.644454956054688|-3.18658447265625|0.7679290771484375|17538.214285|1.484952393158556|-2.018300301717566|-0.8022861373538742|-2.521034002304077|-0.2281392514705658|-4.433017253875732|1.587468147277832|-0.6155986785888672|0.5532978773117065|XArbitraryZVertical|0.3735994068593343|-0.7147073728862384|0.5750013463463154|0.1378059216283829|-0.6266221404075623|0.7189469933509827|0.3007662892341614|0|0|0|-1|-1|3
2021-04-08 19:23:17.889 +0100|17538.254206|-0.153167724609375|-1.716995239257812|2.01153564453125|17538.234246|1.563786449442837|-1.978977487471379|-0.7717992260932884|4.624109745025635|-2.673616170883179|-1.260836958885193|3.373462677001953|-4.265265941619873|-0.02401891350746155|XArbitraryZVertical|0.398920868141637|-0.6950520102151674|0.5816788823812291|0.1393363535290048|-0.6577796936035156|0.6974257826805115|0.2844703197479248|0|0|0|-1|-1|3
2021-04-08 19:23:17.909 +0100|17538.274167|-0.82763671875|-0.618560791015625|2.1246337890625|17538.254206|1.693518125138162|-1.963408648253628|-0.8305737922232863|5.763447761535645|-3.532850503921509|3.135362863540649|0.9931453466415405|-2.790930509567261|1.568962574005127|XArbitraryZVertical|0.421436365240991|-0.6718744019799575|0.6030527211022251|0.08546116397728459|-0.6231350302696228|0.7383185029029846|0.2580476403236389|0|0|0|-1|-1|3
2021-04-08 19:23:17.929 +0100|17538.294128|-0.782501220703125|-0.5711212158203125|1.58203125|17538.274167|1.807827694084535|-1.920760419852932|-0.9664956530489371|5.896098613739014|-1.133064866065979|6.119818210601807|-0.2102417349815369|-1.575798511505127|1.962262153625488|XArbitraryZVertical|0.4053813736234307|-0.6580816246767388|0.6343313299117291|0.01478106592479826|-0.5337464809417725|0.8228996396064758|0.1948109716176987|0|0|0|-1|-1|3
2021-04-08 19:23:17.949 +0100|17538.314088|-0.5648345947265625|0.2631378173828125|1.05218505859375|17538.294128|1.99018270284286|-1.76865672734487|-1.121893817039485|6.955488681793213|0.4434123039245605|6.13022518157959|-0.4066736102104187|-1.571471214294434|1.630679368972778|XArbitraryZVertical|0.3658115048430731|-0.6394027297531101|0.6741956782352333|-0.05297648622859871|-0.4255104660987854|0.9009239077568054|0.08530781418085098|0|0|0|-1|-1|3
2021-04-08 19:23:17.969 +0100|17538.334049|-0.4720916748046875|0.873931884765625|0.7801361083984375|17538.314088|2.320268605791505|-1.439728286414633|-1.239561127432788|5.990669727325439|1.644431233406067|4.926984786987305|-0.2910111248493195|-0.8752676844596863|1.251867890357971|XArbitraryZVertical|0.3176849076894091|-0.614674549171795|0.7140393694279323|-0.1067688573828879|-0.3224228620529175|0.9456413388252258|-0.0425029955804348|0|0|0|-1|-1|3
2021-04-08 19:23:17.989 +0100|17538.35401|-0.525634765625|0.82415771484375|0.60137939453125|17538.334049|2.763032633150114|-0.9849128225787385|-1.284287481348813|4.784106731414795|1.488542437553406|3.962796688079834|-0.24000583589077|-0.2059101462364197|0.9751397371292114|XArbitraryZVertical|0.2725594515743077|-0.5895592459898565|0.7463306115269165|-0.1453336357429261|-0.2354733496904373|0.9592363238334656|-0.1562624871730804|0|0|0|-1|-1|3
2021-04-08 19:23:18.009 +0100|17538.37397|-0.375091552734375|0.7675018310546875|0.373443603515625|17538.35401|3.134965899197905|-0.5928628058300849|-1.276041510739782|3.620465517044067|2.143893241882324|2.959700584411621|-0.356985867023468|-0.07035315036773682|0.8491743206977844|XArbitraryZVertical|0.232755535760693|-0.5704034787802099|0.7688139149700239|-0.1714355252102608|-0.1623165458440781|0.9568734169006348|-0.2409294694662094|0|0|0|-1|-1|3
2021-04-08 19:23:18.029 +0100|17538.393931|-0.2177581787109375|0.6062469482421875|0.0883636474609375|17538.37397|-2.912331404399911|-0.3174623242724976|-1.244338960173955|2.383593797683716|2.771436929702759|2.099534511566162|-0.3257825672626495|-0.184260368347168|0.7831952571868896|XArbitraryZVertical|0.1934259549779503|-0.5570042660608876|0.7865977886948167|-0.1832942282782332|-0.1001055240631104|0.9471843838691711|-0.3046652972698212|0|0|0|-1|-1|3
2021-04-08 19:23:18.049 +0100|17538.413892|-0.1831207275390625|0.5061492919921875|-0.1475372314453125|17538.393931|-2.785374127346199|-0.1480976036738824|-1.218819059830828|1.062879085540771|2.148130178451538|1.524534702301025|-0.1968860328197479|-0.2674285173416138|0.4776376187801361|XArbitraryZVertical|0.1608345825821463|-0.5510370328466991|0.7973005630253052|-0.1865537947999336|-0.05087090656161308|0.9386928677558899|-0.3409808576107025|0|0|0|-1|-1|3
2021-04-08 19:23:18.069 +0100|17538.433852|-0.0952911376953125|0.7176971435546875|-0.2003936767578125|17538.413892|-2.706643546254566|-0.0370991953202451|-1.211072799494634|0.003974790684878826|1.665864706039429|1.056828737258911|-0.1736347228288651|-0.4408925771713257|0.2770349681377411|XArbitraryZVertical|0.1376839693275867|-0.5524096362529707|0.8004144015549364|-0.1876795299393398|-0.01305650174617767|0.9359942078590393|-0.3517734408378601|0|0|0|-1|-1|3
2021-04-08 19:23:18.089 +0100|17538.453813|-0.0404815673828125|0.61053466796875|-0.215667724609375|17538.433852|-2.659680110883722|0.04269472926894606|-1.218866069272457|-0.875213086605072|1.775802969932556|0.6784675121307373|-0.1316408514976501|-0.2846413254737854|0.132786750793457|XArbitraryZVertical|0.1195648804832704|-0.5599160009990374|0.7990182963568684|-0.1837614170859717|0.01471286173909903|0.9387090802192688|-0.3443966209888458|0|0|0|-1|-1|3
2021-04-08 19:23:18.109 +0100|17538.473774|-0.133148193359375|0.2962799072265625|-0.0357818603515625|17538.453813|-2.614692189786165|0.1151049544225204|-1.246899834267655|-1.979526042938232|1.199658989906311|0.5538813471794128|-0.07140378654003143|-0.2560777068138123|0.08242219686508179|XArbitraryZVertical|0.1066998638229341|-0.574923035995403|0.7913051993767026|-0.1786475276012059|0.03655284270644188|0.9480025172233582|-0.3161572813987732|0|0|0|-1|-1|3
2021-04-08 19:23:18.129 +0100|17538.493734|-0.1245574951171875|0.523681640625|-0.0512542724609375|17538.473774|-2.564298509338155|0.1818562178100315|-1.292549236126938|-2.671348094940186|0.7348874807357788|0.1702905595302582|-0.1591726839542389|-0.619619607925415|0.1930379867553711|XArbitraryZVertical|0.101224205387621|-0.5955525569168302|0.7777101346938986|-0.1738905694352656|0.04967576637864113|0.9615383744239807|-0.2701416313648224|0|0|0|-1|-1|3
2021-04-08 19:23:18.149 +0100|17538.513695|-0.0242767333984375|0.8892059326171875|-0.17449951171875|17538.493734|-2.518779932694909|0.2384618585608219|-1.349400082627382|-3.115872859954834|0.528597354888916|-0.1344014406204224|-0.1902208924293518|-0.5551512241363525|0.1700122952461243|XArbitraryZVertical|0.1016177787653513|-0.6188573811133391|0.7608252386405386|-0.1668367849029158|0.05186960846185684|0.975591778755188|-0.2133787423372269|0|0|0|-1|-1|3
2021-04-08 19:23:18.169 +0100|17538.533656|0.0460205078125|0.9082183837890625|-0.27130126953125|17538.513695|-2.429319397920113|0.336319075780673|-1.413961973333659|-3.50217604637146|0.4418154656887054|-0.0806259959936142|-0.1051193103194237|-0.1576486825942993|-0.001560911536216736|XArbitraryZVertical|0.1040027831621447|-0.6445636995611559|0.7404680220459392|-0.1594623942053969|0.05154586955904961|0.9877266883850098|-0.1474421173334122|0|0|0|-1|-1|3
2021-04-08 19:23:18.189 +0100|17538.553615875|-0.1249847412109375|0.7349853515625|-0.237030029296875|17538.533656|-2.168307845265424|0.5982098100950581|-1.480084399316678|-3.846335172653198|-0.2450961768627167|-0.01678532175719738|-0.00452335923910141|-0.054146409034729|-0.1739673614501953|XArbitraryZVertical|0.1090200184465406|-0.671330990601976|0.7166569115359589|-0.1543776336084381|0.05101707950234413|0.9958884716033936|-0.07485867291688919|0|0|0|-1|-1|3
2021-04-08 19:23:18.209 +0100|17538.573576875|-0.23321533203125|0.95489501953125|-0.1693267822265625|17538.553615875|-1.185562227471058|1.568767710184699|-1.521077489663611|-3.679372310638428|-0.6292764544487|-0.07322791963815689|-0.1236321702599525|-0.25030517578125|-0.2697212696075439|XArbitraryZVertical|0.1187689134485205|-0.6970247703293936|0.6903298126461168|-0.1532821759706662|0.04970350489020348|0.9987642765045166|-0.0001008294930215925|0|0|0|-1|-1|3
2021-04-08 19:23:18.229 +0100|17538.593537875|-0.181304931640625|1.126983642578125|-0.0413970947265625|17538.573576875|-0.2224441274696863|2.519044720907102|-1.483966070408474|-3.432961702346802|-0.4455211460590363|0.1783515959978104|-0.2655802965164185|-0.1141828298568726|-0.2755173444747925|XArbitraryZVertical|0.1278003687910729|-0.7203428414053124|0.6643598483905763|-0.1529686484885209|0.05056887492537498|0.9962326288223267|0.07045348733663559|0|0|0|-1|-1|3
2021-04-08 19:23:18.249 +0100|17538.613498875|0.1020660400390625|1.23956298828125|0.0645599365234375|17538.593537875|0.004961528651669446|2.741676544766995|-1.423203893154643|-3.1278395652771|0.1949456483125687|0.4697480201721191|-0.2792860567569733|0.1158221364021301|-0.2066522985696793|XArbitraryZVertical|0.1315546323546425|-0.7419031535434735|0.6396604865267568|-0.1520118643772735|0.05725556239485741|0.9891279935836792|0.1354538202285767|0|0|0|-1|-1|3
2021-04-08 19:23:18.268 +0100|17538.633458875|0.2303924560546875|1.343765258789062|0.07403564453125|17538.613498875|0.06758572232217981|2.810090156464455|-1.363337713765986|-2.871773242950439|0.3224640786647797|0.6987472176551819|-0.04530860483646393|0.2314189672470093|-0.1601845026016235|XArbitraryZVertical|0.1297776279483867|-0.7619303020877348|0.6167704602821693|-0.149044667477961|0.06703728437423706|0.9785575270652771|0.1947600394487381|0|0|0|-1|-1|3
2021-04-08 19:23:18.288 +0100|17538.653419875|0.048736572265625|1.308929443359375|0.1182403564453125|17538.633458875|0.0786157093721264|2.818692674968175|-1.300501155821167|-3.07923436164856|-0.4885198473930359|1.004472732543945|0.1538574993610382|0.3880995512008667|-0.1673562824726105|XArbitraryZVertical|0.1281118779838115|-0.781150222142346|0.592023349559585|-0.1513278142932445|0.08472906798124313|0.9636921286582947|0.2532166540622711|0|0|0|-1|-1|3
2021-04-08 19:23:18.308 +0100|17538.673380875|0.085693359375|1.474380493164062|0.219879150390625|17538.653419875|0.078866535871761|2.808314720762192|-1.238592106770554|-2.787122011184692|-0.3444395959377289|1.065280556678772|-0.02540658414363861|0.3468652367591858|-0.2194081544876099|XArbitraryZVertical|0.1278627342834527|-0.7985878754611908|0.5666516253341134|-0.1575265411893138|0.1066903173923492|0.9453257918357849|0.308182954788208|0|0|0|-1|-1|3
2021-04-08 19:23:18.328 +0100|17538.693340875|0.2277984619140625|1.442153930664062|0.3596038818359375|17538.673380875|0.06478850502706907|2.796515797776364|-1.183179636325903|-2.117679119110107|0.2909446060657501|1.246264576911926|-0.08754609525203705|0.5066218376159668|-0.131382167339325|XArbitraryZVertical|0.1221796726200539|-0.8142005386892659|0.544497127137672|-0.1602264499333931|0.127859964966774|0.9258125424385071|0.3557007908821106|0|0|0|-1|-1|3
2021-04-08 19:23:18.348 +0100|17538.713301875|0.286834716796875|1.21527099609375|0.4715576171875|17538.693340875|0.02878079191048212|2.766589458554593|-1.138021477998402|-1.70462691783905|0.05757021531462669|1.678075075149536|0.05526478588581085|0.5922560095787048|-0.07004192471504211|XArbitraryZVertical|0.1123344288810139|-0.8261382356336933|0.5270408103041373|-0.1646350473385294|0.153612956404686|0.9078055024147034|0.3902468085289001|0|0|0|-1|-1|3
2021-04-08 19:23:18.368 +0100|17538.733262875|0.2451324462890625|1.176239013671875|0.4782257080078125|17538.713301875|-0.01451071126129072|2.727363786638289|-1.093163570228148|-1.780236482620239|-0.1508758813142776|1.802386999130249|0.08488427102565765|0.3613657355308533|0.03226083517074585|XArbitraryZVertical|0.1008153217720485|-0.8368019145094717|0.5099228113044741|-0.1719818479876417|0.1850134134292603|0.8880856037139893|0.4208023548126221|0|0|0|-1|-1|3
2021-04-08 19:23:18.388 +0100|17538.753222875|0.1870574951171875|1.163299560546875|0.51318359375|17538.733262875|-0.05280376791769787|2.687425092555221|-1.042022723115426|-2.093975782394409|-0.3812861442565918|2.014092206954956|0.05330733954906464|0.322014331817627|0.01898485422134399|XArbitraryZVertical|0.0897163674330249|-0.8477136603310425|0.4899643236562561|-0.1823942843276893|0.2213206142187119|0.8634263873100281|0.4533349573612213|0|0|0|-1|-1|3
2021-04-08 19:23:18.408 +0100|17538.773183875|0.2774658203125|1.0548095703125|0.45880126953125|17538.753222875|-0.08707989670372922|2.654148040911928|-0.9872460879796907|-1.937103271484375|0.01336866058409214|2.081181049346924|-0.08037832379341125|0.3223490715026855|0.02139049768447876|XArbitraryZVertical|0.0770348305076765|-0.8587634222466271|0.4686303490493313|-0.1922932902860578|0.2580671608448029|0.8345117568969727|0.4868179559707642|0|0|0|-1|-1|3
2021-04-08 19:23:18.428 +0100|17538.793144875|0.24468994140625|1.0198974609375|0.413360595703125|17538.773183875|-0.1234352512430027|2.625208917112845|-0.9364417404500877|-1.525223731994629|-0.02469627186655998|2.214619636535645|-0.02827468514442444|0.2882198691368103|-0.04515224695205688|XArbitraryZVertical|0.06179637915824083|-0.8682580283709335|0.4495629915102904|-0.2005054397829593|0.2926181852817535|0.8054543733596802|0.5153815746307373|0|0|0|-1|-1|3
2021-04-08 19:23:18.448 +0100|17538.813104875|0.29449462890625|1.112518310546875|0.3394317626953125|17538.793144875|-0.1619611366840366|2.595122567579948|-0.8889537068340153|-1.436383962631226|0.13429194688797|2.202690124511719|-0.07677918672561646|0.2433936595916748|-0.1121118068695068|XArbitraryZVertical|0.04532747641218342|-0.8758802367078118|0.4323851775466027|-0.2093378121680482|0.3275118470191956|0.7764127850532532|0.53844153881073|0|0|0|-1|-1|3
2021-04-08 19:23:18.468 +0100|17538.833065875|0.3510894775390625|1.158721923828125|0.3269805908203125|17538.813104875|-0.1982353097323853|2.572433152375182|-0.8417911000556649|-1.283058524131775|0.372326135635376|2.324687957763672|-0.08320510387420654|0.3260170817375183|-0.2073876857757568|XArbitraryZVertical|0.02746069732210315|-0.8830651530784873|0.4155775162785606|-0.2161884568695153|0.358992874622345|0.745837390422821|0.5611163377761841|0|0|0|-1|-1|3
2021-04-08 19:23:18.488 +0100|17538.853026875|0.3095855712890625|1.058303833007812|0.357147216796875|17538.833065875|-0.239756942653568|2.549582689589942|-0.79604262006255|-0.8693184852600098|0.3511516153812408|2.554141521453857|-0.04107528924942017|0.4590676426887512|-0.2538489699363708|XArbitraryZVertical|0.006802065855880934|-0.8889321447180986|0.4002356291766486|-0.2226320161603705|0.3903646469116211|0.7145933508872986|0.5804932713508606|0|0|0|-1|-1|3
2021-04-08 19:23:18.508 +0100|17538.872986875|0.24700927734375|0.7368927001953125|0.4643096923828125|17538.853026875|-0.2906857629039033|2.520933773653886|-0.7567817105199548|-0.3175832629203796|0.330126941204071|2.709633111953735|-0.1009618937969208|0.4140623807907104|-0.2433076500892639|XArbitraryZVertical|-0.01653464005584036|-0.8918813593760931|0.3891691668551229|-0.2298296721030049|0.4228311479091644|0.6865851283073425|0.5914515256881714|0|0|0|-1|-1|3
2021-04-08 19:23:18.528 +0100|17538.892947875|0.2046661376953125|0.5499267578125|0.61187744140625|17538.872986875|-0.3477971117144533|2.490039531667979|-0.7199093083545196|-0.209468275308609|0.4366357028484344|2.873995304107666|-0.1994015872478485|0.1785442233085632|-0.1656515598297119|XArbitraryZVertical|-0.04238776743387407|-0.8928178319664301|0.3804985665118602|-0.2372774611105583|0.4559480547904968|0.6593164801597595|0.5978407859802246|0|0|0|-1|-1|3
2021-04-08 19:23:18.548 +0100|17538.912908875|0.19677734375|0.6513214111328125|0.7020263671875|17538.892947875|-0.405586004667339|2.462981896779419|-0.6827392182487011|-0.06582102179527283|0.6052653789520264|2.881064653396606|-0.2746977806091309|-0.0866999626159668|-0.02978295087814331|XArbitraryZVertical|-0.06982224003311663|-0.8928059655329914|0.3723880319130641|-0.2436180007498214|0.4870091378688812|0.6309205889701843|0.6039552688598633|0|0|0|-1|-1|3
2021-04-08 19:23:18.568 +0100|17538.932868875|0.3276824951171875|0.67156982421875|0.7032012939453125|17538.912908875|-0.4630868089012642|2.442531148499708|-0.6455716087209395|0.1058570593595505|0.9417718052864075|2.997809648513794|-0.3200443983078003|0.0130763053894043|0.07707071304321289|XArbitraryZVertical|-0.0987376407463823|-0.8921622592559594|0.3646041734048488|-0.2477122864196349|0.5139994025230408|0.601655125617981|0.6114052534103394|0|0|0|-1|-1|3
2021-04-08 19:23:18.588 +0100|17538.952829875|0.4382171630859375|0.6911163330078125|0.6768035888671875|17538.932868875|-0.523742788146944|2.430437454786774|-0.6086319681970659|0.2261509746313095|1.335260391235352|3.172173976898193|-0.2610732913017273|0.1055620908737183|0.08903557062149048|XArbitraryZVertical|-0.130784557173648|-0.8908862088693342|0.3573064314888931|-0.2480916932362446|0.5355032682418823|0.5717456340789795|0.6215656995773315|0|0|0|-1|-1|3
2021-04-08 19:23:18.608 +0100|17538.972790875|0.4615631103515625|0.7301025390625|0.794403076171875|17538.952829875|-0.5884216530841605|2.4215257201333|-0.572033981655567|0.5093266367912292|1.403362631797791|3.287864685058594|-0.1271922588348389|0.1415185928344727|0.0299803614616394|XArbitraryZVertical|-0.1652408500895321|-0.888108585140962|0.3507114870718099|-0.2469014855157975|0.5544543862342834|0.5413433313369751|0.6320828199386597|0|0|0|-1|-1|3
2021-04-08 19:23:18.628 +0100|17538.992750875|0.4949188232421875|0.9352569580078125|1.018020629882812|17538.972790875|-0.6585740058996972|2.414574861549319|-0.5382090672816934|0.949143648147583|1.630620121955872|3.418978214263916|-0.1169312000274658|0.1914265155792236|0.1026226878166199|XArbitraryZVertical|-0.201907937261955|-0.8831757591449423|0.3459818123208493|-0.2439885014567372|0.5706824064254761|0.5125990509986877|0.6415324807167053|0|0|0|-1|-1|3
2021-04-08 19:23:18.648 +0100|17539.012711875|0.472137451171875|1.001815795898438|1.206222534179688|17538.992750875|-0.7386529576174915|2.408165202193984|-0.5103655003841091|1.68673837184906|1.727492570877075|3.635825634002686|-0.08606547117233276|0.4010152816772461|0.3109815120697021|XArbitraryZVertical|-0.2416698810025588|-0.8750449043426348|0.3449904099682216|-0.238482340829362|0.5841131210327148|0.4884962141513824|0.6482158303260803|0|0|0|-1|-1|3
2021-04-08 19:23:18.668 +0100|17539.032672875|0.580078125|1.037445068359375|1.2532958984375|17539.012711875|-0.8319305130567189|2.400345421416268|-0.4907154088105639|2.312902450561523|2.068240642547607|3.77948260307312|-0.1246747970581055|0.5493885278701782|0.5058330893516541|XArbitraryZVertical|-0.2848804564047558|-0.8626327721612557|0.3490745487740622|-0.2299022134936381|0.5955314040184021|0.4712570011615753|0.65058434009552|0|0|0|-1|-1|3
2021-04-08 19:23:18.688 +0100|17539.052632875|0.7208709716796875|1.240142822265625|1.414474487304688|17539.032672875|-0.9345625564597703|2.398866673390621|-0.4738460329485544|2.681370973587036|2.569803237915039|4.043723106384277|-0.05278724431991577|0.559328556060791|0.5839893221855164|XArbitraryZVertical|-0.331985454470038|-0.8470648286467269|0.3541656810494825|-0.2164110709142556|0.6017841100692749|0.4563119411468506|0.6554663181304932|0|0|0|-1|-1|3
2021-04-08 19:23:18.708 +0100|17539.072593875|0.8219451904296875|1.571182250976562|1.498275756835938|17539.052632875|-1.049449087982246|2.402791982499761|-0.4633786150861599|3.445082664489746|2.920377016067505|4.257612705230713|0.08700293302536011|0.7214536070823669|0.7070740461349487|XArbitraryZVertical|-0.3829453234750511|-0.8270502149448992|0.3613705675494012|-0.1968560758401593|0.6023900508880615|0.4469729959964752|0.6613183617591858|0|0|0|-1|-1|3
2021-04-08 19:23:18.728 +0100|17539.092554875|0.9945831298828125|1.933197021484375|1.470840454101562|17539.072593875|-1.186401963475317|2.402744806681881|-0.4678293111589353|5.266231536865234|3.313108205795288|4.557704448699951|0.1871639490127563|1.013252854347229|0.8429944515228271|XArbitraryZVertical|-0.4377123623416805|-0.798945653461709|0.375574091807232|-0.1704049127336361|0.6010753512382507|0.4509499073028564|0.6598125100135803|0|0|0|-1|-1|3
2021-04-08 19:23:18.747 +0100|17539.112514875|1.37945556640625|1.780715942382812|1.46728515625|17539.092554875|-1.356932334274489|2.395577031202281|-0.4916369478310694|6.786136150360107|3.965266942977905|4.961944580078125|0.3348051905632019|1.418036460876465|0.7988554835319519|XArbitraryZVertical|-0.4978321672123069|-0.7588623883320731|0.3982624234911657|-0.1329596263805639|0.5983318090438843|0.4720695912837982|0.6474179625511169|0|0|0|-1|-1|3
2021-04-08 19:23:18.768 +0100|17539.132475875|1.712722778320312|1.062423706054688|1.452911376953125|17539.112514875|-1.557364821054159|2.379761188566263|-0.5279268472678584|7.489683628082275|4.121449947357178|5.251720428466797|0.6834978461265564|1.406793832778931|0.8469998240470886|XArbitraryZVertical|-0.5603711886492224|-0.7060557242236825|0.4244795394688394|-0.08536207248344511|0.5962729454040527|0.5037435293197632|0.6250610947608948|0|0|0|-1|-1|3
2021-04-08 19:23:18.787 +0100|17539.152436875|2.177642822265625|1.113082885742188|1.19586181640625|17539.132475875|-1.776360001405504|2.34713620540913|-0.5683468576229835|8.18167781829834|4.131146430969238|5.237768173217773|1.036622524261475|0.6139816641807556|0.8445218205451965|XArbitraryZVertical|-0.618391492395213|-0.6425361706688959|0.451228225551689|-0.0336529391050977|0.6013178825378418|0.5382395386695862|0.590521514415741|0|0|0|-1|-1|3
2021-04-08 19:23:18.807 +0100|17539.172396875|3.6431884765625|0.775177001953125|0.48406982421875|17539.152436875|-1.999579653577335|2.314845194744886|-0.6058624716972615|7.628724098205566|5.232133865356445|4.862587451934814|1.392153263092041|0.5505232214927673|0.7140722274780273|XArbitraryZVertical|-0.6706387204592834|-0.5732421315457581|0.4702396595611277|0.02262684730090997|0.6047804951667786|0.5694712400436401|0.5567256808280945|0|0|0|-1|-1|3
2021-04-08 19:23:18.827 +0100|17539.192357875|5.188674926757812|0.5223236083984375|-0.7572784423828125|17539.172396875|-2.205458780916839|2.304064485667796|-0.6345932260864228|6.95585298538208|5.189556121826172|4.178998947143555|2.602878093719482|0.2811269760131836|0.1319318413734436|XArbitraryZVertical|-0.7173904982675651|-0.5048262688470042|0.4733796816783274|0.08008259553427799|0.5983405709266663|0.5928499698638916|0.5389973521232605|0|0|0|-1|-1|3
2021-04-08 19:23:18.847 +0100|17539.212318875|5.628707885742188|-0.4943084716796875|-2.241912841796875|17539.192357875|-2.385545863747393|2.271384379145094|-0.6663997281145267|6.078691482543945|2.27837347984314|2.587482452392578|4.298644065856934|-0.002224445343017578|-0.8809027671813965|XArbitraryZVertical|-0.7455647796973974|-0.4444146501192077|0.4796675308979303|0.1286390175754483|0.6009082794189453|0.6181600093841553|0.5067424178123474|0|0|0|-1|-1|3
2021-04-08 19:23:18.867 +0100|17539.232278875|6.83575439453125|-1.949859619140625|-1.916580200195312|17539.212318875|-2.513822581001572|2.205836634071519|-0.7055023490707898|3.945326328277588|-0.2976961731910706|0.3785881996154785|4.979642868041992|-0.7370859384536743|-2.390856742858887|XArbitraryZVertical|-0.7485408118671443|-0.4068021184861351|0.4977510556395029|0.1626123592210899|0.6128718256950378|0.6484163403511047|0.4516026079654694|0|0|0|-1|-1|3
2021-04-08 19:23:18.887 +0100|17539.252239875|8.578781127929688|-0.8257293701171875|1.611190795898438|17539.232278875|-2.555661887595931|2.153741072729072|-0.7490643832527765|0.8398507237434387|-2.641082286834717|-2.315438747406006|5.721461296081543|-2.432816028594971|-2.753857374191284|XArbitraryZVertical|-0.7344399945562896|-0.4026974372065756|0.5154458265902681|0.1809653999064103|0.6113794445991516|0.6809538602828979|0.403134673833847|0|0|0|-1|-1|3
2021-04-08 19:23:18.907 +0100|17539.272200875|5.454193115234375|0.0567779541015625|6.031768798828125|17539.252239875|-2.495599940705319|2.050480914851436|-0.8053156781368772|-1.133737444877625|-13.1959981918335|-4.13137149810791|7.892242908477783|-2.220348119735718|0.2561626732349396|XArbitraryZVertical|-0.6812609781339571|-0.4424548329944534|0.5590334409015376|0.1661296617176221|0.614685595035553|0.721049427986145|0.3197655975818634|0|0|0|-1|-1|3
2021-04-08 19:23:18.927 +0100|17539.292160875|1.682403564453125|0.3558502197265625|7.885147094726562|17539.272200875|-2.43588553339271|1.729240542873358|-0.8714273073463369|-0.1010477468371391|-22.03003311157227|-3.262295246124268|5.897242546081543|-0.7562159299850464|4.840950489044189|XArbitraryZVertical|-0.5526176239327261|-0.4953773365482656|0.663026625251473|0.09803505334020368|0.6356717348098755|0.7652485370635986|0.1015698909759521|0|0|0|-1|-1|3
2021-04-08 19:23:18.947 +0100|17539.312121875|1.022064208984375|-1.173431396484375|7.685470581054688|17539.292160875|-2.494448876788575|1.176015162347201|-0.9343602025373897|2.61572527885437|-28.07324409484863|-4.246902465820312|1.671140193939209|-0.4887593388557434|8.007926940917969|XArbitraryZVertical|-0.3504146731399859|-0.5127547221409828|0.7837677969696094|0.0006531005356175519|0.5486177206039429|0.8042190074920654|-0.2285843044519424|0|0|0|-1|-1|3
2021-04-08 19:23:18.967 +0100|17539.332082875|5.337310791015625|-5.290542602539062|3.410552978515625|17539.312121875|-2.575323115425614|0.5924716727746344|-0.9888010151838176|-5.207419395446777|-22.32803726196289|-2.79512619972229|0.960058867931366|-1.560130000114441|8.899866104125977|XArbitraryZVertical|-0.1199474507070844|-0.5075535262301227|0.8470875891320073|-0.1021992489586392|0.3069551587104797|0.8353675007820129|-0.4560040533542633|0|0|0|-1|-1|3
2021-04-08 19:23:18.987 +0100|17539.352043875|4.25543212890625|3.454788208007812|10.30047607421875|17539.332082875|-2.721228008659395|0.04570001163855627|-1.324960062089302|-26.3408088684082|2.078650712966919|-21.27580833435059|4.823446273803711|-5.734933853149414|-1.508489370346069|XArbitraryZVertical|0.1106760012665529|-0.6051396119119835|0.7738482076872824|-0.150718023493684|0.01111804228276014|0.9699341654777527|-0.2431137412786484|0|0|0|-1|-1|3
2021-04-08 19:23:19.007 +0100|17539.372003875|2.191055297851562|-0.686859130859375|1.3150634765625|17539.352043875|1.859796007796054|-1.668418298207955|-1.072300509288181|-11.2927885055542|-15.8118371963501|-16.71386909484863|4.718214988708496|-0.3118047118186951|9.396865844726562|XArbitraryZVertical|0.3052715683980304|-0.6558269648037579|0.68915725460769|0.04198410767726986|-0.4758288562297821|0.8783026933670044|0.04659947752952576|0|0|0|-1|-1|3
2021-04-08 19:23:19.027 +0100|17539.391964875|2.832473754882812|-7.1763916015625|0.659393310546875|17539.372003875|1.665921851460168|-1.993979340913345|-0.8219798072541146|-6.93372106552124|-2.438019752502441|-4.156067848205566|2.849020957946777|1.328922033309937|1.023545622825623|XArbitraryZVertical|0.423785452296646|-0.6783734734431232|0.5939162459240926|0.08648124957964894|-0.620719313621521|0.7324950695037842|0.2795693576335907|0|0|0|-1|-1|3
2021-04-08 19:23:19.047 +0100|17539.411925875|0.26324462890625|-1.421340942382812|1.519638061523438|17539.391964875|1.682845364975647|-2.057981424058664|-0.7932312196345379|4.850317478179932|1.991901874542236|-2.993963241577148|3.694738149642944|-8.862785339355469|-0.3877494037151337|XArbitraryZVertical|0.4564663047076679|-0.6751664153192434|0.5752044309347616|0.0702062647486225|-0.6199247241020203|0.7126238346099854|0.328422337770462|0|0|0|-1|-1|3
2021-04-08 19:23:19.067 +0100|17539.431885875|-0.589996337890625|-0.599761962890625|2.725814819335938|17539.411925875|1.862554742623312|-1.909647562773544|-0.8345419506806392|8.462018966674805|-2.539258241653442|3.119554281234741|1.360108971595764|-2.702017784118652|1.026997685432434|XArbitraryZVertical|0.4589822685418082|-0.6332004341822906|0.621218032241479|0.04980808313953912|-0.633333146572113|0.7409890294075012|0.2232150286436081|0|0|0|-1|-1|3
2021-04-08 19:23:19.087 +0100|17539.451846875|-0.7310791015625|-1.226394653320312|1.894668579101562|17539.431885875|2.013717121478905|-1.838599476477537|-0.9702658797256842|4.589282512664795|-1.146881341934204|5.48426342010498|0.113190233707428|-1.392693281173706|2.432715892791748|XArbitraryZVertical|0.443358165924112|-0.6149776510621507|0.6515556081491524|-0.02667336795676182|-0.5449379682540894|0.8250359892845154|0.1495279520750046|0|0|0|-1|-1|3
2021-04-08 19:23:19.107 +0100|17539.471807875|-0.5851898193359375|-0.3792266845703125|0.805328369140625|17539.451846875|2.148975982391883|-1.732096991983745|-1.08850909678781|5.035963535308838|0.02696500346064568|4.500965118408203|-0.2821886241436005|-2.068507671356201|2.17667031288147|XArbitraryZVertical|0.4133470885755654|-0.605300255653316|0.6751885878081411|-0.08292396469946266|-0.4577866792678833|0.8859363794326782|0.07448843121528625|0|0|0|-1|-1|3
2021-04-08 19:23:19.127 +0100|17539.491767875|-0.4371795654296875|0.4795989990234375|0.4268951416015625|17539.471807875|2.371262869095209|-1.525813025716238|-1.174391848339565|4.422999858856201|0.2687013447284698|3.663301229476929|-0.2505169212818146|-1.618256092071533|0.9576690196990967|XArbitraryZVertical|0.3826689874728719|-0.5872676142639517|0.701508623465263|-0.1287125573878894|-0.3857137560844421|0.9224551916122437|-0.01736238971352577|0|0|0|-1|-1|3
2021-04-08 19:23:19.147 +0100|17539.511728875|-0.470794677734375|1.194854736328125|0.6535186767578125|17539.491767875|2.609852954952918|-1.310552224575728|-1.236717740830512|3.085377216339111|-0.9074658155441284|3.748631477355957|-0.1460330188274384|-0.6288254857063293|0.4999154806137085|XArbitraryZVertical|0.3583263272443706|-0.5739471411425741|0.7161806692058719|-0.1710914557852628|-0.3168578743934631|0.9447128176689148|-0.0843738466501236|0|0|0|-1|-1|3
2021-04-08 19:23:19.167 +0100|17539.531689875|-0.4623260498046875|1.727752685546875|0.3189544677734375|17539.511728875|2.83646188694809|-1.104752372438557|-1.28525814941598|1.734039187431335|-0.01386061683297157|3.091795444488525|-0.1990340352058411|0.04068809747695923|0.7770074605941772|XArbitraryZVertical|0.3376311680351337|-0.5680838012034819|0.7213438120044092|-0.2072420217111693|-0.2516346275806427|0.9595102071762085|-0.1265719830989838|0|0|0|-1|-1|3
2021-04-08 19:23:19.187 +0100|17539.55164925|-0.570098876953125|1.26116943359375|-0.1008453369140625|17539.531689875|3.043390360377181|-0.8962242600585637|-1.319597712338471|0.8849632143974304|0.8787569999694824|2.930234909057617|-0.2742455005645752|0.6781132221221924|0.6000224351882935|XArbitraryZVertical|0.3148021601108263|-0.5685746607714014|0.7242815125788027|-0.2303017125528267|-0.1941233277320862|0.9686151742935181|-0.155244916677475|0|0|0|-1|-1|3
2021-04-08 19:23:19.207 +0100|17539.57161025|-0.63262939453125|1.094329833984375|-0.1078338623046875|17539.55164925|-3.061307467140792|-0.705055979334322|-1.352861437272902|0.7758670449256897|0.7554303407669067|2.351390600204468|-0.4133128523826599|0.4774808883666992|0.1578574627637863|XArbitraryZVertical|0.292607898674962|-0.5762366670923413|0.7225925606039627|-0.2453409142752736|-0.140123724937439|0.9763460159301758|-0.1646638363599777|0|0|0|-1|-1|3
2021-04-08 19:23:19.227 +0100|17539.59157125|-0.5446624755859375|1.101760864257812|-0.1628875732421875|17539.57161025|-2.85586405288154|-0.4936803598320761|-1.360069203897925|0.6288765668869019|0.4450814127922058|1.56706428527832|-0.5242167711257935|0.1235154867172241|0.03038609027862549|XArbitraryZVertical|0.2748690001428227|-0.5764973575657861|0.7244259017446965|-0.259432391311556|-0.09912027418613434|0.9778791069984436|-0.1841956526041031|0|0|0|-1|-1|3
2021-04-08 19:23:19.247 +0100|17539.61153125|-0.330322265625|1.141525268554688|-0.2833251953125|17539.59157125|-2.73975713031994|-0.3547122620581336|-1.364710251764749|-0.2255462110042572|1.963696599006653|0.8738811016082764|-0.4996825754642487|0.08639192581176758|0.1109740138053894|XArbitraryZVertical|0.2580477598242754|-0.5809175441047023|0.7263451294450562|-0.2614749697424983|-0.07107267528772354|0.9788393378257751|-0.1918923258781433|0|0|0|-1|-1|3
2021-04-08 19:23:19.268 +0100|17539.63149225|-0.1525115966796875|1.141006469726562|-0.036041259765625|17539.61153125|-2.688816165911147|-0.264894451456969|-1.375706177865686|-0.2256336957216263|2.086619138717651|0.5190584063529968|-0.3464948236942291|0.1634398102760315|-0.1217758506536484|XArbitraryZVertical|0.2406844181579845|-0.5903594359338626|0.7274831932921029|-0.2536040001368943|-0.05075271055102348|0.9810302257537842|-0.1870934963226318|0|0|0|-1|-1|3
2021-04-08 19:23:19.287 +0100|17539.65145325|-0.0963134765625|0.913299560546875|-0.069488525390625|17539.63149225|-2.636382774724369|-0.1701718465937174|-1.378863446402509|-0.01129793841391802|1.827698707580566|0.5075501799583435|-0.1401041448116302|0.1701264977455139|0.1168186664581299|XArbitraryZVertical|0.2218959691546346|-0.5972949194108745|0.7309073562198704|-0.2444903772839555|-0.03230507299304008|0.9816373586654663|-0.1880019158124924|0|0|0|-1|-1|3
2021-04-08 19:23:19.307 +0100|17539.67141325|-0.2563934326171875|0.75848388671875|-0.2021026611328125|17539.65145325|-2.567291523787106|-0.07848465003365446|-1.389103064653556|-1.005378484725952|0.5498300790786743|0.9458439350128174|-0.066567063331604|-0.01262235641479492|0.1503386944532394|XArbitraryZVertical|0.2100428051184578|-0.6048239321409|0.7292023035157555|-0.2415248867792985|-0.01416733115911484|0.9835391640663147|-0.1801400631666183|0|0|0|-1|-1|3
2021-04-08 19:23:19.327 +0100|17539.69137425|-0.3253936767578125|0.8857574462890625|-0.1109771728515625|17539.67141325|-2.453938629640524|0.03503632348561048|-1.420560686707426|-2.023040533065796|-0.002152561210095882|0.9223302006721497|-0.2261750400066376|-0.2069060206413269|-0.06094634532928467|XArbitraryZVertical|0.2072624527585462|-0.6182654944534399|0.7175450670670275|-0.2447841472351689|0.005242882296442986|0.9887358546257019|-0.149580106139183|0|0|0|-1|-1|3
2021-04-08 19:23:19.346 +0100|17539.71133525|-0.20416259765625|1.05438232421875|0.10650634765625|17539.69137425|-2.295632118961918|0.1990873924725741|-1.466934533224021|-2.763827562332153|0.8145074248313904|0.624370813369751|-0.3520631790161133|-0.1464512944221497|-0.06444795429706573|XArbitraryZVertical|0.2061169771525799|-0.6377310919496969|0.7013456445118499|-0.2427538107043976|0.02050481736660004|0.9946112036705017|-0.1016296893358231|0|0|0|-1|-1|3
2021-04-08 19:23:19.366 +0100|17539.73129525|-0.03582763671875|1.033493041992188|0.1144561767578125|17539.71133525|-1.907100860475299|0.6089541531990582|-1.515820870162404|-2.506275653839111|1.068220138549805|0.3009970188140869|-0.2732537984848022|0.0239412784576416|0.1166359782218933|XArbitraryZVertical|0.2020090376998929|-0.6607993137644156|0.6842947410927717|-0.2329753177381231|0.03143241629004478|0.9984892010688782|-0.04507322981953621|0|0|0|-1|-1|3
2021-04-08 19:23:19.386 +0100|17539.75125625|-0.1268310546875|0.7687530517578125|0.10595703125|17539.73129525|-0.9783056586241706|1.546163052375399|-1.534014578628071|-2.061408281326294|-0.1390929520130157|0.3699600696563721|-0.1055841147899628|0.06935632228851318|0.1177109479904175|XArbitraryZVertical|0.2022224576066735|-0.6772393532238563|0.6699530879728557|-0.2271914723779482|0.0367668904364109|0.9993236064910889|-0.0009058721479959786|0|0|0|-1|-1|3
2021-04-08 19:23:19.406 +0100|17539.77121725|-0.2281341552734375|0.7155303955078125|0.0791168212890625|17539.75125625|-0.1228488246395804|2.389048341297025|-1.503878704934221|-3.043663263320923|-0.643567681312561|0.4192865192890167|-0.1385863423347473|-0.1296128630638123|0.0290827751159668|XArbitraryZVertical|0.2088226642160864|-0.6933969225899876|0.6505458509505203|-0.228875705563637|0.04570598527789116|0.9977618455886841|0.0488123930990696|0|0|0|-1|-1|3
2021-04-08 19:23:19.426 +0100|17539.79117825|-0.2362060546875|1.227020263671875|0.0692901611328125|17539.77121725|0.2144315066303918|2.71826957945273|-1.445037096581532|-3.711606502532959|-0.0932048112154007|0.2146700173616409|-0.2673002183437347|-0.340933620929718|-0.01232326030731201|XArbitraryZVertical|0.2166079322839902|-0.7143248117741201|0.6259414199821551|-0.2258729617954433|0.05152556672692299|0.9921027421951294|0.1143578663468361|0|0|0|-1|-1|3
2021-04-08 19:23:19.446 +0100|17539.81113825|-0.0614776611328125|1.511917114257812|-0.0923919677734375|17539.79117825|0.3551735100553851|2.863444452619398|-1.369974697882023|-3.93358039855957|0.754499077796936|0.191823810338974|-0.3059307038784027|0.1057906150817871|-0.1103425323963165|XArbitraryZVertical|0.2218097295297346|-0.7393947410120336|0.5977357435263035|-0.2163513842055721|0.05477094277739525|0.9799030423164368|0.19180828332901|0|0|0|-1|-1|3
2021-04-08 19:23:19.466 +0100|17539.83109925|0.0673065185546875|1.35040283203125|-0.1121368408203125|17539.81113825|0.4123646155931732|2.938714897358797|-1.29920737135087|-3.072025775909424|1.053502678871155|0.273441344499588|-0.1702630817890167|0.5374327898025513|-0.30544114112854|XArbitraryZVertical|0.2221438353463676|-0.7629107516326437|0.5725068714582001|-0.2021270591271156|0.05405206978321075|0.9633458852767944|0.2627613842487335|0|0|0|-1|-1|3
2021-04-08 19:23:19.486 +0100|17539.85106025|-0.0458831787109375|1.112899780273438|-0.05364990234375|17539.83109925|0.4126253659097889|2.952610580479357|-1.249057083162973|-1.920896172523499|0.2871831059455872|0.6903879642486572|0.002393662929534912|0.467024028301239|-0.4569356441497803|XArbitraryZVertical|0.2194408713106418|-0.7791915862948661|0.5540820430139217|-0.1941633347327128|0.05940438061952591|0.9486868977546692|0.3105876445770264|0|0|0|-1|-1|3
2021-04-08 19:23:19.506 +0100|17539.87102025|-0.1865234375|1.01678466796875|0.0983734130859375|17539.85106025|0.3833976547037539|2.924901593803916|-1.213493899371606|-1.49547803401947|-0.1711782813072205|0.9525160193443298|-0.08070427179336548|0.2043616771697998|-0.4072294235229492|XArbitraryZVertical|0.2161295838634575|-0.7899828997346554|0.5395458241412232|-0.1952063936086674|0.0751957967877388|0.9368436932563782|0.3415699601173401|0|0|0|-1|-1|3
2021-04-08 19:23:19.526 +0100|17539.89098125|-0.1460113525390625|0.876129150390625|0.27447509765625|17539.87102025|0.3466993037263416|2.891335545394893|-1.178184966768674|-1.553729176521301|0.3851420879364014|1.164227485656738|-0.2569842636585236|0.1151041388511658|-0.3157230615615845|XArbitraryZVertical|0.2105904658672795|-0.80062089305113|0.5251027464797389|-0.197294399308778|0.09475277364253998|0.9239131212234497|0.3706843256950378|0|0|0|-1|-1|3
2021-04-08 19:23:19.546 +0100|17539.91094225|0.007354736328125|0.7239990234375|0.3894500732421875|17539.89098125|0.3083297655915296|2.871339997708182|-1.139518149141851|-1.736945271492004|1.056954503059387|1.326130390167236|-0.2850967347621918|0.02668803930282593|-0.1631908416748047|XArbitraryZVertical|0.1999269793539247|-0.813301339934781|0.5107541231423677|-0.1941662580090332|0.1116042956709862|0.9084321856498718|0.4028597474098206|0|0|0|-1|-1|3
2021-04-08 19:23:19.566 +0100|17539.93090225|0.15130615234375|0.8502044677734375|0.3763885498046875|17539.91094225|0.2684663518832751|2.857266397231705|-1.101556055462151|-1.440193176269531|1.041405558586121|1.398021340370178|-0.1665834188461304|-0.1622211337089539|-0.05551394820213318|XArbitraryZVertical|0.1863725325656429|-0.8260096185240883|0.4972526101873848|-0.1889796282839092|0.1268495321273804|0.8919121026992798|0.4340532124042511|0|0|0|-1|-1|3
2021-04-08 19:23:19.586 +0100|17539.95086325|0.1784210205078125|0.977874755859375|0.405364990234375|17539.93090225|0.2254223521376204|2.837233159285289|-1.066126333322328|-1.28728973865509|0.6896148324012756|1.555553793907166|-0.01854397356510162|-0.06353533267974854|-0.05727481842041016|XArbitraryZVertical|0.1722949230450147|-0.8372350617401195|0.4844291715156883|-0.1862269375152307|0.1449020653963089|0.8753340840339661|0.4612961709499359|0|0|0|-1|-1|3
2021-04-08 19:23:19.606 +0100|17539.97082425|0.133819580078125|1.01416015625|0.3774261474609375|17539.95086325|0.1770394505874878|2.804046714964056|-1.031464295807362|-1.147479057312012|0.2592586874961853|1.848086476325989|0.01522466540336609|0.1129724383354187|-0.08477330207824707|XArbitraryZVertical|0.1583280609792208|-0.8468907534915588|0.4713430462769723|-0.1885319042730406|0.1700781881809235|0.8580518960952759|0.4845834374427795|0|0|0|-1|-1|3
