loggingTime(txt)|accelerometerTimestamp_sinceReboot(s)|accelerometerAccelerationX(G)|accelerometerAccelerationY(G)|accelerometerAccelerationZ(G)|motionTimestamp_sinceReboot(s)|motionYaw(rad)|motionRoll(rad)|motionPitch(rad)|motionRotationRateX(rad/s)|motionRotationRateY(rad/s)|motionRotationRateZ(rad/s)|motionUserAccelerationX(G)|motionUserAccelerationY(G)|motionUserAccelerationZ(G)|motionAttitudeReferenceFrame(txt)|motionQuaternionX(R)|motionQuaternionY(R)|motionQuaternionZ(R)|motionQuaternionW(R)|motionGravityX(G)|motionGravityY(G)|motionGravityZ(G)|motionMagneticFieldX(µT)|motionMagneticFieldY(µT)|motionMagneticFieldZ(µT)|motionHeading(°)|motionMagneticFieldCalibrationAccuracy(Z)|label
2021-04-22 22:25:18.341 +0100|141938.8485571667|-0.042449951171875|-0.360626220703125|-0.941375732421875|141938.8485571667|0.02800302403139233|0.01671920441282067|0.1171663476339596|-0.05800502002239227|-0.3815293908119202|-0.01312055438756943|0.04098233580589294|-0.272489607334137|0.1292049288749695|XArbitraryZVertical|0.05842504371173321|0.009164074446704813|0.01446594540027057|0.9981449262468662|0.01660380139946938|-0.1168984547257423|-0.993005096912384|0|0|0|-1|-1|3
2021-04-22 22:25:18.352 +0100|141938.8685161667|-0.0383453369140625|-0.021728515625|-0.9574737548828125||||||||||||||||||||||||3
2021-04-22 22:25:18.353 +0100|141938.8884761667|0.053955078125|-0.1254119873046875|-0.973052978515625|141938.8685161667|0.02837234358764203|0.01441997967323366|0.1129290796076744|-0.1766137778759003|-0.07292808592319489|0.02571081928908825|-0.1186219826340675|0.05037326365709305|0.0595058798789978|XArbitraryZVertical|0.05632527255572833|0.007998253632310716|0.01456956589104987|0.9982742650040465|0.0143276322633028|-0.1126892045140266|-0.9935269951820374|0|0|0|-1|-1|3
2021-04-22 22:25:18.363 +0100|141938.9084361667|-0.038665771484375|-0.1096649169921875|-0.9750823974609375|141938.8884761667|0.02871482711879414|0.01000484099185289|0.1117493692536793|-0.02712353691458702|-0.3057313859462738|0.0294121690094471|0.06423017382621765|0.01657770574092865|0.01637202501296997|XArbitraryZVertical|0.0557674527451564|0.005795838991003919|0.01461366859363709|0.9983200396394835|0.009942269884049892|-0.1115169301629066|-0.9937127828598022|0|0|0|-1|-1|3
2021-04-22 22:25:18.383 +0100|141938.9283961667|0.0118408203125|-0.0779876708984375|-1.018035888671875|141938.9084361667|0.02942203491536935|0.005069550597323646|0.1095268003227524|-0.1771814078092575|-0.169259786605835|0.04087867215275764|-0.04118775576353073|-0.01418047398328781|0.030051589012146|XArbitraryZVertical|0.05469269789948237|0.003335889539794095|0.01482711409132885|0.9983876259900113|0.005039151757955551|-0.1093079522252083|-0.993995189666748|0|0|0|-1|-1|3
2021-04-22 22:25:18.403 +0100|141938.9483551667|-0.0098419189453125|-0.0976409912109375|-1.022933959960938|141938.9283961667|0.03038762028759606|0.00163236615794848|0.1062178417157349|-0.1560693234205246|-0.1854295432567596|0.04884853959083557|0.002252036239951849|0.02809254080057144|-0.01463991403579712|XArbitraryZVertical|0.05306542704567992|0.001621454214189903|0.01521511910224825|0.9984738651725991|0.001623165677301586|-0.1060182228684425|-0.9943628907203674|0|0|0|-1|-1|3
2021-04-22 22:25:18.423 +0100|141938.9683151667|-0.0059967041015625|-0.088623046875|-1.0283203125|141938.9483551667|0.03129372167656629|-0.002197181641451616|0.1029632033205529|-0.1996724605560303|-0.169620007276535|0.04028159752488136|0.0003234408795833588|0.006560415029525757|-0.03073489665985107|XArbitraryZVertical|0.05146969462593059|-0.0002918645838959245|0.01556895665130766|0.998553250439037|-0.002185543533414602|-0.1027813702821732|-0.9947015643119812|0|0|0|-1|-1|3
2021-04-22 22:25:18.443 +0100|141938.988276625|-0.000335693359375|-0.0663909912109375|-1.02484130859375|141938.9683151667|0.03213094121471976|-0.005043513174205643|0.09859582261359752|-0.2103521227836609|-0.1162361949682236|0.04748100787401199|-0.003038173075765371|0.002703472971916199|-0.03700435161590576|XArbitraryZVertical|0.04931188857648142|-0.00172672838912376|0.01592095954159819|0.9986551065584062|-0.005018997471779585|-0.0984361544251442|-0.995130717754364|0|0|0|-1|-1|3
2021-04-22 22:25:18.463 +0100|141939.008236625|-0.00299072265625|-0.0650787353515625|-1.018218994140625|141938.988276625|0.03312684238585947|-0.007435329401768767|0.09512833942830165|-0.1520986109972|-0.1165677085518837|0.05321425944566727|0.005356436595320702|0.02703850716352463|-0.02931386232376099|XArbitraryZVertical|0.04760088558426474|-0.002925455164796784|0.01636707949206328|0.9987281720968816|-0.00740164378657937|-0.09498492628335953|-0.9954512119293213|0|0|0|-1|-1|3
2021-04-22 22:25:18.483 +0100|141939.028196625|-0.0099029541015625|-0.0684814453125|-1.024658203125|141939.008236625|0.03418216772557242|-0.009638294227616608|0.09222800651138466|-0.1149989143013954|-0.09774938225746155|0.05400566011667252|0.007689304649829865|0.02471545338630676|-0.02417850494384766|XArbitraryZVertical|0.04617266376805449|-0.00402549072190643|0.01684976658057228|0.9987832960936877|-0.009597183205187321|-0.09209731221199036|-0.9957037568092346|0|0|0|-1|-1|3
2021-04-22 22:25:18.503 +0100|141939.048155625|-0.0121002197265625|-0.0672149658203125|-1.031219482421875|141939.028196625|0.03516722735923684|-0.0108578224460232|0.09018119589346486|-0.07538969814777374|-0.06890543550252914|0.05919865146279335|0.001611910760402679|0.02221940457820892|-0.02902466058731079|XArbitraryZVertical|0.04516303958107815|-0.0046299933250273|0.01731990453064186|0.9988188703470184|-0.01081348862498999|-0.09005901217460632|-0.995877742767334|0|0|0|-1|-1|3
2021-04-22 22:25:18.523 +0100|141939.068115625|-0.015655517578125|-0.065948486328125|-1.029037475585938|141939.048155625|0.03644097934106217|-0.01212711928999976|0.08937682162375554|-0.02786234766244888|-0.05751365423202515|0.07191124558448792|-5.284696817398071e-05|0.0204264372587204|-0.03560465574264526|XArbitraryZVertical|0.04477565825905746|-0.005242549102798826|0.01793012041952971|0.9988225537067034|-0.01207841839641333|-0.08925787359476089|-0.995935320854187|0|0|0|-1|-1|3
2021-04-22 22:25:18.543 +0100|141939.088075625|-0.020965576171875|-0.075103759765625|-1.022430419921875|141939.068115625|0.03787343756629749|-0.01315430117089351|0.08876371006830641|0.002296353923156857|-0.05206967890262604|0.06783812493085861|-0.0004481952637434006|0.02393563836812973|-0.03652441501617432|XArbitraryZVertical|0.04448278511192166|-0.005729345587773381|0.01862477359444178|0.9988202154484963|-0.01310213562101126|-0.08864719420671463|-0.9959769248962402|0|0|0|-1|-1|3
2021-04-22 22:25:18.563 +0100|141939.108035625|-0.0201568603515625|-0.0805511474609375|-1.021286010742188|141939.088075625|0.03914802539659313|-0.0136546089294084|0.08828704360028244|-0.0150769604369998|-0.01440027542412281|0.06451644748449326|-0.008112777024507523|0.01310012489557266|-0.02634179592132568|XArbitraryZVertical|0.0442531959190723|-0.005955583351774867|0.01925201379161452|0.998817222942897|-0.01360100507736206|-0.08817239105701447|-0.9960123896598816|0|0|0|-1|-1|3
2021-04-22 22:25:18.583 +0100|141939.127994625|-0.0368499755859375|-0.0785064697265625|-1.01983642578125|141939.108035625|0.04039245942812721|-0.01377989478988664|0.08740578890141033|-0.01697439514100552|-0.003448557807132602|0.06915158778429031|-0.005789659917354584|0.006576508283615112|-0.02730381488800049|XArbitraryZVertical|0.04381804167527529|-0.005999638354345292|0.01987414293154951|0.9988238864416269|-0.013726856559515|-0.08729454129934311|-0.9960879683494568|0|0|0|-1|-1|3
2021-04-22 22:25:18.603 +0100|141939.147954625|-0.0450592041015625|-0.0604095458984375|-1.00726318359375|141939.127994625|0.04175642669184448|-0.01376666763870546|0.08651817516873782|-0.02500971779227257|0.02244588918983936|0.06463078409433365|-0.01909217610955238|0.009644277393817902|-0.02153503894805908|XArbitraryZVertical|0.04337870999109134|-0.005972537097680264|0.02055906364832584|0.9988293566540296|-0.0137147419154644|-0.0864102765917778|-0.9961652159690857|0|0|0|-1|-1|3
2021-04-22 22:25:18.622 +0100|141939.167914625|-0.0435638427734375|-0.0494842529296875|-1.002670288085938|141939.147954625|0.04322923357651483|-0.01331786032867049|0.0856801128124311|-0.01337510067969561|0.03552041202783585|0.07413551956415176|-0.02793063782155514|0.02072643488645554|-0.01243895292282104|XArbitraryZVertical|0.04295978119122588|-0.005725621387181769|0.02130750975297443|0.9988332759914801|-0.01326861418783665|-0.08557531982660294|-0.9962433576583862|0|0|0|-1|-1|3
2021-04-22 22:25:18.642 +0100|141939.187874625|-0.031036376953125|-0.059356689453125|-0.999359130859375|141939.167914625|0.04461306034275367|-0.01262600191483932|0.08512531938056771|-0.008247649297118187|0.05008076876401901|0.05612855777144432|-0.03170157596468925|0.03358614444732666|-0.009727656841278076|XArbitraryZVertical|0.04267905460498642|-0.005356631310398926|0.02201548604266455|0.9988319510008951|-0.01257994957268238|-0.08502254635095596|-0.9962996244430542|0|0|0|-1|-1|3
2021-04-22 22:25:18.662 +0100|141939.207834625|-0.0235137939453125|-0.0453033447265625|-0.9994659423828125|141939.187874625|0.04558418626708993|-0.01171836027230818|0.0848155130449932|-0.006183999590575695|0.0615851953625679|0.04669510945677757|-0.02325191721320152|0.02326769381761551|-0.006638586521148682|XArbitraryZVertical|0.04251671212748943|-0.004886186346200186|0.02252090149485906|0.9988300935611014|-0.01167596969753504|-0.08471386134624481|-0.9963369369506836|0|0|0|-1|-1|3
2021-04-22 22:25:18.682 +0100|141939.227793625|-0.0316009521484375|-0.0562744140625|-1.00238037109375|141939.207834625|0.04640088110623793|-0.01093792779007807|0.08450351185024542|0.0115832295268774|0.05662255361676216|0.03023437596857548|-0.01180691551417112|0.04186244308948517|-0.002803981304168701|XArbitraryZVertical|0.04235393883028093|-0.004482719824916815|0.02294636481134161|0.9988291913190387|-0.01089868042618036|-0.08440297842025757|-0.9963721036911011|0|0|0|-1|-1|3
2021-04-22 22:25:18.702 +0100|141939.247753625|-0.027618408203125|-0.0596160888671875|-1.014328002929688|141939.227793625|0.04709759171362066|-0.01061135463199818|0.08504891927574453|0.06644462794065475|0.06100766733288765|0.03219339624047279|-0.01936545968055725|0.02838306128978729|-0.004189431667327881|XArbitraryZVertical|0.04262407090462349|-0.004298394512955514|0.02329950894228438|0.9988103496186304|-0.01057280134409666|-0.08494642376899719|-0.9963294267654419|0|0|0|-1|-1|3
2021-04-22 22:25:18.722 +0100|141939.267713625|-0.0248565673828125|-0.0701141357421875|-1.0013427734375|141939.247753625|0.04790554176614714|-0.01035462817434204|0.08569483680847116|0.07654689997434616|0.04878194257616997|0.03649156168103218|-0.01838584989309311|0.02801954001188278|-0.01681506633758545|XArbitraryZVertical|0.04294533317868872|-0.004145166913400848|0.02370647602346745|0.9987875133842388|-0.01031644735485315|-0.08558999001979828|-0.9962770342826843|0|0|0|-1|-1|3
2021-04-22 22:25:18.742 +0100|141939.287673625|-0.0279541015625|-0.060211181640625|-0.99786376953125|141939.267713625|0.04879180741037951|-0.01000586045352415|0.08680590127564525|0.09577468782663345|0.05793405324220657|0.05214801803231239|-0.01517897937446833|0.01327260583639145|-0.008713245391845703|XArbitraryZVertical|0.04349779339526059|-0.003938306945834713|0.02415319737157531|0.9987537688579519|-0.009968019090592861|-0.08669692277908325|-0.9961848855018616|0|0|0|-1|-1|3
2021-04-22 22:25:18.762 +0100|141939.307633625|-0.034576416015625|-0.0715484619140625|-0.98980712890625|141939.287673625|0.04997990774602175|-0.009460858109768933|0.08768491531540293|0.09228696674108505|0.04053274542093277|0.05211464315652847|-0.01654660329222679|0.02795746922492981|-0.002925217151641846|XArbitraryZVertical|0.0439323200726511|-0.003629246297984072|0.02475579785751655|0.9987212729944546|-0.009424369782209396|-0.08757259696722031|-0.9961135387420654|0|0|0|-1|-1|3
2021-04-22 22:25:18.782 +0100|141939.327592625|-0.033172607421875|-0.0694580078125|-0.985565185546875|141939.307633625|0.05098863390538166|-0.008999485135985171|0.08863085900203121|0.088521808385849|0.05798172578215599|0.04093522578477859|-0.02492624334990978|0.01956136524677277|0.008378803730010986|XArbitraryZVertical|0.04440066954476316|-0.003364560702625105|0.02526699091733964|0.9986886596887231|-0.008964040316641331|-0.08851486444473267|-0.9960345029830933|0|0|0|-1|-1|3
2021-04-22 22:25:18.806 +0100|141939.347552625|-0.03131103515625|-0.0750732421875|-0.9940643310546875|141939.327592625|0.05178174073703811|-0.008493069063776709|0.08921125729275557|0.05538968369364738|0.05471349507570267|0.02204808406531811|-0.02369158715009689|0.01897981017827988|0.009109914302825928|XArbitraryZVertical|0.0446853135301927|-0.003086519812522317|0.02567270065556695|0.9986664791471588|-0.008459192700684071|-0.08909296989440918|-0.9959874153137207|0|0|0|-1|-1|3
2021-04-22 22:25:18.822 +0100|141939.367512625|-0.0277557373046875|-0.079681396484375|-1.000518798828125|141939.347552625|0.05219369732988655|-0.007637098731218408|0.08959551312770508|0.02338915504515171|0.07479846477508545|0.01651430316269398|-0.02619233727455139|0.01113804429769516|0.001224160194396973|XArbitraryZVertical|0.04486673405475503|-0.002644862050890263|0.02589656786336693|0.9986538984583331|-0.00760639226064086|-0.08947569131851196|-0.9959599375724792|0|0|0|-1|-1|3
2021-04-22 22:25:18.842 +0100|141939.387472625|-0.03009033203125|-0.0871734619140625|-0.9869232177734375|141939.367512625|0.0525186938882934|-0.006711197112484977|0.08950746268049839|0.02591584622859955|0.0561334416270256|0.01828894391655922|-0.02210956439375877|0.01379692554473877|-0.008145511150360107|XArbitraryZVertical|0.04481112873081898|-0.002176406815646736|0.02607981464438032|0.9986527625396969|-0.006684281397610903|-0.08938799798488617|-0.9959744811058044|0|0|0|-1|-1|3
2021-04-22 22:25:18.862 +0100|141939.407432625|-0.0316925048828125|-0.1019287109375|-0.9772186279296875|141939.387472625|0.05304543104985834|-0.006249039121330481|0.08942001307113311|0.005979239940643311|0.04514896497130394|0.03181886672973633|-0.02359215170145035|0.00226573646068573|0.003584086894989014|XArbitraryZVertical|0.04476194643877108|-0.001935003332022937|0.0263533699653812|0.9986482869580743|-0.006224032025784254|-0.08930089324712753|-0.9959852695465088|0|0|0|-1|-1|3
2021-04-22 22:25:18.882 +0100|141939.427391625|-0.0376739501953125|-0.074188232421875|-0.962188720703125|141939.407432625|0.05360167420337902|-0.006029204353199989|0.08869452090381495|-0.04468012601137161|0.03814826160669327|0.02508284524083138|-0.02547392249107361|-0.008283548057079315|0.01674193143844604|XArbitraryZVertical|0.04439730529448505|-0.001822545689435797|0.02663756122186313|0.9986571624254451|-0.006005468312650919|-0.08857827633619308|-0.9960511326789856|0|0|0|-1|-1|3
2021-04-22 22:25:18.902 +0100|141939.447351625|-0.0207061767578125|-0.07373046875|-0.976806640625|141939.427391625|0.0539862977256772|-0.005720993273612001|0.08744097055398792|-0.05458755046129227|0.0478089302778244|0.007199719082564116|-0.03151759132742882|0.001148924231529236|0.02727580070495605|XArbitraryZVertical|0.04376758302948812|-0.001677088759331152|0.02683898973722345|0.9986798676502154|-0.005699105095118284|-0.08732958883047104|-0.9961631894111633|0|0|0|-1|-1|3
2021-04-22 22:25:18.922 +0100|141939.467311625|-0.0126800537109375|-0.1164398193359375|-0.9940338134765625|141939.447351625|0.0537958493646823|-0.005351176749642738|0.08584699190301683|-0.08288612961769104|0.03631850704550743|-0.03533975034952164|-0.01973925530910492|0.01939734071493149|0.02349424362182617|XArbitraryZVertical|0.04296653073806648|-0.001518098733271763|0.02675504259505656|0.998717121836132|-0.005331445019692183|-0.08574158698320389|-0.9963031411170959|0|0|0|-1|-1|3
2021-04-22 22:25:18.942 +0100|141939.487271625|-0.0203704833984375|-0.1250457763671875|-0.9815826416015625|141939.467311625|0.05253908446805169|-0.005176215827558644|0.08326695998395509|-0.1862921118736267|0.02958917990326881|-0.09728159010410309|-0.005218228325247765|-0.02013026177883148|0.009034097194671631|XArbitraryZVertical|0.04167487154704837|-0.001491723065103791|0.02613598598345591|0.998788301117764|-0.005158258602023125|-0.08317077159881592|-0.9965219497680664|0|0|0|-1|-1|3
2021-04-22 22:25:18.962 +0100|141939.507230625|-0.04644775390625|-0.096221923828125|-0.94696044921875|141939.487271625|0.04979889812067148|-0.004794727943759542|0.07827365618982393|-0.3306103646755219|0.03936846554279327|-0.1812230944633484|-0.009243311360478401|-0.04672898352146149|0.008859038352966309|XArbitraryZVertical|0.03917423567074226|-0.001420650138806354|0.02478396630011374|0.9989240458070351|-0.004780028946697712|-0.07819375395774841|-0.9969267249107361|0|0|0|-1|-1|3
2021-04-22 22:25:18.982 +0100|141939.527190625|-0.0234832763671875|-0.0352020263671875|-0.913665771484375|141939.507230625|0.04573113406748011|-0.003893256183871104|0.07210154478102357|-0.2994677424430847|0.1005271077156067|-0.2121375203132629|-0.03511885181069374|-0.04368259757757187|0.03540384769439697|XArbitraryZVertical|0.03607794766582736|-0.001120784122290992|0.02277852907282224|0.9990888303439774|-0.003883130848407745|-0.07203909009695053|-0.9973942637443542|0|0|0|-1|-1|3
2021-04-22 22:25:19.002 +0100|141939.547150625|0.0390472412109375|-0.1226959228515625|-0.911041259765625|141939.527190625|0.04142135232462493|-0.001998031515516165|0.06769390770307901|-0.1492984294891357|0.0930512398481369|-0.2247621417045593|-0.03415513783693314|0.0352792963385582|0.08259224891662598|XArbitraryZVertical|0.03385388914517563|-0.0002974204351427816|0.02066352095209483|0.9992132652116344|-0.001993454061448574|-0.0676422193646431|-0.9977076649665833|0|0|0|-1|-1|3
2021-04-22 22:25:19.022 +0100|141939.567110625|0.063720703125|-0.135833740234375|-0.914520263671875|141939.547150625|0.03673570615815019|-0.0005231430478597784|0.06541589868940177|-0.1853395253419876|0.04841719567775726|-0.2440437078475952|0.02553065493702888|-0.03878627717494965|0.08332544565200806|XArbitraryZVertical|0.03270139923140968|0.0003392462511943939|0.01834844197613257|0.9992967560057928|-0.0005220241146162152|-0.06536925584077835|-0.9978610277175903|0|0|0|-1|-1|3
2021-04-22 22:25:19.042 +0100|141939.587070625|0.07037353515625|-0.118072509765625|-0.934326171875|141939.567110625|0.03148751414171038|0.0002594635975612623|0.06117074447510124|-0.3628364205360413|0.006988742854446173|-0.2822413444519043|0.06066883727908134|-0.07720261812210083|0.08032864332199097|XArbitraryZVertical|0.03057477156791855|0.0006110887197163279|0.01573970996543373|0.9994083852902391|0.0002589783107396215|-0.06113260239362717|-0.9981296062469482|0|0|0|-1|-1|3
2021-04-22 22:25:19.062 +0100|141939.607029625|0.0608673095703125|-0.0366668701171875|-0.9477996826171875|141939.587070625|0.02586268178864694|-0.0005285190957572011|0.05424246287673762|-0.4593774676322937|-0.05567239969968796|-0.2671210467815399|0.07137376070022583|-0.08242562413215637|0.07215273380279541|XArbitraryZVertical|0.02711905200821738|8.6520768236377e-05|0.0129190579148494|0.9995488068485104|-0.0005277417367324233|-0.05421586707234383|-0.9985290765762329|0|0|0|-1|-1|3
2021-04-22 22:25:19.082 +0100|141939.626989625|0.033050537109375|-0.008087158203125|-0.96380615234375|141939.607029625|0.0203940824890232|-0.00295414484781164|0.04519250931599488|-0.4442614316940308|-0.1340545564889908|-0.2810119986534119|0.06870070844888687|-0.005099616944789886|0.06348878145217896|XArbitraryZVertical|0.0226081892698017|-0.001246226921182418|0.01016087820115|0.9996920278883623|-0.002951124450191855|-0.04517712816596031|-0.998974621295929|0|0|0|-1|-1|3
2021-04-22 22:25:19.101 +0100|141939.646949625|0.0128631591796875|0.02801513671875|-0.9626312255859375|141939.626989625|0.01480304653556739|-0.005716918619012578|0.03844913234881451|-0.329377681016922|-0.1891664862632751|-0.2798650860786438|0.0471549853682518|0.01970282569527626|0.0409315824508667|XArbitraryZVertical|0.01924392707653142|-0.002715568165390831|0.007345109089906644|0.9997842885751095|-0.005712662357836962|-0.03843966126441956|-0.9992445707321167|0|0|0|-1|-1|3
2021-04-22 22:25:19.121 +0100|141939.666909625|0.035003662109375|-0.03302001953125|-0.9638824462890625|141939.646949625|0.00916473352777223|-0.007960441459976552|0.03606905469809735|-0.1557816416025162|-0.1964898109436035|-0.2709475755691528|0.02080252766609192|0.05566973611712456|0.03197169303894043|XArbitraryZVertical|0.01805145160504969|-0.003896885434329248|0.004509792281335588|0.99981938990139|-0.007955179549753666|-0.03606123477220535|-0.9993179440498352|0|0|0|-1|-1|3
2021-04-22 22:25:19.141 +0100|141939.686869625|0.038421630859375|-0.077484130859375|-0.9483795166015625|141939.666909625|0.003435195772029491|-0.0120188102169252|0.03377866754375553|-0.1136015132069588|-0.2343699187040329|-0.2949896156787872|0.04059081524610519|0.02583862841129303|0.03437626361846924|XArbitraryZVertical|0.01689851887712011|-0.005979495037877989|0.001615831610756644|0.9998381604515142|-0.01201166491955519|-0.03377224504947662|-0.9993573427200317|0|0|0|-1|-1|3
2021-04-22 22:25:19.161 +0100|141939.706828625|0.03033447265625|-0.0787506103515625|-0.93927001953125|141939.686869625|-0.002853086305932085|-0.01503462097337232|0.03095007439314366|-0.2801523804664612|-0.2530169486999512|-0.3307715654373169|0.05501957610249519|-0.03898494690656662|0.04909074306488037|XArbitraryZVertical|0.0154632419397655|-0.007538405140166046|-0.00154265610119927|0.9998509756511093|-0.01502685435116291|-0.03094513341784477|-0.9994081258773804|0|0|0|-1|-1|3
2021-04-22 22:25:19.181 +0100|141939.726788625|-0.026336669921875|0.0012359619140625|-0.963592529296875|141939.706828625|-0.009954960870794468|-0.0194628070722905|0.02378438292306233|-0.4133161902427673|-0.3359763920307159|-0.3623181581497192|0.05554253607988358|-0.05684435367584229|0.05720603466033936|XArbitraryZVertical|0.01184276586031384|-0.009789628796354819|-0.005092593332958296|0.9998691019751669|-0.01945607364177704|-0.02378213964402676|-0.9995278120040894|0|0|0|-1|-1|3
2021-04-22 22:25:19.201 +0100|141939.746748625|-0.10089111328125|0.040618896484375|-0.9864959716796875|141939.726788625|-0.01804735212693666|-0.02582584654987126|0.01420699619923273|-0.4888201653957367|-0.3982099890708923|-0.4445903599262238|0.01866341568529606|-0.005140680819749832|0.04685264825820923|XArbitraryZVertical|0.006986041887411574|-0.0129758043070213|-0.009114292432815491|0.9998499836400579|-0.02582036890089512|-0.01420651841908693|-0.9995656609535217|0|0|0|-1|-1|3
2021-04-22 22:25:19.221 +0100|141939.766708625|-0.149261474609375|0.0042877197265625|-0.96295166015625|141939.746748625|-0.02809433375447386|-0.03312222015101574|0.003675846760518152|-0.5767375826835632|-0.4357036054134369|-0.5428330898284912|-0.04764942079782486|0.04002321511507034|0.01102620363235474|XArbitraryZVertical|0.001604870875153133|-0.01658450257642429|-0.01407518698158733|0.9997622184972759|-0.0331159420311451|-0.003675838466733694|-0.9994447827339172|0|0|0|-1|-1|3
2021-04-22 22:25:19.241 +0100|141939.786668625|-0.14654541015625|-0.0113525390625|-0.9435882568359375|141939.766708625|-0.04084275229505385|-0.03978411313491246|-0.008228202948745059|-0.8194422125816345|-0.3700093328952789|-0.6896089911460876|-0.102623350918293|0.01287573017179966|0.03207290172576904|XArbitraryZVertical|-0.004518582590517487|-0.01980243464436327|-0.02033392734816834|0.9995869785198249|-0.03977227210998535|0.008228110149502754|-0.9991748929023743|0|0|0|-1|-1|3
2021-04-22 22:25:19.261 +0100|141939.806627625|-0.0966644287109375|0.03094482421875|-0.97052001953125|141939.786668625|-0.05629225452473138|-0.04411794806122395|-0.0240535225535927|-1.026555418968201|-0.2083613276481628|-0.7683342099189758|-0.1112899854779243|-0.0530572384595871|0.04825282096862793|XArbitraryZVertical|-0.01263947863052929|-0.0217084795577181|-0.02786836056629222|0.9992960699383027|-0.0440908782184124|0.02405120246112347|-0.9987379908561707|0|0|0|-1|-1|3
2021-04-22 22:25:19.281 +0100|141939.826587625|-0.09564208984375|-0.0098724365234375|-0.95208740234375|141939.806627625|-0.07341600552716702|-0.04812355879431025|-0.04511871457087463|-1.161794662475586|-0.1658711433410645|-0.8436108231544495|-0.06043459102511406|-0.01601923629641533|0.03293633460998535|XArbitraryZVertical|-0.02341847292463028|-0.02320951774870224|-0.03613744455228236|0.9988028165855096|-0.04805603250861168|0.04510340839624405|-0.9978258013725281|0|0|0|-1|-1|3
2021-04-22 22:25:19.305 +0100|141939.846547625|-0.0904998779296875|-0.0776519775390625|-0.9204864501953125|141939.826587625|-0.09165534956249465|-0.05227740629598039|-0.06920416784198828|-1.362341523170471|-0.1305137276649475|-0.8539402484893799|-0.03748699277639389|-0.06438729166984558|0.03651154041290283|XArbitraryZVertical|-0.0357436527168597|-0.02450833616414421|-0.04486534826151359|0.9980526157577317|-0.05212851986289024|0.06914894282817841|-0.9962434768676758|0|0|0|-1|-1|3
2021-04-22 22:25:19.321 +0100|141939.866507625|-0.121337890625|-0.1216888427734375|-0.8698272705078125|141939.846547625|-0.1108355432559641|-0.05590009971448386|-0.09900385866731294|-1.760611891746521|-0.09555936604738235|-0.9074010848999023|-0.0380006730556488|-0.1582590341567993|0.0607333779335022|XArbitraryZVertical|-0.05093248547888889|-0.02512963167285088|-0.05391923067601574|0.9969289969103627|-0.05559739843010902|0.09884220361709595|-0.9935487508773804|0|0|0|-1|-1|3
2021-04-22 22:25:19.341 +0100|141939.886467625|-0.1970367431640625|-0.0580596923828125|-0.7736663818359375|141939.866507625|-0.1318350144371984|-0.06030454670098041|-0.1386403369794758|-2.33003306388855|-0.09335155040025711|-0.9508715271949768|-0.04635954648256302|-0.2587249279022217|0.1026183366775513|XArbitraryZVertical|-0.07106387143166569|-0.02544960751023629|-0.06359807519542129|0.9951168945350737|-0.0596897192299366|0.1381966322660446|-0.9886044859886169|0|0|0|-1|-1|3
2021-04-22 22:25:19.361 +0100|141939.906426625|-0.228546142578125|0.0323333740234375|-0.69415283203125|141939.886467625|-0.1543458549407028|-0.06504659548926882|-0.1890717016552934|-2.828784704208374|0.01006613206118345|-0.9513334631919861|-0.1147014126181602|-0.2717323899269104|0.1828916072845459|XArbitraryZVertical|-0.09656015939048999|-0.02500234579411805|-0.07365113927162499|0.9922835905722676|-0.06384236365556717|0.1879472136497498|-0.9801020622253418|0|0|0|-1|-1|3
2021-04-22 22:25:19.381 +0100|141939.926386625|-0.198028564453125|0.0662841796875|-0.634033203125|141939.906426625|-0.1772465146375307|-0.06761793586527956|-0.2476183666029568|-3.152647733688354|0.2190647721290588|-0.8862285614013672|-0.1635600924491882|-0.2362141907215118|0.2536301016807556|XArbitraryZVertical|-0.1259070438538345|-0.02248834628945742|-0.08362161641862173|0.9882556277705932|-0.06550557166337967|0.2450956702232361|-0.9672833681106567|0|0|0|-1|-1|3
2021-04-22 22:25:19.401 +0100|141939.946346625|-0.171875|0.0613555908203125|-0.573486328125|141939.926386625|-0.1996554474559437|-0.06874126795690977|-0.3134855123991043|-3.590452194213867|0.268853634595871|-0.8213160037994385|-0.1409446597099304|-0.2393750846385956|0.3028084635734558|XArbitraryZVertical|-0.1586155892140304|-0.01822539076971493|-0.09304454285777859|0.9827775913846807|-0.06533963978290558|0.308376133441925|-0.9490178823471069|0|0|0|-1|-1|3
2021-04-22 22:25:19.421 +0100|141939.966306625|-0.16021728515625|0.1306304931640625|-0.508819580078125|141939.946346625|-0.2216473880956568|-0.0711945743262283|-0.3894787732948848|-4.112151622772217|0.2579399347305298|-0.7041686773300171|-0.109837681055069|-0.3194637596607208|0.3363839387893677|XArbitraryZVertical|-0.1960636099879857|-0.01331469485328772|-0.1015929915748889|0.9752233869060446|-0.06580697745084763|0.3797062635421753|-0.9227635860443115|0|0|0|-1|-1|3
2021-04-22 22:25:19.441 +0100|141939.986266625|-0.1699676513671875|0.2131805419921875|-0.4458160400390625|141939.966306625|-0.2422595655166189|-0.07484372352044129|-0.4754885295969365|-4.656661033630371|0.2204695492982864|-0.5284274816513062|-0.09483752399682999|-0.3443534970283508|0.3545372486114502|XArbitraryZVertical|-0.2380152077669077|-0.007656584328347115|-0.1086060749441819|0.9651398871847724|-0.0664791464805603|0.4577728509902954|-0.8865802884101868|0|0|0|-1|-1|3
2021-04-22 22:25:19.461 +0100|141940.006225|-0.22003173828125|0.369110107421875|-0.4278564453125|141939.986266625|-0.2604250602046582|-0.08053430987445288|-0.5737281356028773|-5.351215362548828|0.1277550011873245|-0.2691505551338196|-0.09788547456264496|-0.355876624584198|0.3721195459365845|XArbitraryZVertical|-0.2853365509387484|-0.001575083306866736|-0.113144007137781|0.9517242585684337|-0.06756633520126343|0.5427669882774353|-0.837161123752594|0|0|0|-1|-1|3
2021-04-22 22:25:19.481 +0100|141940.026185|-0.25335693359375|0.65203857421875|-0.3613739013671875|141940.006225|-0.2761350939510777|-0.08659991358070471|-0.6855226171814887|-5.861516952514648|0.1891683489084244|-0.06512312591075897|-0.1404154896736145|-0.3185170888900757|0.332421600818634|XArbitraryZVertical|-0.3381896768036741|0.005831842150107475|-0.1150922921258451|0.9339954661050369|-0.06695222109556198|0.6330776214599609|-0.7711874842643738|0|0|0|-1|-1|3
2021-04-22 22:25:19.501 +0100|141940.046145|-0.2679595947265625|0.8830413818359375|-0.2713775634765625|141940.026185|-0.2908286541398042|-0.09157787763213456|-0.8058368950358957|-6.196386337280273|0.2970303893089294|0.02351326681673527|-0.1838938891887665|-0.1408129334449768|0.3098763823509216|XArbitraryZVertical|-0.393661269042879|0.01509429379685965|-0.1154006120537373|0.9118584006384506|-0.0633297860622406|0.7214104533195496|-0.6896059513092041|0|0|0|-1|-1|3
2021-04-22 22:25:19.521 +0100|141940.066105|-0.2627410888671875|1.155319213867188|-0.141143798828125|141940.046145|-0.309409117933459|-0.09903040123975339|-0.9306759484811562|-6.30075216293335|0.3797400593757629|-0.01636401936411858|-0.2040698826313019|0.03186953067779541|0.3050292730331421|XArbitraryZVertical|-0.4496379682589876|0.02535452579453235|-0.1155908286065683|0.8853371129716137|-0.0590534470975399|0.8020238876342773|-0.5943657159805298|0|0|0|-1|-1|3
2021-04-22 22:25:19.541 +0100|141940.086065|-0.1942138671875|1.407089233398438|0.0028533935546875|141940.066105|-0.3352011968638562|-0.1123944443519532|-1.055309480283941|-6.312628269195557|0.4679157137870789|-0.1015209034085274|-0.2147463262081146|0.2095985412597656|0.3045006394386292|XArbitraryZVertical|-0.5037647238917839|0.03601283141538576|-0.1160161644153613|0.8552570756627487|-0.05528924614191055|0.8700528144836426|-0.4898483455181122|0|0|0|-1|-1|3
2021-04-22 22:25:19.560 +0100|141940.106025|-0.1181488037109375|1.6319580078125|0.1434173583984375|141940.086065|-0.3810032387751092|-0.1434849264867807|-1.179144722459468|-6.106510639190674|0.5635924339294434|-0.311212956905365|-0.1601702868938446|0.4266573190689087|0.3510604202747345|XArbitraryZVertical|-0.5558242062197185|0.04650781580578236|-0.1178460107709751|0.8215892241481019|-0.05458268895745277|0.9242798686027527|-0.3777929544448853|0|0|0|-1|-1|3
2021-04-22 22:25:19.580 +0100|141940.125984|-0.0530853271484375|1.8095703125|0.097442626953125|141940.106025|-0.4624960432375986|-0.2092730407219345|-1.287065315690507|-4.934013843536377|0.6078364253044128|-0.4420554041862488|-0.07517492771148682|0.6078079342842102|0.3789508044719696|XArbitraryZVertical|-0.600008751696833|0.05543860469913532|-0.1213450134332653|0.7887912188091116|-0.05815717205405235|0.9600176811218262|-0.2738321125507355|0|0|0|-1|-1|3
2021-04-22 22:25:19.600 +0100|141940.145944|0.0751495361328125|1.628952026367188|0.0007781982421875|141940.125984|-0.6008512445009947|-0.3287823347363636|-1.365926401824038|-3.526700496673584|0.8439777493476868|-0.6880112290382385|-0.009049251675605774|0.8171621561050415|0.3391356468200684|XArbitraryZVertical|-0.6322671567838546|0.06297986006006194|-0.1278036187019936|0.7615367466637468|-0.06568910926580429|0.9790874719619751|-0.1925435662269592|0|0|0|-1|-1|3
2021-04-22 22:25:19.621 +0100|141940.165904|0.097412109375|1.395355224609375|0.0018157958984375|141940.145944|-0.8057566825344289|-0.5160000218540308|-1.410175310688083|-2.087769746780396|0.5435695052146912|-0.8557707071304321|0.1252515017986298|0.7125027775764465|0.1350206136703491|XArbitraryZVertical|-0.6526598195988288|0.06693740284323145|-0.1365772219925686|0.7422273255477193|-0.07891139388084412|0.9871281385421753|-0.1391090899705887|0|0|0|-1|-1|3
2021-04-22 22:25:19.640 +0100|141940.185864|0.0253753662109375|1.228790283203125|-0.105438232421875|141940.165904|-1.015237154976458|-0.7149273260509642|-1.428223888876051|-1.410426497459412|0.3321185708045959|-0.6733679175376892|0.2029051631689072|0.4476616382598877|0.1295621395111084|XArbitraryZVertical|-0.6647092537064849|0.06717330160559075|-0.1438432970980751|0.7300401570261181|-0.09314952790737152|0.9898537397384644|-0.1072987094521523|0|0|0|-1|-1|3
2021-04-22 22:25:19.660 +0100|141940.205824|-0.0015869140625|1.121658325195312|0.0015411376953125|141940.185864|-1.218999027091453|-0.9097283221763403|-1.438144561625702|-1.221354365348816|0.3334624767303467|-0.5148507952690125|0.1446686685085297|0.2826502919197083|-0.01269633322954178|XArbitraryZVertical|-0.6744004365814626|0.06768569980657747|-0.1496520885792142|0.7198661086207759|-0.1044015884399414|0.9912146329879761|-0.08120539784431458|0|0|0|-1|-1|3
2021-04-22 22:25:19.680 +0100|141940.225783|0.015106201171875|0.99267578125|-0.1633758544921875|141940.205824|-1.370999057892635|-1.053172833430226|-1.440853890894044|-0.5785711407661438|0.4524420499801636|-0.3669697046279907|0.1181250438094139|0.1524125337600708|0.07339514791965485|XArbitraryZVertical|-0.680606784941969|0.0686729232193134|-0.1546472747070074|0.7128412579542996|-0.1126021817326546|0.9915693402290344|-0.06411686539649963|0|0|0|-1|-1|3
2021-04-22 22:25:19.700 +0100|141940.245743|0.0893707275390625|0.7816619873046875|-0.1402435302734375|141940.225783|-1.437840004684549|-1.108822132512068|-1.438449227193558|-0.1444326937198639|0.5856102705001831|-0.2745818197727203|0.1194864511489868|0.04266548156738281|-0.06345003843307495|XArbitraryZVertical|-0.6823286232504578|0.07084334678005474|-0.1602524827796005|0.7097381094179548|-0.1181292682886124|0.9912549257278442|-0.05881774052977562|0|0|0|-1|-1|3
2021-04-22 22:25:19.720 +0100|141940.265703|0.063873291015625|0.863677978515625|-0.076324462890625|141940.245743|-1.447973466667544|-1.108675660842933|-1.434365194479917|0.1382839977741241|0.4189454913139343|-0.1384258419275284|0.2009817808866501|-0.1716462373733521|-0.1168344095349312|XArbitraryZVertical|-0.6814379304739386|0.07295548224656963|-0.1652596712632406|0.7092315079062478|-0.1217437610030174|0.9907076954841614|-0.06063969060778618|0|0|0|-1|-1|3
2021-04-22 22:25:19.741 +0100|141940.285663|0.0336151123046875|1.034927368164062|-0.0890655517578125|141940.265703|-1.464808071084261|-1.116561537390849|-1.432575622223837|-0.1768984943628311|0.5029726028442383|-0.1728096306324005|0.2057187855243683|-0.1698449850082397|-0.002410054206848145|XArbitraryZVertical|-0.6812523649474049|0.07528336616355921|-0.1691367501285347|0.7082517426128323|-0.1238104701042175|0.9904627203941345|-0.06045525893568993|0|0|0|-1|-1|3
2021-04-22 22:25:19.760 +0100|141940.305623|-0.059844970703125|1.234039306640625|-0.2391357421875|141940.285663|-1.496776448830279|-1.138989101479045|-1.429382250991887|-0.03492053970694542|0.3969804346561432|-0.2771092355251312|0.1634822338819504|0.01063841581344604|-0.03871452435851097|XArbitraryZVertical|-0.6815832640862579|0.07714224071685719|-0.1738755466003156|0.7065837982859042|-0.1280064135789871|0.9900176525115967|-0.05898665636777878|0|0|0|-1|-1|3
2021-04-22 22:25:19.780 +0100|141940.325582|-0.1565704345703125|1.505599975585938|-0.238616943359375|141940.305623|-1.510221126044476|-1.144139559953307|-1.42180100747268|0.1622360050678253|0.4589547216892242|-0.5168083906173706|0.1051844954490662|0.1882033944129944|-0.1141202449798584|XArbitraryZVertical|-0.6806708964851997|0.07727533063443438|-0.1794263288429118|0.7060609346471007|-0.1351383775472641|0.9889206886291504|-0.06143130734562874|0|0|0|-1|-1|3
2021-04-22 22:25:19.810 +0100|141940.345542|-0.223236083984375|1.421676635742188|-0.056793212890625|141940.325582|-1.530829846746651|-1.154973976989833|-1.410757005056292|-0.2784921228885651|0.4408487975597382|-0.5845617055892944|0.007823348045349121|0.4574049711227417|-0.2215618491172791|XArbitraryZVertical|-0.6796642184708412|0.07662026189435342|-0.1867428452405075|0.7052044380693002|-0.1457789689302444|0.9872210025787354|-0.06437177211046219|0|0|0|-1|-1|3
2021-04-22 22:25:19.821 +0100|141940.365502|-0.2409210205078125|1.2391357421875|0.0564422607421875|141940.365502|-1.749783974086067|-1.352600212744749|-1.398716233184205|-0.7751033902168274|0.5150306224822998|-0.3382725715637207|-0.05819998681545258|0.2729023098945618|0.1072426438331604|XArbitraryZVertical|-0.6894533495080569|0.07823519265281627|-0.1997416139994742|0.691835838645585|-0.1671732366085052|0.9852307438850403|-0.03706666827201843|0|0|0|-1|-1|3
2021-04-22 22:25:19.840 +0100|141940.385462|-0.2666473388671875|1.077255249023438|-0.07318115234375||||||||||||||||||||||||3
2021-04-22 22:25:19.861 +0100|141940.405422|-0.1968841552734375|0.9353179931640625|-0.0529632568359375|141940.385462|-1.826068623196215|-1.417901434789916|-1.394527409799828|-0.3500695526599884|0.5056440830230713|-0.3287879526615143|-0.1083195507526398|0.1691511869430542|-0.009516477584838867|XArbitraryZVertical|-0.6929292957554471|0.08059436601765196|-0.2049116612173194|0.6865602106795632|-0.1733128130435944|0.9845048189163208|-0.02670707926154137|0|0|0|-1|-1|3
2021-04-22 22:25:19.880 +0100|141940.425381|-0.202117919921875|0.8911590576171875|-0.06500244140625|141940.405422|-1.867466342935865|-1.450005532114042|-1.389253378973801|-0.4025714993476868|0.4142524898052216|-0.3929774165153503|-0.0138222724199295|-0.03611749410629272|-0.007403196766972542|XArbitraryZVertical|-0.6945403753933942|0.08207235746260635|-0.2097717694949998|0.6832816311467785|-0.1792328655719757|0.9835662841796875|-0.02175559103488922|0|0|0|-1|-1|3
2021-04-22 22:25:19.900 +0100|141940.445341|-0.204193115234375|1.054595947265625|-0.109375|141940.425381|-1.915985165836112|-1.489093483616186|-1.380399636757437|-0.3623098134994507|0.4800305664539337|-0.4931708574295044|-0.01429468393325806|-0.1007494926452637|-0.0476188063621521|XArbitraryZVertical|-0.6967605334709637|0.08247588112522324|-0.21573885745406|0.6791018500820744|-0.1886176019906998|0.9819292426109314|-0.0154449762776494|0|0|0|-1|-1|3
2021-04-22 22:25:19.920 +0100|141940.465301|-0.15484619140625|0.9882049560546875|-0.064056396484375|141940.445341|-1.953568157187388|-1.516847749792472|-1.37221940035301|-0.327249675989151|0.3881257176399231|-0.403436005115509|-0.0152783989906311|0.04900944232940674|-0.1001405715942383|XArbitraryZVertical|-0.6983881101115708|0.08327837985505229|-0.2215725401682831|0.6754438459371493|-0.196987509727478|0.9803482890129089|-0.01063751801848412|0|0|0|-1|-1|3
2021-04-22 22:25:19.940 +0100|141940.485261|-0.1883392333984375|1.008392333984375|-0.106719970703125|141940.465301|-1.967557484556731|-1.525115515338568|-1.365591517134351|0.1796077787876129|0.129561260342598|-0.2489041388034821|0.04680144786834717|0.03053265810012817|-0.06718647480010986|XArbitraryZVertical|-0.6988948023619977|0.08302721700594505|-0.2256491016442743|0.6735986835383777|-0.2035559266805649|0.9790192842483521|-0.009305072948336601|0|0|0|-1|-1|3
2021-04-22 22:25:19.960 +0100|141940.505221|-0.25531005859375|1.040206909179688|-0.24261474609375|141940.485261|-1.914166818904569|-1.472199821654831|-1.360975537192035|0.95936518907547|-0.04973733425140381|-0.131346270442009|0.03545832633972168|0.006947457790374756|-0.03825795650482178|XArbitraryZVertical|-0.6951582016773817|0.08064507560529952|-0.2276311402255111|0.6770786807242833|-0.2072731852531433|0.9780682325363159|-0.02050289325416088|0|0|0|-1|-1|3
2021-04-22 22:25:19.980 +0100|141940.525181|-0.2330474853515625|0.73193359375|-0.21575927734375|141940.505221|-1.803421015155896|-1.366560250667257|-1.354986741829586|1.282416343688965|-0.1790951192378998|-0.1473895907402039|-0.03295791149139404|0.09775108098983765|-0.1695346832275391|XArbitraryZVertical|-0.6873710700651637|0.07619236842464061|-0.2284819099364761|0.6852093697926965|-0.2096882611513138|0.9768033623695374|-0.04343146830797195|0|0|0|-1|-1|3
2021-04-22 22:25:20.000 +0100|141940.54514|-0.261444091796875|0.8043212890625|-0.183349609375|141940.525181|-1.699257732707437|-1.268168071671352|-1.344789953980316|1.044583439826965|-0.1053522899746895|-0.2180231958627701|-0.02700254321098328|-0.1913813352584839|-0.1684286594390869|XArbitraryZVertical|-0.6794038552767344|0.07083789837263517|-0.2297044644453291|0.6932736066829518|-0.2139041125774384|0.9745690822601318|-0.06678478419780731|0|0|0|-1|-1|3
2021-04-22 22:25:20.020 +0100|141940.5651|-0.2900543212890625|0.80596923828125|-0.2143402099609375|141940.54514|-1.65003663155721|-1.220847881987649|-1.337341957283795|0.2966967523097992|0.01769576966762543|-0.1719054132699966|-0.03521491587162018|-0.2021667957305908|-0.1100153401494026|XArbitraryZVertical|-0.6750737022695149|0.06795611765298493|-0.2311528814776679|0.6972990954672501|-0.21731898188591|0.9728730916976929|-0.07931492477655411|0|0|0|-1|-1|3
2021-04-22 22:25:20.040 +0100|141940.58506|-0.312652587890625|0.89398193359375|-0.1222076416015625|141940.5651|-1.644590499407981|-1.215030015147599|-1.332364403838469|0.07904555648565292|0.006793639622628689|-0.1989047974348068|-0.0637059360742569|-0.15797358751297|-0.1337238550186157|XArbitraryZVertical|-0.6741385937379948|0.06637323640809115|-0.2329025508710456|0.6977738206485661|-0.2213901877403259|0.9717094898223877|-0.08226349949836731|0|0|0|-1|-1|3
2021-04-22 22:25:20.060 +0100|141940.60502|-0.314605712890625|1.04925537109375|-0.150604248046875|141940.58506|-1.645383233275865|-1.215756712930717|-1.32974433695606|-0.01775208860635757|0.01550127007067204|-0.08527339994907379|-0.08341597020626068|-0.1172208786010742|-0.05849152058362961|XArbitraryZVertical|-0.6739601789875871|0.0654528095318001|-0.2338210589470739|0.6977258564521632|-0.2238359302282333|0.9710873961448669|-0.08298721164464951|0|0|0|-1|-1|3
2021-04-22 22:25:20.080 +0100|141940.62498|-0.283447265625|1.064697265625|-0.147216796875|141940.62498|-1.635588486076411|-1.205412543099242|-1.324731518801742|0.1617550402879715|-0.02568105235695839|-0.1011864989995956|-0.05958527326583862|0.1035467386245728|-0.04859805107116699|XArbitraryZVertical|-0.6725981842576726|0.06397963131600931|-0.2355791251137959|0.6985849724122641|-0.2275097668170929|0.9698784947395325|-0.08703657984733582|0|0|0|-1|-1|3
2021-04-22 22:25:20.100 +0100|141940.644939|-0.3000030517578125|1.038970947265625|-0.194366455078125||||||||||||||||||||||||3
2021-04-22 22:25:20.120 +0100|141940.664899|-0.301177978515625|1.030288696289062|-0.1460113525390625|141940.644939|-1.628843425147531|-1.199967626491171|-1.321881421638567|0.06006514653563499|-0.08330525457859039|-0.09468234330415726|-0.06661176681518555|0.06495362520217896|-0.1101866364479065|XArbitraryZVertical|-0.6718954190318176|0.06260044505662517|-0.2360139424529156|0.6992391417734146|-0.2296080142259598|0.9691802859306335|-0.08927545696496964|0|0|0|-1|-1|3
2021-04-22 22:25:20.150 +0100|141940.684859|-0.267730712890625|0.9936676025390625|-0.12359619140625|141940.664899|-1.632970188306725|-1.205868839240132|-1.320340558242832|-0.06963552534580231|-0.08726415038108826|-0.0951581671833992|-0.07224772870540619|0.0678061842918396|-0.06730931252241135|XArbitraryZVertical|-0.6723147735926891|0.0613761203136643|-0.2359929070907486|0.6989515483921579|-0.2315251678228378|0.9687995910644531|-0.08845163136720657|0|0|0|-1|-1|3
2021-04-22 22:25:20.160 +0100|141940.704819|-0.21417236328125|0.9861602783203125|-0.13824462890625|141940.704819|-1.649300937350422|-1.224807157268073|-1.317851426009072|-0.04841412976384163|-0.1273902654647827|-0.06404578685760498|0.009030759334564209|0.01602739095687866|-0.05265789479017258|XArbitraryZVertical|-0.6738252948698185|0.05937233218045895|-0.2361620754958025|0.6976115782557002|-0.2354263067245483|0.9681796431541443|-0.08486879616975784|0|0|0|-1|-1|3
2021-04-22 22:25:20.180 +0100|141940.724779|-0.1917877197265625|1.0413818359375|-0.150634765625||||||||||||||||||||||||3
2021-04-22 22:25:20.199 +0100|141940.744739|-0.199462890625|1.029525756835938|-0.1643218994140625|141940.724779|-1.648098332808024|-1.226810631797185|-1.316220125236202|-0.06111351028084755|-0.2354947924613953|-0.01000616513192654|0.04329507052898407|0.06112998723983765|-0.06170666217803955|XArbitraryZVertical|-0.6739492402558787|0.05768578664522742|-0.2356192512231547|0.6978169052683365|-0.2370826005935669|0.9677700996398926|-0.08492954075336456|0|0|0|-1|-1|3
2021-04-22 22:25:20.219 +0100|141940.764698|-0.184051513671875|0.9385986328125|-0.1588287353515625|141940.744739|-1.650442004913266|-1.23446482081289|-1.316556680658475|-0.03008284047245979|-0.2769718766212463|0.06263040006160736|0.04036545753479004|0.07366430759429932|-0.07364094257354736|XArbitraryZVertical|-0.6748109708156598|0.05592564937665107|-0.2337421970383317|0.6977586940156131|-0.2374183833599091|0.9678547978401184|-0.08300495147705078|0|0|0|-1|-1|3
2021-04-22 22:25:20.239 +0100|141940.784658|-0.138671875|0.7871856689453125|-0.1234893798828125|141940.764698|-1.651325288868004|-1.240624262074134|-1.318513226364725|-0.121715322136879|-0.2712993323802948|0.1256012916564941|0.04002675414085388|0.007103621959686279|-0.08708668500185013|XArbitraryZVertical|-0.6756747398752642|0.05477336796193874|-0.231308150191371|0.6978254035319152|-0.2361336499452591|0.968345046043396|-0.0809270516037941|0|0|0|-1|-1|3
2021-04-22 22:25:20.260 +0100|141940.804618|-0.106719970703125|0.7384185791015625|-0.0687103271484375|141940.784658|-1.661151447430077|-1.25470136916761|-1.322901017604207|-0.3513805866241455|-0.2097372859716415|0.2084067761898041|0.08505983650684357|-0.1516209840774536|-0.05934595316648483|XArbitraryZVertical|-0.6773958242186945|0.0547559652907231|-0.2284836793822483|0.6970882175225948|-0.2332082986831665|0.9694309830665588|-0.0762733668088913|0|0|0|-1|-1|3
2021-04-22 22:25:20.279 +0100|141940.824578|-0.1026611328125|0.7505035400390625|-0.05682373046875|141940.804618|-1.682139242852067|-1.278813430826777|-1.330333968375201|-0.4661276340484619|-0.2038187831640244|0.276984840631485|0.1153546422719955|-0.2317413687705994|-0.01961200684309006|XArbitraryZVertical|-0.6801261613148919|0.05614418150064886|-0.2250762045032546|0.6954257772103356|-0.2280722111463547|0.9712279438972473|-0.06855247169733047|0|0|0|-1|-1|3
2021-04-22 22:25:20.299 +0100|141940.844538|-0.1124114990234375|0.8348846435546875|-0.044647216796875|141940.824578|-1.718846881603364|-1.319212522366894|-1.339314913897564|-0.5315554141998291|-0.2776598334312439|0.3505702912807465|0.1231369227170944|-0.2247161865234375|-0.003282010555267334|XArbitraryZVertical|-0.6841753169534873|0.0578654697819215|-0.2209639271181967|0.6926260064555418|-0.2221978753805161|0.9733275771141052|-0.05711144581437111|0|0|0|-1|-1|3
2021-04-22 22:25:20.319 +0100|141940.864498|-0.1198883056640625|0.8853912353515625|-0.0991058349609375|141940.844538|-1.757988420761631|-1.362626623598879|-1.349293112081377|-0.5755488276481628|-0.2530019879341125|0.4127659499645233|0.1039452850818634|-0.1669135689735413|-0.001286383718252182|XArbitraryZVertical|-0.6882680493407093|0.05987293807214836|-0.2161711867386583|0.6899075829794977|-0.2149538546800613|0.9755682945251465|-0.04540464654564857|0|0|0|-1|-1|3
2021-04-22 22:25:20.339 +0100|141940.884457|-0.140045166015625|0.936065673828125|-0.118377685546875|141940.864498|-1.809728690285931|-1.418024075202839|-1.359643273895376|-0.7063862681388855|-0.2369920760393143|0.4086964726448059|0.08908918499946594|-0.09657961130142212|-0.05028814077377319|XArbitraryZVertical|-0.6929356185400277|0.0623921796494071|-0.2112851337432655|0.6865174727815275|-0.2071473449468613|0.9777898788452148|-0.03189488872885704|0|0|0|-1|-1|3
2021-04-22 22:25:20.359 +0100|141940.904417|-0.17681884765625|1.113998413085938|0.0084686279296875|141940.884457|-1.877839260369212|-1.488814704519843|-1.370364168980463|-0.7795819044113159|-0.1801199465990067|0.517207145690918|0.06255918741226196|-0.07264739274978638|-0.1097941398620605|XArbitraryZVertical|-0.6982354289675169|0.06569202158875187|-0.2062870247096868|0.6823470758773512|-0.19842429459095|0.9799806475639343|-0.01630368828773499|0|0|0|-1|-1|3
2021-04-22 22:25:20.379 +0100|141940.924377|-0.228179931640625|1.248779296875|0.0554656982421875|141940.904417|-1.951080986318042|-1.564193205731799|-1.382295338597504|-0.602012574672699|-0.1871104836463928|0.5931702852249146|0.02155032753944397|0.08688187599182129|-0.03057640790939331|XArbitraryZVertical|-0.7031994454326671|0.06994191987122206|-0.2007194921369074|0.678476658614296|-0.1873837560415268|0.9822862148284912|-0.001237335614860058|0|0|0|-1|-1|3
2021-04-22 22:25:20.399 +0100|141940.944337|-0.3147735595703125|1.2738037109375|-0.0058441162109375|141940.924377|-1.98864324886775|-1.604950677079692|-1.393807875703966|-0.06324893236160278|-0.2231907695531845|0.5546361207962036|-0.03723335266113281|0.237377405166626|0.0531468391418457|XArbitraryZVertical|-0.7054215147647863|0.07339354046870099|-0.1952017188292915|0.6774143376259431|-0.1759633123874664|0.9843783974647522|0.006012250669300556|0|0|0|-1|-1|3
2021-04-22 22:25:20.419 +0100|141940.964297|-0.369659423828125|1.166580200195312|-0.0502471923828125|141940.944337|-1.974627752195198|-1.596180932852816|-1.403400713965341|0.246216282248497|-0.2314828932285309|0.3639337718486786|-0.1250042319297791|0.2927406430244446|0.01881253719329834|XArbitraryZVertical|-0.7046434647838978|0.07478028921441346|-0.1902967684446641|0.6794650013226603|-0.1665615737438202|0.9860220551490784|0.004229008220136166|0|0|0|-1|-1|3
2021-04-22 22:25:20.440 +0100|141940.984256|-0.3869171142578125|1.097305297851562|-0.0959014892578125|141940.984256|-1.91456553762213|-1.542012383426017|-1.405052724393552|0.08387301862239838|-0.01654236204922199|-0.3245971202850342|-0.2221679240465164|0.1293960809707642|-0.0792657732963562|XArbitraryZVertical|-0.7016698703132308|0.07269968226117332|-0.1883154935286623|0.6833092253880739|-0.1649178862571716|0.9862959384918213|-0.004748298786580563|0|0|0|-1|-1|3
2021-04-22 22:25:20.459 +0100|141941.0042174167|-0.3853912353515625|1.179443359375|-0.0428619384765625||||||||||||||||||||||||3
2021-04-22 22:25:20.479 +0100|141941.0241774167|-0.439117431640625|1.186721801757812|-0.087799072265625|141941.0042174167|-1.916770024794002|-1.544346968940064|-1.394667297142079|-0.1197879761457443|-0.03966562822461128|-0.7408488392829895|-0.2101715207099915|0.1554547548294067|-0.05688869953155518|XArbitraryZVertical|-0.7020835134587645|0.06900558536416981|-0.1918034711636296|0.6822965488481471|-0.1751595586538315|0.9845293164253235|-0.004633938428014517|0|0|0|-1|-1|3
2021-04-22 22:25:20.499 +0100|141941.0441374167|-0.481842041015625|0.991302490234375|0.024169921875|141941.0241774167|-1.938299259336323|-1.567805061264639|-1.373724153057219|-0.1870551854372025|-0.2117263525724411|-1.383516788482666|-0.225573942065239|0.2389450669288635|-0.07463932037353516|XArbitraryZVertical|-0.7042455778078938|0.06119904247963281|-0.1980205939756657|0.6790292579062565|-0.1957983672618866|0.9806440472602844|-0.0005856866482645273|0|0|0|-1|-1|3
2021-04-22 22:25:20.519 +0100|141941.0640974167|-0.62005615234375|0.9124298095703125|0.236846923828125|141941.0441374167|-1.972219339698531|-1.605394806968174|-1.340877459788285|-0.4860882759094238|-0.2879727482795715|-1.89868700504303|-0.2328396141529083|0.07795077562332153|0.01682150363922119|XArbitraryZVertical|-0.7082005808979024|0.04892482016454142|-0.2073050214604766|0.6731145047230487|-0.2277630567550659|0.9736849069595337|0.007883401587605476|0|0|0|-1|-1|3
2021-04-22 22:25:20.539 +0100|141941.0840574167|-0.78094482421875|0.9843292236328125|0.1972503662109375|141941.0640974167|-1.992806140827757|-1.635436544165885|-1.299124781213635|-0.323866993188858|-0.6784066557884216|-2.128079414367676|-0.3087417781352997|-0.07559806108474731|0.157914400100708|XArbitraryZVertical|-0.7125090604194356|0.03158563736881604|-0.2174549221630858|0.6663682221881843|-0.2677818834781647|0.963323712348938|0.01733362674713135|0|0|0|-1|-1|3
2021-04-22 22:25:20.559 +0100|141941.1040164167|-0.526702880859375|0.7537689208984375|0.0033416748046875|141941.0840574167|-2.007613528769153|-1.661403967512868|-1.257415274119544|-0.3406255543231964|-0.333674430847168|-2.000656604766846|-0.456430971622467|0.04836750030517578|0.2131804227828979|XArbitraryZVertical|-0.7167687146063632|0.01377149075819006|-0.2268307592640557|0.6592427198343784|-0.3070128858089447|0.9512966871261597|0.02789408899843693|0|0|0|-1|-1|3
2021-04-22 22:25:20.579 +0100|141941.1239764167|-0.02667236328125|0.5946807861328125|-0.1619415283203125|141941.1040164167|-2.033981366611178|-1.684500530638366|-1.220410020774643|-0.8699281215667725|0.498999685049057|-1.611707806587219|-0.2901514172554016|-0.1087808012962341|0.04514586552977562|XArbitraryZVertical|-0.7207390012785346|0.002894577118025574|-0.2392065602639735|0.6506206643012258|-0.3410444557666779|0.9392401576042175|0.03894617408514023|0|0|0|-1|-1|3
2021-04-22 22:25:20.599 +0100|141941.1439364167|0.289459228515625|0.754852294921875|-0.042327880859375|141941.1239764167|-2.068191158272835|-1.702855079124273|-1.189085813763155|-0.5725792646408081|0.665406346321106|-1.350567221641541|0.2212995886802673|-0.3232471346855164|-0.1994094848632812|XArbitraryZVertical|-0.7242396094943072|-0.001432159845652953|-0.25366486193046|0.6411934517970652|-0.3692648708820343|0.9280288219451904|0.04905012622475624|0|0|0|-1|-1|3
2021-04-22 22:25:20.619 +0100|141941.1638964167|0.189422607421875|0.88397216796875|0.054840087890625|141941.1439364167|-2.073266442583927|-1.701251232629383|-1.164831369233591|-0.04125877842307091|-0.0887947753071785|-1.080383539199829|0.6362852454185486|-0.2238977551460266|-0.1301364898681641|XArbitraryZVertical|-0.7250042768289056|-0.007382942435892444|-0.2635536931523192|0.6362813233742626|-0.3915503621101379|0.9187217354774475|0.05137141793966293|0|0|0|-1|-1|3
2021-04-22 22:25:20.639 +0100|141941.1838564167|-0.188720703125|1.080291748046875|0.2086181640625|141941.1638964167|-2.0519943976369|-1.692105907044008|-1.14442201154762|0.6749078631401062|-0.8983857035636902|-1.01935613155365|0.6630504131317139|-0.05579620599746704|-0.03548967838287354|XArbitraryZVertical|-0.724331290387464|-0.0191801924891615|-0.2665587294200021|0.6355493140604673|-0.4105335772037506|0.9104712009429932|0.05004739761352539|0|0|0|-1|-1|3
2021-04-22 22:25:20.659 +0100|141941.2038164167|-0.36456298828125|1.147994995117188|0.1812286376953125|141941.1838564167|-2.001677447916209|-1.665090567732368|-1.128808634943638|1.229443073272705|-0.7750658392906189|-0.8113859295845032|0.3307587802410126|0.1226772665977478|0.1489670276641846|XArbitraryZVertical|-0.7203972765498119|-0.03412437175437776|-0.2652444435746537|0.6399287379918942|-0.4258370697498322|0.9039032459259033|0.04027341678738594|0|0|0|-1|-1|3
2021-04-22 22:25:20.679 +0100|141941.2237754167|-0.3505401611328125|1.015579223632812|0.1099853515625|141941.2038164167|-1.937499754529808|-1.616045028746785|-1.114686394147379|1.34856915473938|-0.1296259313821793|-0.776739776134491|0.08899453282356262|0.2640312314033508|0.1820884943008423|XArbitraryZVertical|-0.7126165527985672|-0.04625317071673645|-0.266718586036861|0.6472245546126777|-0.4400085210800171|0.8977727293968201|0.01992341503500938|0|0|0|-1|-1|3
2021-04-22 22:25:20.699 +0100|141941.2437354167|-0.3728790283203125|0.925567626953125|0.093597412109375|141941.2237754167|-1.884551475140477|-1.567874581598534|-1.100052245524402|0.8799172639846802|0.1311414241790771|-0.7553696036338806|0.09522485733032227|0.1580239534378052|0.1175217032432556|XArbitraryZVertical|-0.7045338859449396|-0.05449244134399549|-0.271333974890302|0.6534833717756662|-0.4535477757453918|0.8912310600280762|-0.001325154793448746|0|0|0|-1|-1|3
2021-04-22 22:25:20.719 +0100|141941.2636954167|-0.46466064453125|0.982879638671875|0.07928466796875|141941.2437354167|-1.860630014344569|-1.544060526651243|-1.085207987327374|0.3144152164459229|0.1152602508664131|-0.671079695224762|0.1066828072071075|0.05055093765258789|0.1125601530075073|XArbitraryZVertical|-0.7000859544259493|-0.06034247302825717|-0.276719271810103|0.6554883381269984|-0.4665621221065521|0.884400486946106|-0.01247688475996256|0|0|0|-1|-1|3
2021-04-22 22:25:20.739 +0100|141941.2836554167|-0.5477142333984375|1.05633544921875|0.0502471923828125|141941.2636954167|-1.855750679240432|-1.537838061539991|-1.073975976527668|-0.014733811840415|0.09397115558385849|-0.4425407946109772|0.03986531496047974|0.08435243368148804|0.1009273529052734|XArbitraryZVertical|-0.6986079854641285|-0.06398283758226146|-0.2809642940333598|0.6549140097008893|-0.4763742983341217|0.8791025280952454|-0.01570615917444229|0|0|0|-1|-1|3
2021-04-22 22:25:20.758 +0100|141941.3036154167|-0.5556488037109375|1.08551025390625|0.003662109375|141941.2836554167|-1.856513651877151|-1.535468000349246|-1.068070848873408|-0.01676215790212154|0.2414784729480743|-0.1465846002101898|-0.05203944444656372|0.1582273244857788|0.07466679811477661|XArbitraryZVertical|-0.6980415410628384|-0.06502997724590583|-0.2839664458579335|0.6541195972249374|-0.4815155267715454|0.8762726187705994|-0.01701821759343147|0|0|0|-1|-1|3
2021-04-22 22:25:20.778 +0100|141941.3235744167|-0.5073699951171875|1.111190795898438|-0.0484771728515625|141941.3036154167|-1.858743503901016|-1.530330210839403|-1.067383134038971|-0.1019756272435188|0.4657134413719177|0.08548422902822495|-0.08062997460365295|0.2120712995529175|0.03831595182418823|XArbitraryZVertical|-0.697349334504254|-0.06281537675653462|-0.2867116627318891|0.6538766429795601|-0.4820233881473541|0.8759410977363586|-0.01951626874506474|0|0|0|-1|-1|3
2021-04-22 22:25:20.799 +0100|141941.3435344167|-0.4521636962890625|1.066375732421875|-0.069091796875|141941.3235744167|-1.864307250793593|-1.524939225383443|-1.071592791635444|-0.2206501811742783|0.543182909488678|0.2984102368354797|-0.04063725471496582|0.2250476479530334|-0.01798605918884277|XArbitraryZVertical|-0.6969268966411523|-0.0576215062606721|-0.2890402417855205|0.6537801896298912|-0.478223443031311|0.8779641389846802|-0.02194532565772533|0|0|0|-1|-1|3
2021-04-22 22:25:20.818 +0100|141941.3634944167|-0.389862060546875|0.979248046875|-0.0701141357421875|141941.3435344167|-1.873239845113203|-1.522451455975092|-1.079297801442426|-0.2259767353534698|0.4804966449737549|0.4741641283035278|0.004171580076217651|0.2002671360969543|-0.04959475994110107|XArbitraryZVertical|-0.6971365350058522|-0.05096040447474059|-0.2903211833341251|0.6535422743469511|-0.4713965654373169|0.8816266059875488|-0.02280737832188606|0|0|0|-1|-1|3
2021-04-22 22:25:20.838 +0100|141941.3834544167|-0.28753662109375|0.753173828125|-0.10528564453125|141941.3634944167|-1.881200585933443|-1.520652834600259|-1.090991720363418|-0.2017590552568436|0.4092347025871277|0.6542751789093018|0.0544852614402771|0.1250606179237366|-0.04209363460540771|XArbitraryZVertical|-0.6975273888777782|-0.04344096872070551|-0.2897462332499431|0.6539233176967826|-0.4610259830951691|0.8870851397514343|-0.02313684858381748|0|0|0|-1|-1|3
2021-04-22 22:25:20.858 +0100|141941.4034144167|-0.1914215087890625|0.5926361083984375|-0.1240234375|141941.3834544167|-1.885577335164693|-1.517320612441501|-1.105050282781177|-0.08583772927522659|0.3040133416652679|0.7447035312652588|0.1328039765357971|-0.08295530080795288|-0.08088409900665283|XArbitraryZVertical|-0.6976494881009553|-0.03582185718909313|-0.2877606933784277|0.6551305736371278|-0.4484481811523438|0.8934867978096008|-0.02400397323071957|0|0|0|-1|-1|3
2021-04-22 22:25:20.878 +0100|141941.4233744167|-0.1580352783203125|0.5366058349609375|-0.1613922119140625|141941.4034144167|-1.887914264649902|-1.515090656113171|-1.120774247958892|-0.1005673483014107|0.1189395040273666|0.8070733547210693|0.2237542271614075|-0.2766126990318298|-0.09142684936523438|XArbitraryZVertical|-0.6979028879235106|-0.02867464127628824|-0.284169455187827|0.6567779191360511|-0.4343111217021942|0.9004374742507935|-0.02421864867210388|0|0|0|-1|-1|3
2021-04-22 22:25:20.898 +0100|141941.4433344167|-0.20257568359375|0.566558837890625|-0.125030517578125|141941.4233744167|-1.88812115660039|-1.515646935052281|-1.137347198174844|0.0009323328267782927|-0.1668200194835663|0.8560383319854736|0.2624889016151428|-0.3684449195861816|-0.1361954808235168|XArbitraryZVertical|-0.6984990487076669|-0.02287942661526731|-0.2786129555093865|0.6587492966578471|-0.4193653762340546|0.9075224995613098|-0.02315122075378895|0|0|0|-1|-1|3
2021-04-22 22:25:20.918 +0100|141941.4632934167|-0.302154541015625|0.58056640625|-0.1226959228515625|141941.4433344167|-1.888718274713117|-1.521999628013468|-1.154913378899902|-0.1976184248924255|-0.3931189179420471|0.8838347792625427|0.2195869088172913|-0.3550830483436584|-0.1138991713523865|XArbitraryZVertical|-0.6998603275207096|-0.01850801678335693|-0.2708118938440442|0.6606920794885764|-0.4035172164440155|0.9147599935531616|-0.01970595121383667|0|0|0|-1|-1|3
2021-04-22 22:25:20.938 +0100|141941.4832534167|-0.3900299072265625|0.7033538818359375|-0.1202850341796875|141941.4632934167|-1.899773077720077|-1.541156658508378|-1.17239137191732|-0.3186516761779785|-0.4845100343227386|0.8545386791229248|0.1080997586250305|-0.3580366373062134|-0.1228252649307251|XArbitraryZVertical|-0.7028755635639669|-0.01474578069640429|-0.2619814887760524|0.6611463345995826|-0.3877789974212646|0.9216809868812561|-0.01149700861424208|0|0|0|-1|-1|3
2021-04-22 22:25:20.958 +0100|141941.5032134167|-0.4758758544921875|0.8457183837890625|-0.0475006103515625|141941.4832534167|-1.922254371936863|-1.571735300482064|-1.189205044745915|-0.5459612607955933|-0.5087265968322754|0.798637866973877|0.002340883016586304|-0.2615848183631897|-0.1261727809906006|XArbitraryZVertical|-0.7071454175737489|-0.01096331861689441|-0.2530761893049461|0.6601346113276421|-0.3723978698253632|0.9280732274055481|0.0003496719000395387|0|0|0|-1|-1|3
2021-04-22 22:25:20.978 +0100|141941.5231734167|-0.5673980712890625|1.014190673828125|-0.024261474609375|141941.5032134167|-1.960123629332649|-1.617566761311899|-1.203442784414135|-0.8570743799209595|-0.5310880541801453|0.6707352995872498|-0.09412726759910583|-0.1274036169052124|-0.09787571430206299|XArbitraryZVertical|-0.712978215549159|-0.007598520262954099|-0.24458562841173|0.6571014631233345|-0.3587544560432434|0.9332810640335083|0.01679134741425514|0|0|0|-1|-1|3
2021-04-22 22:25:20.998 +0100|141941.5431334167|-0.5426483154296875|1.222213745117188|0.0977020263671875|141941.5231734167|-2.02022115805803|-1.682461725800602|-1.213660918021496|-0.9932184815406799|-0.3259577751159668|0.4925188422203064|-0.2040687501430511|0.03387719392776489|-0.0605924092233181|XArbitraryZVertical|-0.7207386954381171|-0.003727102983150786|-0.2376458878097734|0.6511885454358406|-0.3474152684211731|0.9369021058082581|0.03895631805062294|0|0|0|-1|-1|3
2021-04-22 22:25:21.018 +0100|141941.5630924167|-0.534698486328125|1.405624389648438|0.14501953125|141941.5431334167|-2.072783338837356|-1.736231478885491|-1.219240129037697|-0.7092046141624451|-0.1621520817279816|0.3371002078056335|-0.2181429266929626|0.2361802458763123|0.012138731777668|XArbitraryZVertical|-0.7268801861512834|-0.0002299634809971739|-0.2334368028275067|0.6458735157244897|-0.3396582305431366|0.9388379454612732|0.05670971423387527|0|0|0|-1|-1|3
2021-04-22 22:25:21.038 +0100|141941.5830524167|-0.577789306640625|1.377944946289062|0.1598663330078125|141941.5630924167|-2.101610500857003|-1.767385220274008|-1.224060598652339|-0.1512004286050797|-0.2587378621101379|0.3113383054733276|-0.1938161551952362|0.4275699853897095|0.0654594823718071|XArbitraryZVertical|-0.7301953175962094|0.001856511267918559|-0.2298517070966741|0.6434124888136444|-0.3332842886447906|0.9404870271682739|0.06637729704380035|0|0|0|-1|-1|3
2021-04-22 22:25:21.058 +0100|141941.6030124167|-0.52508544921875|1.1768798828125|0.1459503173828125|141941.5830524167|-2.099507550387699|-1.770466749564457|-1.229995546623572|0.3343598246574402|-0.2022764831781387|0.2506898641586304|-0.2442070245742798|0.4725667834281921|0.09178614616394043|XArbitraryZVertical|-0.730166773093745|0.002087529416200337|-0.2261767717560722|0.6447451779529613|-0.3276016712188721|0.9424872994422913|0.06629575043916702|0|0|0|-1|-1|3
2021-04-22 22:25:21.078 +0100|141941.6229724167|-0.403411865234375|1.037551879882812|0.1195220947265625|141941.6030124167|-2.079457348679816|-1.753406145672231|-1.236266437036345|0.3617845177650452|0.02515645511448383|0.2413395047187805|-0.2257182002067566|0.2839353680610657|0.08898341655731201|XArbitraryZVertical|-0.7278774860686887|0.002403394766661715|-0.223926362647505|0.6481093413270373|-0.3228665888309479|0.9445647597312927|0.05962282046675682|0|0|0|-1|-1|3
2021-04-22 22:25:21.098 +0100|141941.6429324167|-0.329132080078125|0.9897918701171875|0.13519287109375|141941.6229724167|-2.066014076508486|-1.738440980202873|-1.241818801884682|0.1619767695665359|0.1585586071014404|0.2391162216663361|-0.1166500747203827|0.1139751076698303|0.06833040714263916|XArbitraryZVertical|-0.7259037152023168|0.004255158017020345|-0.2232272874755263|0.6505500800789283|-0.3185466527938843|0.9463731646537781|0.05390862002968788|0|0|0|-1|-1|3
2021-04-22 22:25:21.118 +0100|141941.6628924167|-0.3184661865234375|0.9351043701171875|0.183013916015625|141941.6429324167|-2.063492052888052|-1.73344027668427|-1.246892921381078|0.04735720530152321|0.08468610048294067|0.2476343512535095|-0.0258210301399231|0.05320489406585693|0.07859110832214355|XArbitraryZVertical|-0.7250679865198587|0.006690983767465714|-0.2225929390754207|0.65167790809377|-0.3140693008899689|0.9480003118515015|0.05153670907020569|0|0|0|-1|-1|3
2021-04-22 22:25:21.138 +0100|141941.6828514167|-0.2888641357421875|0.8508758544921875|0.1835479736328125|141941.6628924167|-2.064791350180728|-1.733531506950541|-1.252352325507668|-0.002317589009180665|0.06015662476420403|0.299097865819931|-0.009452670812606812|0.00349271297454834|0.1264903545379639|XArbitraryZVertical|-0.7247636306131097|0.00898657884688985|-0.2212307205005312|0.6524523854143507|-0.3089533448219299|0.9497237205505371|0.05072615668177605|0|0|0|-1|-1|3
2021-04-22 22:25:21.158 +0100|141941.7028114167|-0.23095703125|0.80401611328125|0.1667938232421875|141941.6828514167|-2.067220180578907|-1.733912536038976|-1.258342178879108|0.01862652599811554|0.129586786031723|0.3020831048488617|0.0023651123046875|-0.08019858598709106|0.1335077285766602|XArbitraryZVertical|-0.724445217501359|0.01177648902193646|-0.2199611582890188|0.6531903866223476|-0.3033150434494019|0.9515820145606995|0.04991911724209785|0|0|0|-1|-1|3
2021-04-22 22:25:21.178 +0100|141941.7227714167|-0.1732940673828125|0.8029022216796875|0.1505889892578125|141941.7028114167|-2.069201187793448|-1.732735403356082|-1.264530843150344|0.02232720330357552|0.1716384738683701|0.3160861730575562|0.05187296867370605|-0.1456661224365234|0.1268196105957031|XArbitraryZVertical|-0.7239346469143892|0.01498002824541789|-0.2190455719892582|0.6539979534920769|-0.297555536031723|0.9534661769866943|0.04861154779791832|0|0|0|-1|-1|3
2021-04-22 22:25:21.198 +0100|141941.7427314167|-0.0926666259765625|0.79547119140625|0.1737518310546875|141941.7227714167|-2.072737060744971|-1.732320559686892|-1.270364432637565|-0.1185173764824867|0.2129633128643036|0.2801630795001984|0.101925402879715|-0.154000461101532|0.0999605655670166|XArbitraryZVertical|-0.723504486500416|0.01837578056409641|-0.2184768743604731|0.654577420076968|-0.2920812666416168|0.9552087783813477|0.04759282246232033|0|0|0|-1|-1|3
2021-04-22 22:25:21.218 +0100|141941.7626914167|0.0619964599609375|0.9329986572265625|0.132965087890625|141941.7427314167|-2.095041051380049|-1.748652431093281|-1.274957623131761|-0.5239258408546448|0.2965864539146423|0.2873623967170715|0.1664897799491882|-0.1687468886375427|0.09775888919830322|XArbitraryZVertical|-0.7247593060542826|0.02266679050009015|-0.2183829388406711|0.6530843224079236|-0.2869434952735901|0.9565579891204834|0.05157966911792755|0|0|0|-1|-1|3
2021-04-22 22:25:21.237 +0100|141941.7826514167|0.34857177734375|1.26611328125|-0.2047882080078125|141941.7626914167|-2.143263357700778|-1.78603468488889|-1.278046545040413|-0.5625405311584473|0.5925300717353821|0.2726022005081177|0.2979787588119507|-0.08550596237182617|0.1246895715594292|XArbitraryZVertical|-0.7279933962430037|0.02904810678998604|-0.219522889111439|0.6488386458819155|-0.2819273471832275|0.9574539661407471|0.06163635477423668|0|0|0|-1|-1|3
2021-04-22 22:25:21.258 +0100|141941.8026114167|0.7931976318359375|1.381118774414062|-0.606842041015625|141941.7826514167|-2.166207597828511|-1.794835252652943|-1.281830105956562|-0.05249037966132164|0.6932744979858398|0.2287593632936478|0.5399702787399292|0.2266567945480347|-0.1560671329498291|XArbitraryZVertical|-0.7282671698345939|0.03580316245163651|-0.222569899684692|0.6471536829937727|-0.2778404057025909|0.9585389494895935|0.06330987066030502|0|0|0|-1|-1|3
2021-04-22 22:25:21.278 +0100|141941.8225704167|1.139541625976562|1.443695068359375|-0.68499755859375|141941.8026114167|-2.165135205180457|-1.781662767974904|-1.285160973289815|0.2172190994024277|0.5228607654571533|0.1513892114162445|0.9468974471092224|0.4284566044807434|-0.6063385009765625|XArbitraryZVertical|-0.7265157228937322|0.04077932957157729|-0.2259745990049649|0.6476478138411819|-0.2755269110202789|0.9594828486442566|0.05897609889507294|0|0|0|-1|-1|3
2021-04-22 22:25:21.297 +0100|141941.8425304167|1.029983520507812|1.649871826171875|-0.8176116943359375|141941.8225704167|-2.125811513490258|-1.735336774328112|-1.295445626517701|0.9418566226959229|0.2107064425945282|0.748956561088562|1.348854780197144|0.428493320941925|-0.6853418350219727|XArbitraryZVertical|-0.7212751284334674|0.04504937550044917|-0.2267112406935991|0.6529432875918085|-0.2682129740715027|0.9623299241065979|0.04453451558947563|0|0|0|-1|-1|3
2021-04-22 22:25:21.317 +0100|141941.8624904167|0.739837646484375|1.589645385742188|-0.916046142578125|141941.8425304167|-2.023524542509996|-1.639076201008438|-1.321794715525118|2.10509991645813|-0.332326740026474|1.485464692115784|1.359051823616028|0.6326628923416138|-0.825742244720459|XArbitraryZVertical|-0.7113273202033428|0.04919615113579291|-0.2188876972037774|0.6660942527558171|-0.2458630502223969|0.969158947467804|0.01681363582611084|0|0|0|-1|-1|3
2021-04-22 22:25:21.337 +0100|141941.8824504167|0.8065338134765625|1.371337890625|-0.7322540283203125|141941.8624904167|-1.806953220914255|-1.431166445031543|-1.353797678142463|2.721176624298096|0.1589552611112595|1.825348734855652|1.002907872200012|0.6810905933380127|-0.8511683344841003|XArbitraryZVertical|-0.6942709158287078|0.05482221975124436|-0.2077851086501523|0.6868828386068528|-0.2132054269313812|0.9765480160713196|-0.02996484003961086|0|0|0|-1|-1|3
2021-04-22 22:25:21.357 +0100|141941.9024104167|0.9720458984375|1.384719848632812|-0.7003631591796875|141941.8824504167|-1.489263830244858|-1.109809987442971|-1.372071288381709|2.897513151168823|0.832499086856842|1.843835115432739|0.9337387084960938|0.4106873273849487|-0.7466074228286743|XArbitraryZVertical|-0.6721982742491737|0.06511641776520211|-0.2002756122523149|0.7097880585681737|-0.1768121272325516|0.980319082736969|-0.08781866729259491|0|0|0|-1|-1|3
2021-04-22 22:25:21.377 +0100|141941.9223704167|0.708740234375|1.273712158203125|-0.767425537109375|141941.9024104167|-1.161946999906251|-0.7714040285892989|-1.371688731577706|2.378761053085327|0.8309873342514038|1.96458101272583|1.107128500938416|0.4139978885650635|-0.605981171131134|XArbitraryZVertical|-0.6503124354958438|0.07868288500254667|-0.1943623342401289|0.730154807751114|-0.1378911137580872|0.9802435040473938|-0.1418054848909378|0|0|0|-1|-1|3
2021-04-22 22:25:21.397 +0100|141941.9423294167|0.2574005126953125|1.068756103515625|-0.6253204345703125|141941.9223704167|-0.901700374097005|-0.5017931702646991|-1.366216435627091|1.374742388725281|0.6039793491363525|1.901467800140381|0.9050137400627136|0.3809153437614441|-0.5079228281974792|XArbitraryZVertical|-0.6342524289324756|0.09310257250756478|-0.1863255941365445|0.7445392332152962|-0.09771788865327835|0.979146420955658|-0.1781115382909775|0|0|0|-1|-1|3
2021-04-22 22:25:21.417 +0100|141941.9622894167|0.0721435546875|1.07342529296875|-0.774200439453125|141941.9423294167|-0.6989545804139813|-0.2900489817450367|-1.350862809239133|1.261607527732849|0.9167930483818054|1.439702391624451|0.4013223052024841|0.09700995683670044|-0.4222337007522583|XArbitraryZVertical|-0.6198917771085415|0.105868459076191|-0.1795269038821047|0.7565026000457742|-0.06239497289061546|0.9759119749069214|-0.209052100777626|0|0|0|-1|-1|3
2021-04-22 22:25:21.437 +0100|141941.9822494167|0.136199951171875|1.13543701171875|-0.5070648193359375|141941.9622894167|-0.5703067597108863|-0.1401255300288401|-1.339146038566709|0.6137931942939758|1.621334552764893|1.079433917999268|0.1291715055704117|0.07054990530014038|-0.5588130950927734|XArbitraryZVertical|-0.6095679605447739|0.1214897913003863|-0.1783316392561286|0.7628008307593139|-0.03206548094749451|0.9732888340950012|-0.2273342609405518|0|0|0|-1|-1|3
2021-04-22 22:25:21.457 +0100|141942.002208625|0.04736328125|0.9940032958984375|-0.46051025390625|141941.9822494167|-0.4985377675794297|-0.03311792588666224|-1.333460658866875|0.2924178540706635|1.989488005638123|0.552142322063446|0.1219046264886856|0.1876393556594849|-0.3538963198661804|XArbitraryZVertical|-0.6024340560156509|0.1399302557677714|-0.1839150739052519|0.7639817747522887|-0.007785077672451735|0.9719678163528442|-0.2349854707717896|0|0|0|-1|-1|3
2021-04-22 22:25:21.477 +0100|141942.022168625|-0.3785247802734375|0.8291015625|-0.3699188232421875|141942.002208625|-0.469421941650485|0.03400131272903213|-1.321033464373681|0.8641462922096252|1.818718194961548|0.226457953453064|0.09975071251392365|0.0509723424911499|-0.1551285684108734|XArbitraryZVertical|-0.5934948532717448|0.1557181597791683|-0.193765686750531|0.7654871696828671|0.008402630686759949|0.9689710736274719|-0.2470314204692841|0|0|0|-1|-1|3
2021-04-22 22:25:21.497 +0100|141942.042128625|-0.8615264892578125|0.794586181640625|-0.14581298828125|141942.022168625|-0.4723449609869252|0.0643774528668624|-1.297588291251692|1.534436583518982|1.622255086898804|-0.2256938070058823|-0.2795512080192566|-0.09807240962982178|-0.1462788879871368|XArbitraryZVertical|-0.5811484884103287|0.1662374942214161|-0.2052502598149205|0.7697427547954486|0.01735845766961575|0.9629102349281311|-0.2692630589008331|0|0|0|-1|-1|3
2021-04-22 22:25:21.517 +0100|141942.062087625|-1.853973388671875|0.4375|0.2751617431640625|141942.042128625|-0.5191686369757564|0.05696098086079841|-1.263440372573284|1.857053995132446|2.166968822479248|-0.9790853261947632|-0.7563604116439819|-0.1473962068557739|0.04522901773452759|XArbitraryZVertical|-0.5646187712164977|0.1737270674151175|-0.2233120879358755|0.7753427315911238|0.01722364500164986|0.9531368017196655|-0.3020491003990173|0|0|0|-1|-1|3
2021-04-22 22:25:21.537 +0100|141942.082047625|-3.1568603515625|0.4771728515625|1.067398071289062|141942.062087625|-0.6219177549211192|0.02446849820558888|-1.234261732914902|1.379836201667786|4.573292255401611|-2.325014114379883|-1.520439743995667|-0.3723406791687012|0.4792289733886719|XArbitraryZVertical|-0.547849538829992|0.1865504812180749|-0.2562542746392039|0.7742052279146993|0.008079143241047859|0.94390469789505|-0.3301196098327637|0|0|0|-1|-1|3
2021-04-22 22:25:21.557 +0100|141942.102007625|-5.597900390625|1.398849487304688|0.9881439208984375|141942.082047625|-0.8254125324282515|-0.06341998541130782|-1.229474894124498|-1.344251036643982|5.026531219482422|-4.468410015106201|-2.810237884521484|-0.5434634685516357|1.304839730262756|XArbitraryZVertical|-0.5384425761717279|0.2074840479442413|-0.3107453064101975|0.7552929594478938|-0.02121452614665031|0.9423131346702576|-0.3340599238872528|0|0|0|-1|-1|3
2021-04-22 22:25:21.577 +0100|141942.121967625|-3.507843017578125|0.377410888671875|0.81976318359375|141942.102007625|-1.139655180187511|-0.2964578946628368|-1.272441271823366|-4.642207145690918|3.25939154624939|-3.744094610214233|-4.88617467880249|0.2939346432685852|0.9827557802200317|XArbitraryZVertical|-0.5588793154968077|0.2170046065697448|-0.35529167599614|0.717168651570978|-0.08587253838777542|0.9558213353157043|-0.2811258137226105|0|0|0|-1|-1|3
2021-04-22 22:25:21.597 +0100|141942.141927625|-1.12060546875|-1.771087646484375|0.1962127685546875|141942.121967625|-1.67660422252076|-0.7009688993848602|-1.370814213542201|-10.30402660369873|4.722132205963135|-2.921164751052856|-4.574926853179932|-0.07777202129364014|1.76463770866394|XArbitraryZVertical|-0.5951944940172175|0.2642659226505706|-0.39526377516308|0.647822389585675|-0.1281228810548782|0.9800701141357422|-0.1518140733242035|0|0|0|-1|-1|3
2021-04-22 22:25:21.617 +0100|141942.161887625|-3.197357177734375|1.794723510742188|0.2138214111328125|141942.141927625|-2.848999638846232|-1.853443362164658|-1.42319316080744|-10.32289886474609|-1.665637969970703|1.096501588821411|-0.3311648666858673|-2.92629075050354|-0.5281691551208496|XArbitraryZVertical|-0.6562886652167931|0.2996561654482204|-0.3737570216281261|0.5829212544505238|-0.1412331014871597|0.989126443862915|0.04101726040244102|0|0|0|-1|-1|3
2021-04-22 22:25:21.637 +0100|141942.181847625|-2.786895751953125|0.937103271484375|0.1124725341796875|141942.161887625|2.543535666224208|-2.776659294664222|-1.301871553106384|-8.310788154602051|-3.495751857757568|1.913611769676208|-3.226665258407593|0.1360557675361633|0.2604377269744873|XArbitraryZVertical|-0.7152041321867948|0.3355331681133576|-0.3134846333150175|0.5269042204842957|-0.09482332319021225|0.9640571475028992|0.2481989115476608|0|0|0|-1|-1|3
2021-04-22 22:25:21.657 +0100|141942.201806625|-1.541702270507812|0.5491943359375|0.3272857666015625|141942.181847625|2.374898457002564|-3.031351206447518|-1.206159761454902|-3.127830266952515|-5.704913139343262|0.9209569692611694|-2.904798269271851|0.5538750886917114|-0.3742964863777161|XArbitraryZVertical|-0.7509671279379039|0.3365574735371443|-0.2538996368533913|0.5082444744877773|-0.03923361003398895|0.934253454208374|0.3544451296329498|0|0|0|-1|-1|3
2021-04-22 22:25:21.676 +0100|141942.221766625|-0.448394775390625|0.9124603271484375|0.3524322509765625|141942.201806625|2.332648050210736|3.088963890938411|-1.169583910612671|-0.6769419312477112|-6.484814167022705|0.4939050078392029|-1.844901084899902|-0.5119883418083191|-0.08913639187812805|XArbitraryZVertical|-0.7719961992567208|0.3146729480563914|-0.1969967582038588|0.5159410626013691|0.02054389379918575|0.9205881953239441|0.3899943828582764|0|0|0|-1|-1|3
2021-04-22 22:25:21.696 +0100|141942.241726625|0.1643829345703125|1.012847900390625|0.21881103515625|141942.221766625|2.320586790327493|2.947275892918988|-1.177115501248818|1.306281566619873|-6.415379524230957|-0.2215276509523392|-0.7708786725997925|-0.0813862681388855|-0.06565564870834351|XArbitraryZVertical|-0.7805359669163606|0.2809786804104109|-0.1465234734115304|0.5388370821307186|0.0740697830915451|0.9235033988952637|0.3763708174228668|0|0|0|-1|-1|3
2021-04-22 22:25:21.716 +0100|141942.261686625|0.302825927734375|1.079849243164062|0.05340576171875|141942.241726625|2.330073587604911|2.837145343607799|-1.2215055505905|2.926416158676147|-5.362112045288086|-1.246542453765869|-0.06909741461277008|0.05673754215240479|-0.1731727123260498|XArbitraryZVertical|-0.7783196913972887|0.2397193212070668|-0.1096096954592679|0.5698587316229238|0.102589525282383|0.9396156668663025|0.3264937996864319|0|0|0|-1|-1|3
2021-04-22 22:25:21.736 +0100|141942.281646625|0.4184112548828125|1.130294799804688|-0.4185791015625|141942.261686625|2.362837695387134|2.77650229716961|-1.291431381708314|3.079259157180786|-3.93517804145813|-1.976094961166382|0.1770153194665909|0.1281401515007019|-0.1473877131938934|XArbitraryZVertical|-0.768078215174562|0.1970837470707444|-0.09051177230924461|0.6025128227503221|0.09845072776079178|0.9612307548522949|0.2575722932815552|0|0|0|-1|-1|3
2021-04-22 22:25:21.756 +0100|141942.301606625|0.691864013671875|1.235458374023438|-0.4581756591796875|141942.281646625|2.483829171974931|2.826516196971124|-1.344141794047252|0.7216988801956177|-2.733417987823486|-2.635709285736084|0.2966329753398895|0.1476466655731201|-0.5324124097824097|XArbitraryZVertical|-0.7629713648158197|0.1571728244443789|-0.08241289255410304|0.6215944305187339|0.06963814795017242|0.9744236469268799|0.2136572003364563|0|0|0|-1|-1|3
2021-04-22 22:25:21.776 +0100|141942.321565625|0.7928314208984375|1.348312377929688|-0.4524078369140625|141942.301606625|2.751878526290772|3.048474746758037|-1.350642197156829|-1.152708411216736|-1.316571235656738|-3.283121585845947|0.6108579635620117|0.2082487344741821|-0.6589163541793823|XArbitraryZVertical|-0.7705395890148066|0.1224178177097215|-0.08527495872340361|0.619686169923368|0.02030579373240471|0.9758638143539429|0.2174347639083862|0|0|0|-1|-1|3
2021-04-22 22:25:21.796 +0100|141942.341525625|0.71466064453125|1.361068725585938|-0.7369842529296875|141942.321565625|3.035013581143092|-2.977183876534826|-1.320280713740256|-1.274995803833008|-0.5905390381813049|-3.343671560287476|0.8474735021591187|0.3626666069030762|-0.7436908483505249|XArbitraryZVertical|-0.7834394694370357|0.09221357389968085|-0.0973215114259946|0.6068343736374316|-0.04057429358363152|0.9687847495079041|0.244561493396759|0|0|0|-1|-1|3
2021-04-22 22:25:21.816 +0100|141942.361485625|0.610748291015625|1.27716064453125|-0.691925048828125|141942.341525625|-3.017367553266596|-2.765706276373549|-1.286902252250203|-0.04214755818247795|-0.3775352239608765|-3.327960252761841|0.8344806432723999|0.4105111360549927|-0.9111591577529907|XArbitraryZVertical|-0.7913844967116667|0.06309410852924406|-0.1126030519231199|0.5975368676550206|-0.1028225049376488|0.9599720239639282|0.2605405747890472|0|0|0|-1|-1|3
2021-04-22 22:25:21.836 +0100|141942.381445625|0.492462158203125|0.89129638671875|-0.559600830078125|141942.361485625|-2.813523277674829|-2.57309712223084|-1.268684302352302|0.8459862470626831|0.02802276238799095|-2.664202690124512|0.7936667203903198|0.3840345144271851|-0.9600420594215393|XArbitraryZVertical|-0.7899029462236986|0.03771453613449886|-0.1299519894513547|0.5981165531124015|-0.1601835489273071|0.9547101855278015|0.250738114118576|0|0|0|-1|-1|3
2021-04-22 22:25:21.856 +0100|141942.401405625|0.3642578125|0.7420196533203125|-0.501922607421875|141942.381445625|-2.646667158016065|-2.410308619137227|-1.255336737015064|1.004730820655823|0.2810164093971252|-2.32155179977417|0.7289543151855469|0.02612215280532837|-0.8610234260559082|XArbitraryZVertical|-0.7842987214238463|0.01842518494217941|-0.1462470577999368|0.6026177309902089|-0.2071960717439651|0.9506539106369019|0.2309279441833496|0|0|0|-1|-1|3
2021-04-22 22:25:21.876 +0100|141942.421365625|0.154449462890625|0.982574462890625|-0.423675537109375|141942.401405625|-2.524269788268513|-2.289294260396085|-1.229838135022904|0.1738141179084778|0.2122131139039993|-2.244204521179199|0.6631193161010742|-0.1869723200798035|-0.6548515558242798|XArbitraryZVertical|-0.781060542204203|0.001254401896318742|-0.1621133807829879|0.6030441474358365|-0.251727819442749|0.9424346685409546|0.2201142907142639|0|0|0|-1|-1|3
2021-04-22 22:25:21.896 +0100|141942.441324625|0.04193115234375|1.028030395507812|-0.04302978515625|141942.421365625|-2.452592578726687|-2.216973534727741|-1.197244929272208|-0.5211301445960999|0.2558487355709076|-1.893106937408447|0.5030523538589478|-0.009620308876037598|-0.6845017671585083|XArbitraryZVertical|-0.7808295289191328|-0.0131465256046312|-0.1764783182541454|0.5991559921298454|-0.2913525998592377|0.9310372471809387|0.21973517537117|0|0|0|-1|-1|3
2021-04-22 22:25:21.916 +0100|141942.461284625|-0.022705078125|1.031951904296875|0.17449951171875|141942.441324625|-2.391787155369809|-2.158222946210024|-1.171516280582823|0.5885195136070251|-0.1234791427850723|-1.498388290405273|0.3741400241851807|0.0588984489440918|-0.3800063133239746|XArbitraryZVertical|-0.7791315555418632|-0.02612008010738322|-0.1876269748813497|0.5975517068242571|-0.3235884010791779|0.9213411211967468|0.215456485748291|0|0|0|-1|-1|3
2021-04-22 22:25:21.936 +0100|141942.481244625|-0.0333709716796875|0.930328369140625|0.0911712646484375|141942.461284625|-2.364520240020494|-2.139153867248777|-1.143838168678765|-0.9649067521095276|-0.4202529788017273|-1.531684756278992|0.3452012836933136|0.1779201030731201|-0.07889294624328613|XArbitraryZVertical|-0.7809924044475079|-0.03868342351821221|-0.1940947105369454|0.5923528116670778|-0.3490014672279358|0.9102296233177185|0.222891092300415|0|0|0|-1|-1|3
2021-04-22 22:25:21.956 +0100|141942.501204625|-0.1244354248046875|1.012786865234375|0.0783843994140625|141942.481244625|-2.373433653301551|-2.154045117169445|-1.10103625480549|-1.972920656204224|-0.2128455638885498|-1.810530185699463|0.346035897731781|0.02632206678390503|-0.0914054811000824|XArbitraryZVertical|-0.7886811514636828|-0.05132474543306387|-0.2018939752277722|0.5784347925082126|-0.3778359889984131|0.8916769027709961|0.2493043690919876|0|0|0|-1|-1|3
2021-04-22 22:25:21.976 +0100|141942.521164625|-0.2599945068359375|1.657241821289062|-0.0703277587890625|141942.501204625|-2.409069938215589|-2.192159564692771|-1.046465693841764|-2.092222929000854|-0.4173668026924133|-1.854098200798035|0.3116752207279205|0.09340113401412964|-0.2939581573009491|XArbitraryZVertical|-0.801120648649371|-0.06266109851394309|-0.2105089323964714|0.5567455330338523|-0.4070586860179901|0.865659236907959|0.291441410779953|0|0|0|-1|-1|3
2021-04-22 22:25:21.996 +0100|141942.541124625|-0.3278961181640625|2.266830444335938|-0.2668609619140625|141942.521164625|-2.420264248834152|-2.212600372245396|-0.9921562687516744|-1.441124558448792|-0.7400358319282532|-2.194113492965698|0.2237397432327271|0.6159175038337708|-0.2911178767681122|XArbitraryZVertical|-0.8109351413594654|-0.07796586014180709|-0.2184507302519908|0.5372011340146782|-0.4380654394626617|0.8372071385383606|0.3273889720439911|0|0|0|-1|-1|3
2021-04-22 22:25:22.016 +0100|141942.561084625|-0.0262603759765625|2.21484375|-0.733001708984375|141942.541124625|-2.386076246169597|-2.200695552008261|-0.9470256709636871|0.3708462715148926|-0.7321568131446838|-2.48663330078125|0.1249876022338867|1.358559846878052|-0.5541540384292603|XArbitraryZVertical|-0.8135987898366089|-0.100463738647644|-0.2250452103592583|0.5266106400015053|-0.4720035791397095|0.8116818070411682|0.3440718948841095|0|0|0|-1|-1|3
2021-04-22 22:25:22.036 +0100|141942.581043625|0.242401123046875|2.421707153320312|-0.9694061279296875|141942.561084625|-2.298305661444187|-2.146973509273236|-0.9230254035764878|2.330291032791138|-1.15634298324585|-2.346877574920654|0.3603910207748413|1.465553879737854|-1.012481808662415|XArbitraryZVertical|-0.8049436605441161|-0.1282244778765955|-0.2295719464256077|0.5319032588980085|-0.5059909820556641|0.7974308133125305|0.3287516236305237|0|0|0|-1|-1|3
2021-04-22 22:25:22.056 +0100|141942.601003625|-0.030059814453125|3.221405029296875|-1.027969360351562|141942.581043625|-2.190495725522714|-2.094277240356632|-0.9180037312989102|3.012898921966553|-2.302494049072266|-1.427112221717834|0.7737768292427063|1.499172687530518|-1.18172299861908|XArbitraryZVertical|-0.7916486265073988|-0.1584718978096042|-0.2228917267045425|0.5463502219675689|-0.5260661840438843|0.7943906784057617|0.3036417663097382|0|0|0|-1|-1|3
2021-04-22 22:25:22.076 +0100|141942.620963625|-0.0386962890625|3.767990112304688|-1.107330322265625|141942.601003625|-2.087450867321618|-2.066145252486096|-0.9284630778800272|2.966793537139893|-2.910643577575684|-0.8276522755622864|0.5791373252868652|2.232883930206299|-1.288618326187134|XArbitraryZVertical|-0.7791015284163267|-0.188096502212513|-0.2023912532741034|0.5627240557658911|-0.5270594954490662|0.8007001876831055|0.284758985042572|0|0|0|-1|-1|3
2021-04-22 22:25:22.096 +0100|141942.640923625|0.163543701171875|4.311737060546875|-1.516159057617188|141942.620963625|-1.987235071309558|-2.042621007535922|-0.9480237510334369|3.371407747268677|-2.776154756546021|-0.1297683417797089|0.4351934790611267|2.835547208786011|-1.319600582122803|XArbitraryZVertical|-0.7659293651744876|-0.2142625177326014|-0.1769869003959112|0.5797582157454794|-0.5195598602294922|0.8122643828392029|0.265112429857254|0|0|0|-1|-1|3
2021-04-22 22:25:22.116 +0100|141942.660883625|0.2463836669921875|4.946197509765625|-1.9691162109375|141942.640923625|-1.868417168464703|-1.999850460222981|-0.9889716994058525|4.58778190612793|-2.737923383712769|0.8942993879318237|0.6114168167114258|3.283404350280762|-1.606302976608276|XArbitraryZVertical|-0.7480140516135985|-0.2340603395266014|-0.1450920180881186|0.6038535577415909|-0.4997380673885345|0.8354613184928894|0.2286185324192047|0|0|0|-1|-1|3
2021-04-22 22:25:22.136 +0100|141942.680843625|0.5961151123046875|4.515365600585938|-1.988815307617188|141942.660883625|-1.694028564095025|-1.900488043592086|-1.055658850102595|6.407813549041748|-1.973526120185852|1.899589061737061|0.6890672445297241|4.0058274269104|-2.061321496963501|XArbitraryZVertical|-0.7205836712947843|-0.2459837112895647|-0.1050612630785259|0.6396978987639989|-0.4661213755607605|0.8702250123023987|0.1594976335763931|0|0|0|-1|-1|3
2021-04-22 22:25:22.156 +0100|141942.700803625|0.878662109375|2.75823974609375|-1.810958862304688|141942.680843625|-1.403780333149387|-1.66617310857448|-1.135425268453644|8.125714302062988|-0.3727388083934784|3.076492071151733|0.9206995964050293|3.836938381195068|-2.042634725570679|XArbitraryZVertical|-0.6790166163729537|-0.2429370011639281|-0.0622953000118829|0.6899546021241059|-0.4198300838470459|0.906713604927063|0.04016390442848206|0|0|0|-1|-1|3
2021-04-22 22:25:22.176 +0100|141942.720762625|1.30926513671875|-0.43463134765625|-2.183197021484375|141942.700803625|-0.9827137309492096|-1.257240342584893|-1.189027608208697|7.175845146179199|2.825948238372803|3.522737979888916|1.152676105499268|2.462480545043945|-1.693510293960571|XArbitraryZVertical|-0.6292804958063901|-0.215751819872683|-0.02575597590479276|0.7461862658989631|-0.3543975651264191|0.9280071258544922|-0.1149144172668457|0|0|0|-1|-1|3
2021-04-22 22:25:22.196 +0100|141942.740722625|-1.0098876953125|0.1051483154296875|-0.8302001953125|141942.720762625|-0.6562408483511957|-0.8650703734635924|-1.194008667328484|2.531928777694702|5.620584964752197|2.666103363037109|1.492467999458313|-0.7161059975624084|-1.793816208839417|XArbitraryZVertical|-0.5948837381046184|-0.163689692339231|-0.01890110078121803|0.7867412871374889|-0.2800507843494415|0.9298513531684875|-0.2386380434036255|0|0|0|-1|-1|3
2021-04-22 22:25:22.216 +0100|141942.760682625|-3.414688110351562|2.235763549804688|5.0147705078125|141942.740722625|-0.4791668388901368|-0.5850270507621802|-1.232103435420073|-0.7008476257324219|6.291419506072998|4.975841522216797|0.3143678307533264|-1.611493825912476|-1.357123732566833|XArbitraryZVertical|-0.593317420238141|-0.09733683364654562|-0.02358762030658109|0.7987138251077597|-0.183478444814682|0.9431897401809692|-0.2769999504089355|0|0|0|-1|-1|3
2021-04-22 22:25:22.236 +0100|141942.780642625|-4.767013549804688|2.068206787109375|9.353836059570312|141942.760682625|-0.1305366147411954|-0.06461181485494674|-1.280368485183685|0.3360502123832703|12.43869972229004|6.290874004364014|-3.555943489074707|0.9768154621124268|3.922484874725342|XArbitraryZVertical|-0.5974496146804565|0.01309032738150617|-0.03302652703949226|0.8011192625529852|-0.01848954521119595|0.9581214189529419|-0.2857652008533478|0|0|0|-1|-1|3
2021-04-22 22:25:22.256 +0100|141942.800602625|-5.927688598632812|-1.890853881835938|0.6132354736328125|141942.780642625|0.2023220464204006|0.4650639760537739|-1.252000795888259|0.4711727797985077|7.83189868927002|2.133960008621216|-3.859452247619629|1.800432682037354|8.387344360351562|XArbitraryZVertical|-0.5860833140528511|0.1282128114302972|-0.05469132018993066|0.7981709569812069|0.1405641436576843|0.949613630771637|-0.2801356613636017|0|0|0|-1|-1|3
2021-04-22 22:25:22.275 +0100|141942.820562625|-1.177108764648438|4.292312622070312|3.63873291015625|141942.800602625|1.074938015089616|1.617921492891562|-1.288117277578258|-32.72589111328125|18.88891792297363|5.042373657226562|-6.209255218505859|-3.125884294509888|6.350203037261963|XArbitraryZVertical|-0.6522517884398428|0.2848464395439856|-0.09061971441605131|0.6965762532338511|0.2786207795143127|0.9603115916252136|0.01313977967947721|0|0|0|-1|-1|3
2021-04-22 22:25:22.295 +0100|141942.840522625|-3.313018798828125|13.4005126953125|-3.111175537109375|141942.820562625|1.919819190333203|2.503113106456515|-0.6809497653730407|-31.56179809570312|-4.629831790924072|14.95400714874268|-1.698212146759033|1.126084089279175|0.2815744280815125|XArbitraryZVertical|-0.7932209397724734|0.4275010681428447|0.0604600984776279|0.4294041742656551|0.4630579054355621|0.6295312643051147|0.6239132285118103|0|0|0|-1|-1|3
2021-04-22 22:25:22.315 +0100|141942.860481625|-4.654983520507812|0.308563232421875|-2.0380859375|141942.840522625|2.003434417716468|2.462932188154238|-0.1753421753790131|-4.457452297210693|-0.6349868178367615|9.142233848571777|-3.728249073028564|11.49773502349854|1.679429531097412|XArbitraryZVertical|-0.8070160114788207|0.4816269942204591|0.2348285886026417|0.2482259617181201|0.6181254982948303|0.1744450777769089|0.7664788365364075|0|0|0|-1|-1|3
2021-04-22 22:25:22.335 +0100|141942.880441625|0.3155517578125|-3.198638916015625|-1.248306274414062|141942.860481625|1.909547044693175|2.487033376781305|-0.1377134335738803|5.334248065948486|4.428568840026855|0.1239687725901604|-5.646183490753174|2.430455446243286|-3.396018981933594|XArbitraryZVertical|-0.7838082742222674|0.5277759217901201|0.2241117223584378|0.2384767494624637|0.6030458211898804|0.1372785568237305|0.7858056426048279|0|0|0|-1|-1|3
2021-04-22 22:25:22.363 +0100|141942.900401625|-0.229827880859375|-1.073257446289062|0.76214599609375|141942.880441625|1.753630687577674|2.45657924427276|-0.2521956605807572|6.887642860412598|-6.986147403717041|5.734356880187988|-1.451110601425171|-3.487048625946045|-2.695393323898315|XArbitraryZVertical|-0.7453226511002475|0.56519999977702|0.1803528434766125|0.3041646577587459|0.612669825553894|0.2495307624340057|0.7499138116836548|0|0|0|-1|-1|3
2021-04-22 22:25:22.378 +0100|141942.920361625|0.2150421142578125|-0.01458740234375|0.6197052001953125|141942.900401625|1.661199728779504|2.334698087138689|-0.2979587281509433|4.369804859161377|-3.590064525604248|-1.850072622299194|-0.8630383610725403|-1.909337401390076|0.4545045495033264|XArbitraryZVertical|-0.7108359505102568|0.5703898958271123|0.1945853037967084|0.3626353399844767|0.690323531627655|0.2935695052146912|0.6612647771835327|0|0|0|-1|-1|3
2021-04-22 22:25:22.396 +0100|141942.940321625|0.7594146728515625|-0.0569915771484375|0.665252685546875|141942.940321625|1.525191714371392|2.14274143262223|-0.5018968959929927|6.033565998077393|-3.489984035491943|-2.537919044494629|-0.07139372825622559|-0.4860935807228088|0.1547126173973083|XArbitraryZVertical|-0.6734195876135194|0.5326946208391422|0.1628583697583354|0.4860245566148055|0.7371493577957153|0.4810893535614014|0.4745149910449982|0|0|0|-1|-1|3
2021-04-22 22:25:22.415 +0100|141942.960281625|0.553955078125|0.0044097900390625|0.439453125||||||||||||||||||||||||3
2021-04-22 22:25:22.435 +0100|141942.980240625|0.3403167724609375|0.4154205322265625|0.6697998046875|141942.960281625|1.45520331074726|2.029341262742661|-0.6034256130595992|4.133327007293701|-3.893042325973511|-3.386743307113647|-0.0855674147605896|-0.6358863115310669|0.1130073964595795|XArbitraryZVertical|-0.6564871715374577|0.5012587162946252|0.1467687164809408|0.5442639728181783|0.7383376955986023|0.5674664378166199|0.3644714057445526|0|0|0|-1|-1|3
2021-04-22 22:25:22.455 +0100|141943.000199625|0.5747833251953125|0.7749481201171875|0.775054931640625|141942.980240625|1.425484823723467|1.942417663529244|-0.6957351914877181|1.954495429992676|-2.85755467414856|-4.106067180633545|-0.3695309162139893|-0.3065682053565979|0.3230166435241699|XArbitraryZVertical|-0.6530518200284917|0.4613980962688868|0.1339778656174109|0.5853932060096148|0.7151876091957092|0.6409499049186707|0.2787297666072845|0|0|0|-1|-1|3
2021-04-22 22:25:22.475 +0100|141943.020159625|0.8944854736328125|1.239898681640625|0.4288482666015625|141943.000199625|1.428146008441656|1.903758735844161|-0.7894156635426266|1.240613698959351|-1.267606973648071|-4.785606384277344|-0.1810392141342163|-0.04069077968597412|0.5550498962402344|XArbitraryZVertical|-0.6610086461359802|0.4220892265885163|0.1140449945065698|0.6098378595015199|0.6655814647674561|0.7099418640136719|0.2301834970712662|0|0|0|-1|-1|3
2021-04-22 22:25:22.495 +0100|141943.040119625|0.742828369140625|1.43896484375|0.321441650390625|141943.020159625|1.444800040319137|1.892875766397214|-0.8941199332199538|1.026113748550415|-1.366714954376221|-5.392659187316895|0.2428163886070251|0.3606162071228027|0.3621915280818939|XArbitraryZVertical|-0.6733230236106783|0.3817663359195073|0.0853852056994578|0.627375453820629|0.594005286693573|0.7796582579612732|0.1982188522815704|0|0|0|-1|-1|3
2021-04-22 22:25:22.515 +0100|141943.060079625|0.4074859619140625|1.381439208984375|0.144805908203125|141943.040119625|1.477381208258998|1.88549425272143|-1.000437269572213|0.2654129862785339|-1.940451145172119|-5.278365612030029|0.3174067139625549|0.5747208595275879|0.1545611470937729|XArbitraryZVertical|-0.686434492977923|0.3352170113710068|0.06021070288659791|0.6425044741222541|0.5134182572364807|0.841707170009613|0.1671255230903625|0|0|0|-1|-1|3
2021-04-22 22:25:22.534 +0100|141943.080039625|0.5708465576171875|1.538406372070312|-0.149688720703125|141943.060079625|1.553084830677994|1.918151547429632|-1.097893791582276|-0.5085535645484924|-1.117019414901733|-5.144054889678955|0.02497610449790955|0.4930664896965027|0.07215572893619537|XArbitraryZVertical|-0.7031895819521859|0.2881816342086632|0.03861439090869478|0.6488335123434565|0.4282702803611755|0.890250027179718|0.1550484895706177|0|0|0|-1|-1|3
2021-04-22 22:25:22.554 +0100|141943.099999625|0.859588623046875|1.511550903320312|0.0045318603515625|141943.080039625|1.662104550844183|2.012313891000486|-1.185651895550493|-0.1048012375831604|0.4593667387962341|-4.627826690673828|0.1505981385707855|0.5747972130775452|-0.2769314050674438|XArbitraryZVertical|-0.7190515098840043|0.2514638375570856|0.00964609244662629|0.6477946674026321|0.339665949344635|0.9267441630363464|0.1605382710695267|0|0|0|-1|-1|3
2021-04-22 22:25:22.574 +0100|141943.119958625|0.7110748291015625|1.167755126953125|0.0532684326171875|141943.099999625|1.751635394171635|2.106823891294686|-1.263668648489761|0.7589353919029236|0.3112798631191254|-3.667191028594971|0.5588966608047485|0.5795548558235168|-0.2369220554828644|XArbitraryZVertical|-0.7257381511265937|0.224734956473711|-0.02216305136824598|0.6498516307179468|0.2599196135997772|0.9532058835029602|0.1544033288955688|0|0|0|-1|-1|3
2021-04-22 22:25:22.594 +0100|141943.139918625|0.5590972900390625|1.163619995117188|-0.440704345703125|141943.119958625|1.841128298312744|2.194136825335819|-1.327059207636748|0.9054229855537415|-0.2092238217592239|-3.083387613296509|0.579505980014801|0.2918252944946289|0.009407266974449158|XArbitraryZVertical|-0.7281028560272242|0.2007607612351927|-0.04571819989127155|0.6538128657923535|0.1959448307752609|0.9704428911209106|0.1408773064613342|0|0|0|-1|-1|3
2021-04-22 22:25:22.614 +0100|141943.159878625|0.647918701171875|1.130203247070312|-0.4636383056640625|141943.139918625|1.910184235977629|2.259562148159119|-1.387543801590372|1.381518363952637|0.1615627706050873|-2.577637434005737|0.4286327958106995|0.1452383399009705|-0.5275800228118896|XArbitraryZVertical|-0.725238723482412|0.1787177685573696|-0.06604424418035178|0.6616094815770258|0.1406870484352112|0.9832562208175659|0.1158224940299988|0|0|0|-1|-1|3
2021-04-22 22:25:22.634 +0100|141943.179838625|0.665008544921875|0.882904052734375|-0.168731689453125|141943.159878625|1.975729228771685|2.330263412441789|-1.43589958225767|1.170026540756226|0.3828822076320648|-1.719970226287842|0.5293592214584351|0.177114725112915|-0.5731141567230225|XArbitraryZVertical|-0.7206483472556149|0.1642140384973552|-0.08460172497814508|0.6682382919005007|0.09753203392028809|0.9909152388572693|0.09260058403015137|0|0|0|-1|-1|3
2021-04-22 22:25:22.654 +0100|141943.199798625|0.55291748046875|0.5678253173828125|-0.1444854736328125|141943.179838625|2.02565261226524|2.38534876091935|-1.466743898982761|0.5322821140289307|0.1710699200630188|-0.9766385555267334|0.608536422252655|-0.02695518732070923|-0.318686842918396|XArbitraryZVertical|-0.7165639564978885|0.1559267989758832|-0.09670576843577007|0.6729569482549153|0.07127230614423752|0.9945914149284363|0.07555413991212845|0|0|0|-1|-1|3
2021-04-22 22:25:22.675 +0100|141943.219758625|0.355224609375|0.7877655029296875|-0.173187255859375|141943.199798625|2.078506578907156|2.437879045127146|-1.483168725633823|0.5202951431274414|-0.165201872587204|-0.5034891963005066|0.5416072607040405|-0.3818594813346863|-0.1894063949584961|XArbitraryZVertical|-0.7147068030140441|0.15019144858198|-0.1023156405074046|0.675402336481415|0.05662794038653374|0.9961631298065186|0.06672657281160355|0|0|0|-1|-1|3
2021-04-22 22:25:22.694 +0100|141943.239718625|0.3736419677734375|1.019210815429688|-0.002716064453125|141943.219758625|2.049268271145991|2.406494251411399|-1.496366011775688|0.4380117952823639|0.04048433154821396|-0.1811874061822891|0.3274911046028137|-0.2960745096206665|-0.2253869771957397|XArbitraryZVertical|-0.7114459986186048|0.1463727883925706|-0.1047096055548258|0.6793052955727634|0.04987316206097603|0.9972313642501831|0.05516080558300018|0|0|0|-1|-1|3
2021-04-22 22:25:22.714 +0100|141943.259677625|0.435821533203125|0.7486114501953125|0.0363922119140625|141943.239718625|2.063184058743146|2.421769172358758|-1.498908407707834|-0.3901219666004181|-0.0749778151512146|-0.08681740611791611|0.3082374930381775|0.01614797115325928|-0.087424635887146|XArbitraryZVertical|-0.7111359856288044|0.1459108874087206|-0.1061281249079295|0.6795090516462127|0.04735248163342476|0.997417151927948|0.05400875583291054|0|0|0|-1|-1|3
2021-04-22 22:25:22.734 +0100|141943.279637625|0.2506866455078125|0.9528961181640625|0.24957275390625|141943.259677625|2.171782989058505|2.524263559295953|-1.489689443218997|-0.357641875743866|-0.565819263458252|-0.08886920660734177|0.4361937940120697|-0.2246636748313904|-0.02372110635042191|XArbitraryZVertical|-0.7156862917066795|0.1443111026760538|-0.1034383422602429|0.6754761465777082|0.04689860716462135|0.9967126250267029|0.06606512516736984|0|0|0|-1|-1|3
2021-04-22 22:25:22.754 +0100|141943.299597625|0.020233154296875|1.732330322265625|0.344482421875|141943.279637625|2.198952539287241|2.537116913557537|-1.490112393736378|0.2014789432287216|-0.7812356948852539|-0.009910913184285164|0.250930517911911|-0.1490141749382019|0.2628474235534668|XArbitraryZVertical|-0.7168592663939162|0.1388193331838033|-0.09896789074922313|0.6760528524284896|0.04580631479620934|0.996746838092804|0.06631603091955185|0|0|0|-1|-1|3
2021-04-22 22:25:22.774 +0100|141943.319557625|0.048370361328125|1.769943237304688|0.1067657470703125|141943.299597625|2.228636459719593|2.553093976522572|-1.485764417327852|-1.10482132434845|-0.5468750596046448|-0.07390951365232468|0.02270705997943878|0.5577818751335144|0.2280778884887695|XArbitraryZVertical|-0.7191677339624269|0.1346102793616548|-0.09360479096875372|0.6752156589954602|0.04714684560894966|0.9963869452476501|0.070644311606884|0|0|0|-1|-1|3
2021-04-22 22:25:22.794 +0100|141943.339517625|0.339874267578125|1.546173095703125|0.254791259765625|141943.319557625|2.430028326362655|2.754732087761354|-1.456475935746574|-1.873263716697693|0.7338660359382629|-0.2713637351989746|-0.04547998309135437|0.8221250772476196|0.1372323036193848|XArbitraryZVertical|-0.7311244318255373|0.1351976948677305|-0.09302213431824632|0.6622127091931814|0.04303775355219841|0.9934725165367126|0.105642706155777|0|0|0|-1|-1|3
2021-04-22 22:25:22.814 +0100|141943.359477625|0.2850189208984375|1.28070068359375|0.5644989013671875|141943.339517625|2.55765867870248|2.892675339541054|-1.431504998139601|-0.9542244076728821|0.2278382480144501|-0.4806783497333527|0.2361344844102859|0.6826591491699219|-0.05352352559566498|XArbitraryZVertical|-0.7405217385177273|0.1375117247270201|-0.09770326577634059|0.6505169925950602|0.0342046432197094|0.9903146624565125|0.1345638334751129|0|0|0|-1|-1|3
2021-04-22 22:25:22.834 +0100|141943.379437625|0.09063720703125|1.481948852539062|0.3762969970703125|141943.359477625|2.653797338447394|2.986153690737321|-1.427637952066629|-0.1638671904802322|-0.1860764771699905|-0.7962312698364258|0.314428985118866|0.2506929636001587|0.3710888624191284|XArbitraryZVertical|-0.7435583801985413|0.1326519494921522|-0.1006805802064573|0.6476017242241507|0.02208748459815979|0.9897703528404236|0.1409512162208557|0|0|0|-1|-1|3
2021-04-22 22:25:22.854 +0100|141943.399396625|0.0462646484375|1.33648681640625|0.16424560546875|141943.379437625|2.818280383864841|-3.135580699785905|-1.433437835913205|0.4309761226177216|-0.01209845207631588|-1.513057827949524|0.1187270283699036|0.4687390327453613|0.3303135633468628|XArbitraryZVertical|-0.7438145575618346|0.1233016702525898|-0.10796880144625|0.6479811860617363|-0.0008232074906118214|0.9905811548233032|0.1369268000125885|0|0|0|-1|-1|3
2021-04-22 22:25:22.874 +0100|141943.419356625|0.037445068359375|1.20391845703125|0.0585784912109375|141943.399396625|3.060567886309848|-2.896008476289114|-1.428139773126996|-0.595389187335968|0.03087016008794308|-1.858026027679443|0.08757402002811432|0.3991504907608032|0.07861471176147461|XArbitraryZVertical|-0.7461487230844677|0.1105271671918703|-0.1188106723043054|0.6457011550565935|-0.03456582501530647|0.9898418188095093|0.1379083395004272|0|0|0|-1|-1|3
2021-04-22 22:25:22.894 +0100|141943.439316625|0.057647705078125|1.013702392578125|0.0447845458984375|141943.419356625|-3.030058202860777|-2.704649618875659|-1.398473325146463|-1.170265316963196|0.05563931539654732|-1.896905660629272|0.1061615273356438|0.23891681432724|-0.09843157231807709|XArbitraryZVertical|-0.7537561061729252|0.09763841351263286|-0.1305968286552185|0.6366028446974406|-0.07256253063678741|0.9851890802383423|0.1553630530834198|0|0|0|-1|-1|3
2021-04-22 22:25:22.914 +0100|141943.459276625|0.0499114990234375|0.784698486328125|-0.071441650390625|141943.439316625|-2.921398190986135|-2.597842711794635|-1.360771620139689|-1.209312200546265|-0.0499451644718647|-1.714755892753601|0.1591129153966904|0.09073024988174438|-0.09501075744628906|XArbitraryZVertical|-0.7628065343381522|0.08564055892963382|-0.1408963850315395|0.6252521647418019|-0.1078594774007797|0.9780257344245911|0.1784162223339081|0|0|0|-1|-1|3
2021-04-22 22:25:22.934 +0100|141943.479236625|0.1022796630859375|0.676849365234375|-0.368499755859375|141943.459276625|-2.843046569105148|-2.523593713233325|-1.327519400423109|-0.4411302506923676|-0.02153653465211391|-1.541395783424377|0.1889925599098206|-0.1451907753944397|-0.259577751159668|XArbitraryZVertical|-0.7698944219141447|0.07367533867800624|-0.149590866383133|0.616001028534693|-0.1395701766014099|0.9705538153648376|0.1963309496641159|0|0|0|-1|-1|3
2021-04-22 22:25:22.954 +0100|141943.499196625|0.190338134765625|0.4250335693359375|-0.3102874755859375|141943.479236625|-2.757768007965541|-2.435127966277393|-1.308957119532382|0.2337470948696136|0.4361633658409119|-1.315083026885986|0.2421944290399551|-0.2513465285301208|-0.4982485771179199|XArbitraryZVertical|-0.7708831457610015|0.06473776946914547|-0.1604711822612362|0.6130231487597541|-0.1680375635623932|0.9659155011177063|0.1969036012887955|0|0|0|-1|-1|3
2021-04-22 22:25:22.974 +0100|141943.519156625|0.076202392578125|0.1757659912109375|-0.05743408203125|141943.499196625|-2.678420843364146|-2.352971679181552|-1.297796154602285|0.3299996256828308|0.09205558896064758|-1.002702832221985|0.3835858404636383|-0.4632260203361511|-0.5258201360702515|XArbitraryZVertical|-0.7692561470681698|0.05712255731034267|-0.1698593819886452|0.6132942316385377|-0.191264882683754|0.9629663228988647|0.1900360137224197|0|0|0|-1|-1|3
2021-04-22 22:25:22.994 +0100|141943.539115625|-0.1514434814453125|0.048187255859375|0.231231689453125|141943.519156625|-2.616137714037353|-2.294326478901028|-1.28977501459632|0.2895209491252899|-0.2676246464252472|-0.7599934339523315|0.3274548053741455|-0.7474550008773804|-0.3470431566238403|XArbitraryZVertical|-0.7676991240659312|0.04941300262800222|-0.1749283874871858|0.6144889243838794|-0.2078572511672974|0.960772693157196|0.1836071759462357|0|0|0|-1|-1|3
2021-04-22 22:25:23.014 +0100|141943.559075625|-0.313018798828125|0.0674591064453125|0.188720703125|141943.539115625|-2.544584068085002|-2.235151082635957|-1.286156596239268|1.28506875038147|-0.6943275928497314|-0.8954609036445618|0.1376668810844421|-0.8862462639808655|0.04357121884822845|XArbitraryZVertical|-0.7648643135014035|0.03937129269269163|-0.1763556901314157|0.6183293972079569|-0.2210874855518341|0.9597628712654114|0.1731350272893906|0|0|0|-1|-1|3
2021-04-22 22:25:23.034 +0100|141943.579035625|-0.3861236572265625|0.2177734375|0.3245849609375|141943.559075625|-2.368416389829367|-2.078353201856128|-1.296092143483172|3.21897029876709|-0.5486375093460083|-0.8242577910423279|-0.05500344932079315|-0.9428370594978333|0.09361922740936279|XArbitraryZVertical|-0.7518855349776348|0.02430819307798739|-0.1781543139835075|0.6343015128874293|-0.237065851688385|0.9625054597854614|0.1318454891443253|0|0|0|-1|-1|3
2021-04-22 22:25:23.054 +0100|141943.598995625|-0.3587188720703125|-0.052215576171875|0.1903228759765625|141943.579035625|-2.10818119812151|-1.842833756264047|-1.304404225210237|3.186706781387329|-0.9864441156387329|-1.23696494102478|-0.1274406015872955|-0.7153068780899048|0.2574523687362671|XArbitraryZVertical|-0.7316600912011347|0.006391257641248718|-0.1790307517936954|0.6577087569736182|-0.2535721361637115|0.964726984500885|0.07073467224836349|0|0|0|-1|-1|3
2021-04-22 22:25:23.074 +0100|141943.618955625|-0.5969696044921875|0.29833984375|0.301605224609375|141943.598995625|-1.876921925124391|-1.649918173917219|-1.285246173486562|2.793960094451904|-2.151486396789551|-1.63969087600708|-0.06434983015060425|-1.014072418212891|0.1089622974395752|XArbitraryZVertical|-0.7146695343957722|-0.01948309452347807|-0.178024833620716|0.6761473174258588|-0.2808047235012054|0.9595068097114563|0.0222642682492733|0|0|0|-1|-1|3
2021-04-22 22:25:23.094 +0100|141943.638915625|-0.728973388671875|0.383087158203125|0.1959075927734375|141943.618955625|-1.724867064737121|-1.556806944514641|-1.246067883576613|1.532832384109497|-2.931632041931152|-2.585452556610107|-0.2162888050079346|-0.7090290188789368|0.3033991456031799|XArbitraryZVertical|-0.7033440832139051|-0.05545722339365047|-0.1725927659326223|0.6873452526062699|-0.3190207183361053|0.9477373957633972|-0.004463193938136101|0|0|0|-1|-1|3
2021-04-22 22:25:23.114 +0100|141943.658875625|-0.8650360107421875|1.066818237304688|0.080169677734375|141943.638915625|-1.664056470642445|-1.560767678907796|-1.186614533438464|0.6681963801383972|-3.176276683807373|-2.943809747695923|-0.336750864982605|-0.6033903360366821|0.1875976324081421|XArbitraryZVertical|-0.6987919511681618|-0.09904779526501073|-0.1707088006038186|0.6875594849435236|-0.374782383441925|0.9271054267883301|-0.003758686361834407|0|0|0|-1|-1|3
2021-04-22 22:25:23.134 +0100|141943.678834625|-0.7082977294921875|1.49212646484375|-0.718841552734375|141943.658875625|-1.667726527942153|-1.627527664041286|-1.135010544809509|-1.124861836433411|-2.954323053359985|-2.675550937652588|-0.3957562744617462|-0.03665053844451904|0.1367566585540771|XArbitraryZVertical|-0.7019804523813448|-0.1385309625653128|-0.1662818813510696|0.678515335139695|-0.4214440286159515|0.9065386056900024|0.02393476665019989|0|0|0|-1|-1|3
2021-04-22 22:25:23.154 +0100|141943.698794625|0.407623291015625|2.622116088867188|-1.242355346679688|141943.678834625|-1.721401607247308|-1.725602443541001|-1.05557913572598|-1.446205735206604|-2.18434739112854|-5.158329486846924|-0.3106234073638916|0.5335158109664917|-0.5005319118499756|XArbitraryZVertical|-0.7111750964071135|-0.1794887116810751|-0.1766162922492791|0.6563692920588773|-0.4868319630622864|0.8701857328414917|0.07597243040800095|0|0|0|-1|-1|3
2021-04-22 22:25:23.174 +0100|141943.718754625|-0.0213470458984375|3.234832763671875|-1.372390747070312|141943.698794625|-1.686918100797333|-1.743687474202561|-0.9460667390738634|1.558000206947327|-3.184450387954712|-5.168420314788818|0.6460587382316589|1.43695592880249|-1.240310311317444|XArbitraryZVertical|-0.7039106667381102|-0.2341333290578621|-0.1959389360313145|0.6413263932299408|-0.5761587619781494|0.8111212849617004|0.1006172820925713|0|0|0|-1|-1|3
2021-04-22 22:25:23.194 +0100|141943.738714625|-1.620498657226562|3.514495849609375|-1.640625|141943.718754625|-1.522173372821378|-1.71903132951856|-0.8832722042803044|7.185147285461426|-6.975207805633545|-2.402336359024048|1.003505229949951|2.382026195526123|-1.538216948509216|XArbitraryZVertical|-0.6743787537859384|-0.3034437636137557|-0.1725997693277919|0.6506494161402741|-0.6276662349700928|0.7728196382522583|0.0937296450138092|0|0|0|-1|-1|3
2021-04-22 22:25:23.214 +0100|141943.758674625|-1.7647705078125|3.098052978515625|-2.457962036132812|141943.738714625|-1.279300484809929|-1.662617310732574|-0.8720659412924751|7.461215019226074|-5.539023399353027|-1.034335970878601|-0.7247743606567383|2.715526342391968|-1.451374292373657|XArbitraryZVertical|-0.6281004992482532|-0.3673962841795765|-0.1142804692611901|0.6763502968761983|-0.6405364274978638|0.7656594514846802|0.05898053199052811|0|0|0|-1|-1|3
2021-04-22 22:25:23.233 +0100|141943.778634625|-1.9420166015625|3.058914184570312|-2.684371948242188|141943.758674625|-1.078581481108772|-1.604648183624684|-0.8644886994119702|5.257503032684326|-4.298511028289795|-0.4565902948379517|-1.081338286399841|2.53928542137146|-2.301689624786377|XArbitraryZVertical|-0.5850902244975053|-0.4106735379614483|-0.0656554673477039|0.6962083847080178|-0.6486574411392212|0.7607635259628296|0.02196665108203888|0|0|0|-1|-1|3
2021-04-22 22:25:23.253 +0100|141943.798594625|-1.487411499023438|2.815322875976562|-2.807266235351562|141943.778634625|-0.9331385041580188|-1.56681856518098|-0.8695232767954922|4.398856639862061|-2.781844139099121|0.7793381214141846|-1.319718837738037|2.209535121917725|-2.707881450653076|XArbitraryZVertical|-0.5544343995212313|-0.4374006079456669|-0.02359040332088996|0.7076205594319545|-0.6451860070228577|0.7640214562416077|-0.002566409530118108|0|0|0|-1|-1|3
2021-04-22 22:25:23.274 +0100|141943.818553625|-1.266250610351562|2.942794799804688|-2.645339965820312|141943.798594625|-0.7946065065144648|-1.498936105211142|-0.889254044419108|4.352113246917725|-1.215097188949585|1.407065391540527|-0.9934906959533691|2.065714120864868|-2.705056190490723|XArbitraryZVertical|-0.5283133625953292|-0.4452738344042014|0.01448142349287674|0.7227771187458659|-0.6283659934997559|0.776602029800415|-0.04523240774869919|0|0|0|-1|-1|3
2021-04-22 22:25:23.293 +0100|141943.838513625|-1.081741333007812|2.86285400390625|-2.73980712890625|141943.818553625|-0.6526611625533977|-1.400058305304039|-0.9040176271435835|4.374076366424561|0.1355796903371811|1.064561367034912|-0.682343602180481|2.135782718658447|-2.64670205116272|XArbitraryZVertical|-0.5022076233045052|-0.4418670644036501|0.0459806647557943|0.7419075903480256|-0.6094653606414795|0.7858179807662964|-0.1050819978117943|0|0|0|-1|-1|3
2021-04-22 22:25:23.313 +0100|141943.858473625|-1.42034912109375|1.006134033203125|-3.125|141943.838513625|-0.4952669548369418|-1.251178568831549|-0.8984745073059289|5.177915096282959|2.373454809188843|0.7887447476387024|-0.5628508925437927|2.169466018676758|-2.459325313568115|XArbitraryZVertical|-0.4705845708957722|-0.4250958197057131|0.06756873834343965|0.7702455684790226|-0.5912627577781677|0.7823777198791504|-0.1956874132156372|0|0|0|-1|-1|3
2021-04-22 22:25:23.333 +0100|141943.878433625|-2.453659057617188|-2.032424926757812|-3.082244873046875|141943.858473625|-0.3603736686407504|-1.066686574680156|-0.8666538937823182|3.549214124679565|6.382296562194824|-0.584170937538147|-0.7057333588600159|0.9844614863395691|-2.647302627563477|XArbitraryZVertical|-0.4384140904687501|-0.3891548864400616|0.06996409566814712|0.8071287853617632|-0.5668497085571289|0.7621669769287109|-0.3127031326293945|0|0|0|-1|-1|3
2021-04-22 22:25:23.353 +0100|141943.898393625|-5.0731201171875|-0.5425262451171875|1.456787109375|141943.878433625|-0.3318411949916918|-0.8672738346780452|-0.8400885663548168|-1.423688411712646|11.17801189422607|-0.3770914077758789|-1.358389377593994|-2.273891687393188|-3.053438186645508|XArbitraryZVertical|-0.4283377396685499|-0.3172611429766097|0.03214878333158183|0.8454813167642573|-0.5089356899261475|0.7447022199630737|-0.4317443072795868|0|0|0|-1|-1|3
2021-04-22 22:25:23.373 +0100|141943.918353625|-3.31768798828125|-0.3637542724609375|8.540435791015625|141943.898393625|-0.4085905818930013|-0.6648725766363536|-0.9287625814223052|-7.63477897644043|14.53521060943604|3.455396413803101|-4.34925365447998|-2.004721164703369|0.3356845378875732|XArbitraryZVertical|-0.4737416892751516|-0.1998306405094008|-0.0283397177244801|0.8572243722171181|-0.3694508075714111|0.8008795380592346|-0.4712730646133423|0|0|0|-1|-1|3
2021-04-22 22:25:23.393 +0100|141943.938313625|-1.894500732421875|-2.850067138671875|10.81593322753906|141943.918353625|-0.3507318859761959|-0.3248111421665285|-1.132682997143256|-9.890726089477539|14.28467750549316|8.006978988647461|-3.995963335037231|-1.194966793060303|7.234447479248047|XArbitraryZVertical|-0.545172840202234|-0.04197577894393535|-0.05986600457409064|0.8351291893689023|-0.1353850364685059|0.9055536389350891|-0.4020492136478424|0|0|0|-1|-1|3
2021-04-22 22:25:23.413 +0100|141943.958272625|-0.5723114013671875|-0.8465728759765625|3.359466552734375|141943.938313625|0.2718157814043966|0.5542717067244141|-1.37733602074647|-17.62261962890625|16.04815292358398|8.543633460998535|-2.184106349945068|-2.693304300308228|10.87985801696777|XArbitraryZVertical|-0.6342450653675824|0.1264786713324579|-0.07165383271453095|0.7593433021480203|0.1011892855167389|0.9813448190689087|-0.1634726822376251|0|0|0|-1|-1|3
2021-04-22 22:25:23.433 +0100|141943.978232625|-0.011932373046875|12.81437683105469|1.22430419921875|141943.958272625|1.938355731145137|2.577443537718042|-1.038314577550576|-34.80238723754883|17.29456329345703|14.17543411254883|-0.8689712285995483|-3.702675342559814|6.758036613464355|XArbitraryZVertical|-0.7656677810793012|0.3581282837000678|-0.07047126556622034|0.5296515806436182|0.2714512646198273|0.8615497946739197|0.429006040096283|0|0|0|-1|-1|3
2021-04-22 22:25:23.453 +0100|141943.9981941667|-3.776336669921875|-0.7997894287109375|-4.008209228515625|141943.978232625|2.00097041370985|2.754885925779763|-0.3758498746802691|-19.29060173034668|-0.07165099680423737|6.813703060150146|-0.9767768383026123|10.02087593078613|-1.692408323287964|XArbitraryZVertical|-0.8308852919361766|0.4902886721818004|0.05990827264735174|0.2562374798374922|0.3508144617080688|0.3670632243156433|0.8615067005157471|0|0|0|-1|-1|3
2021-04-22 22:25:23.473 +0100|141944.0181541667|1.707443237304688|-7.06866455078125|-1.688812255859375|141943.9981941667|1.908306736277713|2.867983562668066|-0.2916482315928285|6.850526332855225|6.727538585662842|0.706643283367157|-2.051050186157227|2.313726186752319|-2.999872207641602|XArbitraryZVertical|-0.8110842634232674|0.5506490740900269|0.02683346123780909|0.1954685223657859|0.2587975263595581|0.2875312566757202|0.9221441745758057|0|0|0|-1|-1|3
