loggingTime(txt)|accelerometerTimestamp_sinceReboot(s)|accelerometerAccelerationX(G)|accelerometerAccelerationY(G)|accelerometerAccelerationZ(G)|motionTimestamp_sinceReboot(s)|motionYaw(rad)|motionRoll(rad)|motionPitch(rad)|motionRotationRateX(rad/s)|motionRotationRateY(rad/s)|motionRotationRateZ(rad/s)|motionUserAccelerationX(G)|motionUserAccelerationY(G)|motionUserAccelerationZ(G)|motionAttitudeReferenceFrame(txt)|motionQuaternionX(R)|motionQuaternionY(R)|motionQuaternionZ(R)|motionQuaternionW(R)|motionGravityX(G)|motionGravityY(G)|motionGravityZ(G)|motionMagneticFieldX(µT)|motionMagneticFieldY(µT)|motionMagneticFieldZ(µT)|motionHeading(°)|motionMagneticFieldCalibrationAccuracy(Z)|label
2021-04-09 09:41:47.643 +0100|28265.865169875|0.02239990234375|0.0338897705078125|-0.976470947265625|28265.845209875|2.880532253220731|0.0544136267315638|-0.09950002309624627|0.05025622621178627|-0.03626774251461029|-0.09744008630514145|-0.005548257380723953|-0.01628310233354568|0.01010650396347046|XArbitraryZVertical|-0.03340905176508061|-0.04575177471294394|0.989723794949866|0.1312920366651904|0.05411778017878532|0.0993359237909317|-0.993581235408783|0|0|0|-1|-1|3
2021-04-09 09:41:47.645 +0100|28265.885130875|0.0784759521484375|0.11004638671875|-1.0001220703125|28265.865169875|2.879530419079134|0.05404192472101204|-0.09843289210083493|0.008407928049564362|0.02319872565567493|-0.003386907745152712|0.0007662996649742126|-0.008751459419727325|0.0007408261299133301|XArbitraryZVertical|-0.03317914081656026|-0.0452312840046966|0.9896920942818357|0.1317684425912218|0.05375415459275246|0.09827401489019394|-0.9937065243721008|0|0|0|-1|-1|3
2021-04-09 09:41:47.646 +0100|28265.905091875|0.05938720703125|0.104522705078125|-0.9982757568359375|28265.885130875|2.879294785022627|0.05400736073952117|-0.09862276334516475|-0.003108645556494594|-0.002110198605805635|-0.02584223821759224|0.01589259505271912|-0.01479978859424591|0.00495070219039917|XArbitraryZVertical|-0.03317963454950197|-0.04532363773511248|0.9896722482498241|0.1318862217344386|0.05371880158782005|0.09846296906471252|-0.9936897754669189|0|0|0|-1|-1|3
2021-04-09 09:41:47.647 +0100|28265.925052875|0.0658111572265625|0.09210205078125|-1.002151489257812|28265.905091875|2.878955853297646|0.05413287102678183|-0.09838593826614363|0.008707150816917419|0.009684142656624317|-0.008585043251514435|0.00719117745757103|0.004890844225883484|-0.006034374237060547|XArbitraryZVertical|-0.0332340971773588|-0.0451925011631425|0.9896539527878245|0.1320543519117858|0.05384477972984314|0.09822729229927063|-0.9937062859535217|0|0|0|-1|-1|3
2021-04-09 09:41:47.657 +0100|28265.945012875|0.0586090087890625|0.0926971435546875|-0.996429443359375|28265.925052875|2.878962516169368|0.05434436288458244|-0.09783962400076641|0.01762697659432888|0.00877659022808075|0.009268878027796745|0.0113421231508255|0.007021442055702209|-0.009120404720306396|XArbitraryZVertical|-0.03330324778067593|-0.04490821811701669|0.9896651582272589|0.1320502539225391|0.05405784398317337|0.09768360108137131|-0.9937483072280884|0|0|0|-1|-1|3
2021-04-09 09:41:47.677 +0100|28265.964973875|0.068450927734375|0.0811309814453125|-0.99053955078125|28265.945012875|2.879255498010042|0.05501766119535006|-0.09788896397362057|0.02400078624486923|0.01955205947160721|0.01959848031401634|0.005607392638921738|-0.008316963911056519|-0.006781458854675293|XArbitraryZVertical|-0.03363303308447207|-0.04489311466074788|0.9896718909573058|0.1319208817482174|0.05472665652632713|0.09773270785808563|-0.9937068819999695|0|0|0|-1|-1|3
2021-04-09 09:41:47.697 +0100|28265.984934875|0.069122314453125|0.0781707763671875|-0.9839935302734375|28265.964973875|2.879663393773875|0.05527802593619867|-0.09654162717579565|0.03027066774666309|0.02091208286583424|0.02205009758472443|0.009415537118911743|-0.007479526102542877|-0.0003175139427185059|XArbitraryZVertical|-0.03366577646759954|-0.04421584993079573|0.9897292858468323|0.1317107297237905|0.05499260500073433|0.09639173001050949|-0.9938231706619263|0|0|0|-1|-1|3
2021-04-09 09:41:47.717 +0100|28266.004895875|0.069244384765625|0.07855224609375|-0.979644775390625|28265.984934875|2.880066225432983|0.05593979109809678|-0.09632573247136458|0.003452168311923742|0.01512428745627403|0.01317644491791725|0.01402099058032036|-0.016847163438797|0.008364200592041016|XArbitraryZVertical|-0.03397045204310008|-0.04407223461861824|0.9897501437117442|0.1315236898270817|0.05565143376588821|0.09617684036493301|-0.993807315826416|0|0|0|-1|-1|3
2021-04-09 09:41:47.737 +0100|28266.024855875|0.0601806640625|0.09765625|-0.9881744384765625|28266.004895875|2.880344612215286|0.05633001879584687|-0.09683026916105027|-0.03289320319890976|0.00833546556532383|0.01208685711026192|0.01212530583143234|-0.02207957208156586|0.01261204481124878|XArbitraryZVertical|-0.03418990071044678|-0.04430109831841041|0.9897488300711681|0.1313999802341256|0.05603650212287903|0.09667902439832687|-0.9937369227409363|0|0|0|-1|-1|3
2021-04-09 09:41:47.757 +0100|28266.044816875|0.057037353515625|0.0984344482421875|-0.9991912841796875|28266.024855875|2.880470268920954|0.05658266537015628|-0.09731678967496556|-0.0255094263702631|0.003420280758291483|-0.003078602254390717|0.0111292339861393|-0.00838838517665863|0.008690297603607178|XArbitraryZVertical|-0.03434343789164217|-0.0445275132546762|0.9897400672626249|0.1313486308610481|0.05628489702939987|0.09716325253248215|-0.9936756491661072|0|0|0|-1|-1|3
2021-04-09 09:41:47.777 +0100|28266.064777875|0.0525665283203125|0.0937347412109375|-1.002548217773438|28266.044816875|2.880503522379003|0.05678404542892259|-0.09753764979751123|-0.005031564272940159|0.004601233638823032|-0.002858181484043598|0.001210495829582214|0.002408638596534729|0.001684248447418213|XArbitraryZVertical|-0.03445655446807983|-0.0446241941781506|0.9897330933490437|0.1313390792693055|0.05648378282785416|0.09738306701183319|-0.9936428666114807|0|0|0|-1|-1|3
2021-04-09 09:41:47.797 +0100|28266.084738875|0.052642822265625|0.089385986328125|-0.996368408203125|28266.064777875|2.880465487289618|0.05724315192596958|-0.09729639675265017|-0.008076206780970097|0.01481685228645802|-0.003465736750513315|0.0006919391453266144|-0.00307328999042511|-0.005795180797576904|XArbitraryZVertical|-0.03466908520448654|-0.04447395359361888|0.9897289214014698|0.1313654841496109|0.05694130808115005|0.09714295715093613|-0.9936402440071106|0|0|0|-1|-1|3
2021-04-09 09:41:47.817 +0100|28266.104698875|0.0539093017578125|0.0890655517578125|-0.9936370849609375|28266.084738875|2.880279296444879|0.05789862483572257|-0.09724743219183313|-0.02022962458431721|0.02579599991440773|-0.0194508284330368|-0.003820102661848068|-0.004489392042160034|-0.007002949714660645|XArbitraryZVertical|-0.03499443858685334|-0.04440339918172782|0.9897065715812272|0.1314716552257825|0.05759287625551224|0.09709422290325165|-0.9936074614524841|0|0|0|-1|-1|3
2021-04-09 09:41:47.837 +0100|28266.124659875|0.0583038330078125|0.085784912109375|-0.9921722412109375|28266.104698875|2.879798571030551|0.05874887207300267|-0.09758295224181665|-0.02766616828739643|0.04108472913503647|-0.03153838589787483|-0.005181778222322464|-0.008897431194782257|-0.001515328884124756|XArbitraryZVertical|-0.0354474655949429|-0.04450507865046865|0.9896512038101448|0.1317322028704767|0.05843574926257133|0.09742815792560577|-0.9935255646705627|0|0|0|-1|-1|3
2021-04-09 09:41:47.857 +0100|28266.144620875|0.0572509765625|0.09161376953125|-0.9910736083984375|28266.124659875|2.879189301638844|0.0594595792389825|-0.09815382679332423|-0.02842335589230061|0.0358564630150795|-0.03063033521175385|-0.001474764198064804|-0.01129661500453949|0.0003860592842102051|XArbitraryZVertical|-0.03584955063064951|-0.04472993016741575|0.9895834395667148|0.1320560657826279|0.05913852527737617|0.0979962944984436|-0.993428111076355|0|0|0|-1|-1|3
2021-04-09 09:41:47.877 +0100|28266.164581875|0.05828857421875|0.0876312255859375|-0.983001708984375|28266.144620875|2.878615108742193|0.06002607210285075|-0.09862763426458515|-0.02115277759730816|0.02650610543787479|-0.02567188441753387|-0.005544252693653107|-0.009647168219089508|0.00299149751663208|XArbitraryZVertical|-0.03617333823616696|-0.04491666671674679|0.9895227678633967|0.1323583219208653|0.05969849601387978|0.09846781194210052|-0.9933479428291321|0|0|0|-1|-1|3
2021-04-09 09:41:47.898 +0100|28266.184541875|0.0547637939453125|0.0878753662109375|-0.9803466796875|28266.164581875|2.87808567832643|0.06028843962782994|-0.09890982450099509|-0.01847699843347073|0.01557894423604012|-0.02934535965323448|-0.001378141343593597|-0.007562868297100067|0.00618290901184082|XArbitraryZVertical|-0.03633332623291901|-0.04502935249057937|0.9894755662212742|0.1326294791728246|0.05995743721723557|0.09874863177537918|-0.9933044910430908|0|0|0|-1|-1|3
2021-04-09 09:41:47.916 +0100|28266.204502875|0.0521697998046875|0.09063720703125|-0.986114501953125|28266.184541875|2.877415028103282|0.06031330674043581|-0.09935031078983111|-0.03880573809146881|0.008725671097636223|-0.03890104964375496|-0.004039987921714783|-0.01254831999540329|0.0142098069190979|XArbitraryZVertical|-0.03638935826095259|-0.04523351451727122|0.9894188887923447|0.132966961704947|0.05997950956225395|0.09918694943189621|-0.9932594895362854|0|0|0|-1|-1|3
2021-04-09 09:41:47.936 +0100|28266.224463875|0.0475311279296875|0.0847015380859375|-0.9884490966796875|28266.204502875|2.876537457567754|0.0602798697759082|-0.09992789589910832|-0.04749105498194695|0.004586426075547934|-0.05260035023093224|-0.004064347594976425|-0.007355205714702606|0.007516860961914062|XArbitraryZVertical|-0.03643032767341775|-0.04550560323821226|0.9893457028920702|0.1334070688481811|0.05994283780455589|0.09976167231798172|-0.9932041168212891|0|0|0|-1|-1|3
2021-04-09 09:41:47.956 +0100|28266.244424875|0.0528411865234375|0.0835113525390625|-0.98138427734375|28266.224463875|2.875524079075682|0.0601884035532226|-0.101045313243256|-0.07737182825803757|-0.0003910749219357967|-0.05639570578932762|-0.01403756439685822|-0.01438739895820618|0.00547260046005249|XArbitraryZVertical|-0.03648128316356392|-0.04604619995097209|0.9892495707164056|0.1339191638689152|0.05984525009989738|0.1008734554052353|-0.993097722530365|0|0|0|-1|-1|3
2021-04-09 09:41:47.977 +0100|28266.264384875|0.0382537841796875|0.0819091796875|-0.971923828125|28266.244424875|2.874424303354406|0.05990032187695691|-0.1024746721623693|-0.07429454475641251|-0.01477683242410421|-0.06420852988958359|-0.006159160286188126|-0.01614506542682648|0.005573749542236328|XArbitraryZVertical|-0.03645805748392889|-0.04675272341681744|0.9891421741643216|0.1344728333386837|0.0595504604279995|0.1022954210639|-0.9929699897766113|0|0|0|-1|-1|3
2021-04-09 09:41:47.996 +0100|28266.284345875|0.01947021484375|0.0524749755859375|-0.9767913818359375|28266.264384875|2.872961730426566|0.05920225604876037|-0.10383984056648|-0.1000002324581146|-0.02652137167751789|-0.1199952811002731|-0.007899068295955658|-0.02139395475387573|0.01578962802886963|XArbitraryZVertical|-0.03623723894880166|-0.04744861487195854|0.9890186876597897|0.1351951098674034|0.05884897336363792|0.1036533266305923|-0.9928709864616394|0|0|0|-1|-1|3
2021-04-09 09:41:48.016 +0100|28266.304306875|0.017059326171875|0.0677947998046875|-0.971649169921875|28266.284345875|2.869710423054718|0.05886951442185792|-0.1065290892677191|-0.1675316840410233|0.00524103082716465|-0.1643249243497849|-0.05682271346449852|-0.03246066719293594|0.03041988611221313|XArbitraryZVertical|-0.03632965404840448|-0.04874248516918858|0.9887282662291722|0.1368244230454774|0.05850198864936829|0.1063277125358582|-0.9926086664199829|0|0|0|-1|-1|3
2021-04-09 09:41:48.037 +0100|28266.324267875|0.0004119873046875|0.053009033203125|-0.95318603515625|28266.304306875|2.866079063675083|0.05808975859475397|-0.1104445761105541|-0.2323961853981018|-0.01137528289109468|-0.2304566353559494|-0.007333293557167053|-0.04958249628543854|0.01920825242996216|XArbitraryZVertical|-0.03629798626494812|-0.05066643762378052|0.988379376607225|0.1386420581229414|0.05770336464047432|0.1102201789617538|-0.9922307133674622|0|0|0|-1|-1|3
2021-04-09 09:41:48.056 +0100|28266.344227125|-0.0157318115234375|0.0414581298828125|-0.9356842041015625|28266.324267875|2.861275288500491|0.05737505972718237|-0.1156327838369388|-0.3228975236415863|0.000548860989511013|-0.2879818975925446|-0.0633380115032196|-0.05281498283147812|0.02917832136154175|XArbitraryZVertical|-0.03642400236724905|-0.05319358494534384|0.9879011565422451|0.1410506904470526|0.05696064606308937|0.1153752729296684|-0.9916874766349792|0|0|0|-1|-1|3
2021-04-09 09:41:48.076 +0100|28266.364188125|-0.04925537109375|-0.01824951171875|-0.93133544921875|28266.344227125|2.855039032625975|0.05648779093980758|-0.123385395430451|-0.5252665281295776|-0.005450121592730284|-0.3825976848602295|-0.05717213451862335|-0.06991168111562729|0.04371696710586548|XArbitraryZVertical|-0.03669742670656036|-0.05697283909271186|0.9872279245628874|0.1441818983706862|0.05602854490280151|0.1230725646018982|-0.9908148050308228|0|0|0|-1|-1|3
2021-04-09 09:41:48.096 +0100|28266.384149125|-0.0686798095703125|0.04449462890625|-0.867156982421875|28266.364188125|2.847111026736281|0.05470678609734621|-0.1371027777772427|-0.9022271633148193|0.001897912006825209|-0.4723420441150665|-0.08590385317802429|-0.1398176997900009|0.05781388282775879|XArbitraryZVertical|-0.03703599770884376|-0.06372811404694176|0.9862124008901579|0.1481632084379326|0.05416639521718025|0.1366736590862274|-0.9891341328620911|0|0|0|-1|-1|3
2021-04-09 09:41:48.116 +0100|28266.404110125|-0.0786590576171875|0.0249176025390625|-0.8103790283203125|28266.384149125|2.837524277359663|0.05285741515239703|-0.1577821900394109|-1.192783951759338|-0.01363209821283817|-0.6079561710357666|-0.1109067648649216|-0.146005392074585|0.08785289525985718|XArbitraryZVertical|-0.03797100064670684|-0.07388332092626781|0.9847312037498148|0.1529839981269699|0.05217652767896652|0.1571283340454102|-0.986198902130127|0|0|0|-1|-1|3
2021-04-09 09:41:48.136 +0100|28266.424070125|-0.0996246337890625|0.0622406005859375|-0.7728118896484375|28266.404110125|2.825044418442592|0.04982870356744116|-0.1851713470344804|-1.477721571922302|-0.08316041529178619|-0.7546281814575195|-0.1212519034743309|-0.150775209069252|0.1398115158081055|XArbitraryZVertical|-0.03906248041887366|-0.08735988137299759|0.9826032643453418|0.1591648134646105|0.04895660281181335|0.1841149479150772|-0.9816847443580627|0|0|0|-1|-1|3
2021-04-09 09:41:48.156 +0100|28266.444031125|-0.1102447509765625|0.05694580078125|-0.7273101806640625|28266.424070125|2.809515642702333|0.04466213294480301|-0.2181764750498248|-1.785989046096802|-0.1230281442403793|-0.9280496835708618|-0.1311276853084564|-0.1741530001163483|0.1854794025421143|XArbitraryZVertical|-0.03988073021106875|-0.103679370410126|0.9797386380959754|0.1666508798533274|0.04358886927366257|0.2164496928453445|-0.9753202199935913|0|0|0|-1|-1|3
2021-04-09 09:41:48.176 +0100|28266.463992125|-0.1368560791015625|0.17950439453125|-0.7238922119140625|28266.444031125|2.790220320523868|0.03691516212971338|-0.2586441873896729|-2.145877599716187|-0.1829680800437927|-1.102715134620667|-0.1426119059324265|-0.2004270851612091|0.2216941118240356|XArbitraryZVertical|-0.04055729474566713|-0.1237561931618591|0.9758026490817551|0.1756383176264699|0.0356791727244854|0.2557700574398041|-0.9660789966583252|0|0|0|-1|-1|3
2021-04-09 09:41:48.196 +0100|28266.483953125|-0.1224517822265625|0.274658203125|-0.7360076904296875|28266.463992125|2.767106242507495|0.02644593142849252|-0.3049695303854485|-2.369282484054565|-0.2198039591312408|-1.273665189743042|-0.1496419608592987|-0.1786216497421265|0.2337958216667175|XArbitraryZVertical|-0.04111356871007776|-0.1467936966674423|0.9706619578658828|0.1859483156220936|0.02522267214953899|0.3002641201019287|-0.9535225629806519|0|0|0|-1|-1|3
2021-04-09 09:41:48.216 +0100|28266.503913125|-0.1220245361328125|0.26885986328125|-0.74090576171875|28266.483953125|2.739532481082109|0.01275048402796078|-0.3516660690384988|-2.247566699981689|-0.2699848115444183|-1.431944131851196|-0.1429046094417572|-0.1159168183803558|0.202517569065094|XArbitraryZVertical|-0.04107927036331199|-0.1701487259824485|0.9645108169459142|0.1976887256712093|0.01196983177214861|0.3444623947143555|-0.9387238025665283|0|0|0|-1|-1|3
2021-04-09 09:41:48.236 +0100|28266.523874125|-0.1008453369140625|0.3114471435546875|-0.7643890380859375|28266.503913125|2.707491270534143|-0.004696158174583855|-0.398362033451366|-2.519457817077637|-0.29146808385849|-1.564296841621399|-0.1159709617495537|-0.09382703900337219|0.18805992603302|XArbitraryZVertical|-0.04036290097685226|-0.1937191392737545|0.9573271683146669|0.2106385193319932|-0.004328421782702208|0.3879091441631317|-0.9216874837875366|0|0|0|-1|-1|3
2021-04-09 09:41:48.256 +0100|28266.543835125|-0.0735321044921875|0.3931427001953125|-0.7902679443359375|28266.523874125|2.67146173025061|-0.02588668084809177|-0.4525386963680135|-2.900604724884033|-0.3094017505645752|-1.668323159217834|-0.08447831869125366|-0.1838173568248749|0.1272488236427307|XArbitraryZVertical|-0.03998053456561553|-0.221093260518993|0.9483071721730149|0.224127098712623|-0.02327832579612732|0.4372500777244568|-0.8990386724472046|0|0|0|-1|-1|3
2021-04-09 09:41:48.276 +0100|28266.563796125|-0.06591796875|0.3919677734375|-0.8228759765625|28266.543835125|2.629249892472533|-0.05145719635176463|-0.5096164475275864|-2.945549964904785|-0.262312263250351|-1.886550903320312|-0.02089616283774376|-0.1148875951766968|0.09691941738128662|XArbitraryZVertical|-0.0397627468932342|-0.2500615869996875|0.9374656823615755|0.2388435982777384|-0.04489879682660103|0.487842470407486|-0.871776282787323|0|0|0|-1|-1|3
2021-04-09 09:41:48.296 +0100|28266.583756125|-0.028778076171875|0.5156402587890625|-0.7098846435546875|28266.563796125|2.579414413202676|-0.08117876923213155|-0.5660369402479605|-2.97864556312561|-0.2115371823310852|-1.98331880569458|-0.02204134315252304|-0.1720339059829712|0.02281737327575684|XArbitraryZVertical|-0.03996749974132951|-0.2788833103904929|0.9249157174921454|0.2552599211189102|-0.06844232976436615|0.5362913012504578|-0.841253399848938|0|0|0|-1|-1|3
2021-04-09 09:41:48.316 +0100|28266.603717125|-0.153076171875|0.3824462890625|-0.590087890625|28266.583756125|2.524132232627852|-0.1183360752649009|-0.6178658335804648|-2.602312564849854|-0.4205055832862854|-2.085545778274536|0.05775103718042374|-0.1078616976737976|0.02085679769515991|XArbitraryZVertical|-0.03855072430615045|-0.306277322606589|0.9114917127651185|0.2718289244047647|-0.09623274207115173|0.579296886920929|-0.8094161152839661|0|0|0|-1|-1|3
2021-04-09 09:41:48.336 +0100|28266.623678125|-0.1434326171875|0.0369873046875|-0.5741424560546875|28266.603717125|2.460882412197051|-0.1638453083034326|-0.6636750847331626|-3.016774892807007|-0.237216129899025|-2.407171010971069|0.04787856340408325|-0.1240423321723938|0.144218385219574|XArbitraryZVertical|-0.03545933497306102|-0.3318896010897938|0.8971214440045295|0.2894221935348099|-0.1284897774457932|0.6160159707069397|-0.7771838307380676|0|0|0|-1|-1|3
2021-04-09 09:41:48.356 +0100|28266.643639125|-0.4138946533203125|1.636749267578125|-0.53704833984375|28266.623678125|2.378854817615784|-0.2219793159798396|-0.7272334922627501|-4.001785755157471|-0.4151533842086792|-2.273085117340088|-0.00669310986995697|-0.6284745335578918|0.01591843366622925|XArbitraryZVertical|-0.03547528388228603|-0.3666030662349224|0.8767943313403639|0.3091529068446051|-0.1644637584686279|0.66480553150177|-0.7286874055862427|0|0|0|-1|-1|3
2021-04-09 09:41:48.376 +0100|28266.663599125|-0.190673828125|1.092376708984375|-0.7631988525390625|28266.643639125|2.300852190982142|-0.2804033393251138|-0.7721886420779647|-1.528933882713318|-0.02185402251780033|-2.275726318359375|-0.1626450568437576|0.2691529989242554|0.1140955090522766|XArbitraryZVertical|-0.03398582665966268|-0.393245285910149|0.8589108369057175|0.3263057941367991|-0.1982548385858536|0.6977047920227051|-0.688406229019165|0|0|0|-1|-1|3
2021-04-09 09:41:48.408 +0100|28266.683560125|-0.36566162109375|1.1365966796875|-0.9519805908203125|28266.663599125|2.231992885648008|-0.3260838182219876|-0.7658546177698361|0.2453656792640686|0.166707843542099|-2.415592432022095|-0.07588212192058563|0.8785477876663208|0.05184102058410645|XArbitraryZVertical|-0.02669629449123614|-0.3973455684808112|0.8488770470530265|0.3475798131483255|-0.2308948487043381|0.6931532621383667|-0.6828076243400574|0|0|0|-1|-1|3
2021-04-09 09:41:48.416 +0100|28266.703521125|-0.431549072265625|1.04827880859375|-0.942535400390625|28266.683560125|2.178334909755391|-0.3590998154006191|-0.7444148394925511|0.4036704897880554|0.2368312776088715|-2.006185531616211|0.007359623908996582|0.2822973728179932|-0.1850717067718506|XArbitraryZVertical|-0.01831987208813781|-0.3941814814750584|0.8423713964407405|0.367009658419686|-0.2584725618362427|0.6775415539741516|-0.6885706782341003|0|0|0|-1|-1|3
2021-04-09 09:41:48.436 +0100|28266.723482125|-0.457183837890625|0.9198150634765625|-0.8632659912109375|28266.703521125|2.13577502233834|-0.3823073948852719|-0.7238839884779292|0.2306529879570007|0.2931766211986542|-1.692791342735291|-0.1439633667469025|0.508965015411377|-0.2841912508010864|XArbitraryZVertical|-0.01187252623346332|-0.3902366988864323|0.8369166988126943|0.3835947018256994|-0.2795128226280212|0.6622996926307678|-0.6951487064361572|0|0|0|-1|-1|3
2021-04-09 09:41:48.456 +0100|28266.743442125|-0.4349212646484375|0.99505615234375|-0.7506103515625|28266.723482125|2.097409371914595|-0.4008702357199996|-0.7154043298948199|-0.529793381690979|0.3933074474334717|-1.29478645324707|-0.1443234384059906|0.2765419483184814|-0.2074947357177734|XArbitraryZVertical|-0.009459967162574554|-0.3904064133532337|0.8304227404902789|0.3973556343184947|-0.2945488393306732|0.6559226512908936|-0.6949867010116577|0|0|0|-1|-1|3
2021-04-09 09:41:48.475 +0100|28266.763403125|-0.3770599365234375|0.8659210205078125|-0.68017578125|28266.743442125|2.061953179478892|-0.415676933160042|-0.7200128094751214|-0.8896281123161316|0.440881609916687|-0.993156909942627|-0.1644185781478882|0.3259574174880981|-0.1336042881011963|XArbitraryZVertical|-0.01151238287466529|-0.3949419263802496|0.822896555460616|0.4083255658684718|-0.3035827577114105|0.6593943238258362|-0.6877766847610474|0|0|0|-1|-1|3
2021-04-09 09:41:48.496 +0100|28266.783364125|-0.256103515625|0.7616119384765625|-0.6755828857421875|28266.763403125|2.030837492652468|-0.427123090442118|-0.7305528147777229|-1.062384724617004|0.4682189226150513|-0.6915532350540161|-0.09236961603164673|0.2529304623603821|-0.02112746238708496|XArbitraryZVertical|-0.01585797690001559|-0.4010010671495786|0.8155304235841753|0.4169616429705159|-0.3085387945175171|0.667281448841095|-0.677893340587616|0|0|0|-1|-1|3
2021-04-09 09:41:48.515 +0100|28266.803325125|-0.1525115966796875|0.7411956787109375|-0.6216583251953125|28266.783364125|2.002588354487686|-0.4365818377908224|-0.7476484488387466|-1.392962574958801|0.4910442233085632|-0.5169256925582886|-0.0161491334438324|0.1323245167732239|-0.01850533485412598|XArbitraryZVertical|-0.02245025891320232|-0.4089517148469283|0.8080449222332986|0.4234597020084274|-0.3100675046443939|0.6799162626266479|-0.6645089387893677|0|0|0|-1|-1|3
2021-04-09 09:41:48.536 +0100|28266.823285125|-0.1326446533203125|0.7448272705078125|-0.6103363037109375|28266.803325125|1.972500855210453|-0.4476894464905261|-0.7708699297048803|-1.585332274436951|0.4587713479995728|-0.4669913947582245|0.1119480729103088|0.04497045278549194|-0.002540707588195801|XArbitraryZVertical|-0.03074629617432649|-0.419222506582797|0.7995520244836315|0.4289801137577048|-0.3105097115039825|0.6967595219612122|-0.6466143131256104|0|0|0|-1|-1|3
2021-04-09 09:41:48.556 +0100|28266.843246125|-0.1393890380859375|0.7674102783203125|-0.6142578125|28266.823285125|1.941568787905603|-0.4610271956568608|-0.7944306172726081|-1.456459403038025|0.3924776613712311|-0.4741572737693787|0.1773626506328583|0.03343790769577026|0.01463615894317627|XArbitraryZVertical|-0.0387715563086901|-0.4298007338273626|0.790847281773056|0.4339685879468376|-0.3117152750492096|0.7134647369384766|-0.6275361776351929|0|0|0|-1|-1|3
2021-04-09 09:41:48.575 +0100|28266.863207125|-0.1664581298828125|0.809173583984375|-0.6312408447265625|28266.843246125|1.912489633471684|-0.4744245110485507|-0.8130912216885857|-1.114924550056458|0.3690883815288544|-0.4805127382278442|0.1814353764057159|0.02442431449890137|0.002770960330963135|XArbitraryZVertical|-0.0452737978139595|-0.4384904771522337|0.7830033467049183|0.4388419204094999|-0.3139569461345673|0.7264150977134705|-0.6113527417182922|0|0|0|-1|-1|3
2021-04-09 09:41:48.595 +0100|28266.883167125|-0.2143402099609375|0.8426361083984375|-0.6344146728515625|28266.863207125|1.887249758479803|-0.4852882887931468|-0.8258698775452993|-0.7968938946723938|0.3876863121986389|-0.4611025452613831|0.1665666699409485|0.05572551488876343|-0.02227216958999634|XArbitraryZVertical|-0.05041399358038324|-0.444562148761263|0.7764933031644895|0.4437131423638669|-0.3162238895893097|0.7351377606391907|-0.5996458530426025|0|0|0|-1|-1|3
2021-04-09 09:41:48.615 +0100|28266.903128125|-0.2597503662109375|0.855499267578125|-0.6544036865234375|28266.883167125|1.866369738920517|-0.4929146486208576|-0.8333071491182275|-0.5250316858291626|0.385342001914978|-0.4279182255268097|0.1238414943218231|0.09373384714126587|-0.03969669342041016|XArbitraryZVertical|-0.05436731878285463|-0.448165568299119|0.7713494565895064|0.4485664578288787|-0.3181916773319244|0.740159273147583|-0.5923836231231689|0|0|0|-1|-1|3
2021-04-09 09:41:48.636 +0100|28266.923089125|-0.27618408203125|0.8056182861328125|-0.6500091552734375|28266.903128125|1.85048198881217|-0.4969101548243311|-0.8364631170969551|-0.2879630327224731|0.401643842458725|-0.3547313511371613|0.08418187499046326|0.1298691630363464|-0.0574944019317627|XArbitraryZVertical|-0.05735872197183637|-0.449649129191397|0.7675940939414722|0.4531281020162452|-0.3194408714771271|0.7422777414321899|-0.5890512466430664|0|0|0|-1|-1|3
2021-04-09 09:41:48.655 +0100|28266.943050125|-0.2453155517578125|0.8823089599609375|-0.668609619140625|28266.923089125|1.83870640617912|-0.4973036093205361|-0.8379747786106073|-0.2239533215761185|0.436033695936203|-0.2635260820388794|0.03964275121688843|0.06428182125091553|-0.06231480836868286|XArbitraryZVertical|-0.06032062644608585|-0.4498800674295645|0.7647909062076264|0.4572355109727927|-0.3191369473934174|0.7432898283004761|-0.587938666343689|0|0|0|-1|-1|3
2021-04-09 09:41:48.675 +0100|28266.963010125|-0.25762939453125|0.813140869140625|-0.6646728515625|28266.943050125|1.8308989716521|-0.49445340898655|-0.8382119329629613|-0.03104806691408157|0.4344897568225861|-0.2066086530685425|0.05947324633598328|0.1165066957473755|-0.07363247871398926|XArbitraryZVertical|-0.06323705047551051|-0.4490608895018314|0.7628900028505752|0.4608084577542523|-0.3173762857913971|0.7434484362602234|-0.5886907577514648|0|0|0|-1|-1|3
2021-04-09 09:41:48.695 +0100|28266.982971125|-0.2698822021484375|0.7578887939453125|-0.660675048828125|28266.963010125|1.826494848522918|-0.4891548137218912|-0.8356630796418654|0.09833630174398422|0.4341355264186859|-0.1713912785053253|0.07150590419769287|0.1014290452003479|-0.07501852512359619|XArbitraryZVertical|-0.06545418575586959|-0.4468761252747059|0.7619259615103294|0.4642052256404702|-0.3151419758796692|0.741741418838501|-0.5920349359512329|0|0|0|-1|-1|3
2021-04-09 09:41:48.715 +0100|28267.002932125|-0.27093505859375|0.769378662109375|-0.6644439697265625|28266.982971125|1.823426899952096|-0.4826750408234331|-0.8333195865393955|-0.04386579245328903|0.4427802264690399|-0.1116262078285217|0.04428383708000183|0.06033927202224731|-0.06775826215744019|XArbitraryZVertical|-0.06787875604364681|-0.4445123124845017|0.7612024190204162|0.4673031609302274|-0.3121050596237183|0.7401676177978516|-0.5956025719642639|0|0|0|-1|-1|3
2021-04-09 09:41:48.735 +0100|28267.022893125|-0.27496337890625|0.751068115234375|-0.6540069580078125|28267.002932125|1.820262731169374|-0.4767398132357664|-0.8350777034476237|-0.1827740371227264|0.3921471238136292|0.000274051446467638|0.03837570548057556|-0.005767881870269775|-0.07717466354370117|XArbitraryZVertical|-0.0713840646151358|-0.4435770352823185|0.7600985215244461|0.4694616737659523|-0.3079669773578644|0.7413486838340759|-0.5962874293327332|0|0|0|-1|-1|3
2021-04-09 09:41:48.755 +0100|28267.042853125|-0.2642974853515625|0.6844940185546875|-0.6561431884765625|28267.022893125|1.818448789359753|-0.4703004781788674|-0.8389328379893377|-0.2174978405237198|0.3882846236228943|0.06576819717884064|0.02574020624160767|0.03796076774597168|-0.06239056587219238|XArbitraryZVertical|-0.07542807562948448|-0.4432354006949804|0.7590883661533249|0.4707844675849092|-0.302823543548584|0.7439303994178772|-0.5957059860229492|0|0|0|-1|-1|3
2021-04-09 09:41:48.775 +0100|28267.062814125|-0.246978759765625|0.67767333984375|-0.636993408203125|28267.042853125|1.817252328620982|-0.4637004762634416|-0.8448048181612081|-0.3459875881671906|0.3619153797626495|0.125334233045578|0.02796071767807007|-0.0355151891708374|-0.06110262870788574|XArbitraryZVertical|-0.08001776226347802|-0.4435200127400141|0.7580104286336653|0.471495062924386|-0.2969264090061188|0.7478415369987488|-0.5937743186950684|0|0|0|-1|-1|3
2021-04-09 09:41:48.795 +0100|28267.082775125|-0.2411041259765625|0.7186126708984375|-0.6481475830078125|28267.062814125|1.816568113889799|-0.4570936245162274|-0.8535539682387016|-0.4488689303398132|0.3189058899879456|0.1926591247320175|0.03346151113510132|-0.08179169893264771|-0.05186426639556885|XArbitraryZVertical|-0.08538255160144703|-0.4447418333041276|0.7567516953862402|0.4714250190292967|-0.2900980710983276|0.7536212205886841|-0.5898290276527405|0|0|0|-1|-1|3
2021-04-09 09:41:48.816 +0100|28267.102736125|-0.24462890625|0.693450927734375|-0.6633453369140625|28267.082775125|1.818689924903078|-0.4485629085422238|-0.8621360882819015|-0.3642404079437256|0.3122451305389404|0.2864833474159241|0.04232770204544067|-0.05575823783874512|-0.05420768260955811|XArbitraryZVertical|-0.09079009221045031|-0.4455791446725242|0.7560425053573709|0.4707614513277394|-0.282240629196167|0.7592344880104065|-0.5864327549934387|0|0|0|-1|-1|3
2021-04-09 09:41:48.835 +0100|28267.122696125|-0.2311553955078125|0.658599853515625|-0.6715850830078125|28267.102736125|1.824696996754841|-0.4372137504198115|-0.8697096634146714|-0.2755343616008759|0.3229945003986359|0.3692741990089417|0.02954941987991333|-0.04639846086502075|-0.07016921043395996|XArbitraryZVertical|-0.096073856566708|-0.4456274663414405|0.7561626420015578|0.4694721681051526|-0.2731244564056396|0.7641416788101196|-0.5843719244003296|0|0|0|-1|-1|3
2021-04-09 09:41:48.855 +0100|28267.142657125|-0.2279815673828125|0.673553466796875|-0.6408233642578125|28267.122696125|1.833447141631268|-0.4237472157608115|-0.8764154941818533|-0.2417507171630859|0.3197436332702637|0.4295746386051178|0.02264010906219482|-0.112428605556488|-0.09213292598724365|XArbitraryZVertical|-0.1012703266619495|-0.445070679552321|0.7568473462697162|0.4678020601004373|-0.2631176114082336|0.7684500813484192|-0.5833128094673157|0|0|0|-1|-1|3
2021-04-09 09:41:48.875 +0100|28267.162618125|-0.243194580078125|0.710540771484375|-0.6325531005859375|28267.142657125|1.844129660837654|-0.4089741224481797|-0.8816037222547988|-0.1659303605556488|0.3106536865234375|0.4530793428421021|0.03080755472183228|-0.1047825217247009|-0.07537412643432617|XArbitraryZVertical|-0.1060651261852717|-0.4438639258527374|0.7580107923084406|0.4659986374374676|-0.2528829574584961|0.7717596888542175|-0.5834699869155884|0|0|0|-1|-1|3
2021-04-09 09:41:48.902 +0100|28267.182579125|-0.2636260986328125|0.674835205078125|-0.631683349609375|28267.162618125|1.856613033916564|-0.3927246341968158|-0.8856577004977083|-0.09441393613815308|0.3176391422748566|0.4639233648777008|0.006696909666061401|-0.08744144439697266|-0.05235636234283447|XArbitraryZVertical|-0.1106834919846687|-0.4420925634820962|0.759573944275723|0.4640590404859404|-0.242169514298439|0.7743313312530518|-0.5846066474914551|0|0|0|-1|-1|3
2021-04-09 09:41:48.915 +0100|28267.202539125|-0.2538604736328125|0.731109619140625|-0.611236572265625|28267.182579125|1.868499692405986|-0.3765230709044259|-0.8909700471277998|-0.339996874332428|0.3388270437717438|0.464105099439621|-0.02238814532756805|-0.06315839290618896|-0.04376786947250366|XArbitraryZVertical|-0.1157980874532654|-0.4407731630937426|0.7607834611864475|0.4620804983537772|-0.231150820851326|0.7776819467544556|-0.5846196413040161|0|0|0|-1|-1|3
2021-04-09 09:41:48.935 +0100|28267.222500125|-0.24090576171875|0.8163299560546875|-0.58245849609375|28267.202539125|1.877606535222602|-0.3626673138036753|-0.8991883637735854|-0.4585595428943634|0.307275801897049|0.4215904772281647|-0.04174226522445679|-0.1064608097076416|-0.05235391855239868|XArbitraryZVertical|-0.121483526528257|-0.440858596134269|0.7610564104416527|0.4600854631337|-0.2207536250352859|0.7828221321105957|-0.5817708969116211|0|0|0|-1|-1|3
2021-04-09 09:41:48.955 +0100|28267.242461125|-0.2731781005859375|0.8869171142578125|-0.579010009765625|28267.222500125|1.883153461577902|-0.3526761687184481|-0.9077890306053225|-0.532331109046936|0.2187135815620422|0.263924241065979|-0.03912653028964996|-0.0001044273376464844|-0.02459597587585449|XArbitraryZVertical|-0.1265750039473848|-0.4417861424629664|0.7606244842620792|0.4585349432297346|-0.212596669793129|0.7881448268890381|-0.5776075720787048|0|0|0|-1|-1|3
2021-04-09 09:41:48.975 +0100|28267.262422125|-0.30853271484375|0.9568023681640625|-0.5921630859375|28267.242461125|1.882656481378368|-0.3493750714565548|-0.9171523782186455|-0.5775663256645203|0.1577052474021912|0.1253710687160492|-0.03929723799228668|0.05349332094192505|-0.003848254680633545|XArbitraryZVertical|-0.130666280573512|-0.4441314263990015|0.7590885152824939|0.4576663516924145|-0.2081534713506699|0.7938732504844666|-0.571347177028656|0|0|0|-1|-1|3
2021-04-09 09:41:48.994 +0100|28267.282382125|-0.271759033203125|0.88671875|-0.6136474609375|28267.262422125|1.879632257976062|-0.3488354299266659|-0.9261792772416935|-0.5609810352325439|0.1710679233074188|0.1305242031812668|-0.09119677543640137|0.1392536759376526|-0.02494388818740845|XArbitraryZVertical|-0.1341722479368288|-0.4468187704172403|0.757177939185539|0.4572007545980678|-0.205387219786644|0.799329936504364|-0.5647016167640686|0|0|0|-1|-1|3
2021-04-09 09:41:49.014 +0100|28267.302343125|-0.1973876953125|0.8661956787109375|-0.5984649658203125|28267.282382125|1.877847914351222|-0.346962128339088|-0.9390692932148443|-0.7074260711669922|0.1564042270183563|0.207286536693573|-0.09972751140594482|0.1065809726715088|-0.05062311887741089|XArbitraryZVertical|-0.1390325314590673|-0.4505499668799323|0.754927241173002|0.4558067909127211|-0.200808584690094|0.8070088028907776|-0.5553493499755859|0|0|0|-1|-1|3
2021-04-09 09:41:49.035 +0100|28267.322304125|-0.1512908935546875|0.86859130859375|-0.529876708984375|28267.302343125|1.875646022464482|-0.3462262951452431|-0.9543061717985576|-0.8082718253135681|0.1119751483201981|0.2255825400352478|-0.0356522798538208|0.05972826480865479|-0.07341295480728149|XArbitraryZVertical|-0.1442394712545476|-0.4552602658133729|0.75230614914654|0.4538375894642926|-0.1962039619684219|0.8159127831459045|-0.5438661575317383|0|0|0|-1|-1|3
2021-04-09 09:41:49.054 +0100|28267.342265125|-0.1393280029296875|0.8853607177734375|-0.480865478515625|28267.322304125|1.871701312346575|-0.3478776585478783|-0.9702099335290996|-0.8135620951652527|0.0864391028881073|0.1654238700866699|0.02189347147941589|0.04125261306762695|-0.03591006994247437|XArbitraryZVertical|-0.1491474076859808|-0.46056249290069|0.749334700290577|0.4518129326258642|-0.1926535218954086|0.8250043988227844|-0.5312744975090027|0|0|0|-1|-1|3
2021-04-09 09:41:49.074 +0100|28267.362225125|-0.1501617431640625|0.98486328125|-0.4334259033203125|28267.342265125|1.864249225192007|-0.3530706294618973|-0.9854011969918111|-0.7423195242881775|0.07653150707483292|0.08003084361553192|0.04852251708507538|0.03065741062164307|0.01069480180740356|XArbitraryZVertical|-0.1533590678451296|-0.4661092350046659|0.7459175989461748|0.4503668073727928|-0.1910538077354431|0.8334938287734985|-0.5184463262557983|0|0|0|-1|-1|3
2021-04-09 09:41:49.094 +0100|28267.382186125|-0.1427154541015625|0.967742919921875|-0.40289306640625|28267.362225125|1.857032680906388|-0.3578253772197468|-0.9972374003533242|-0.4986230134963989|0.09318473190069199|0.02967321872711182|0.04542627930641174|0.09656381607055664|0.0526585578918457|XArbitraryZVertical|-0.1567398036696075|-0.4704304894357967|0.7429912939976964|0.4495463731965561|-0.190048024058342|0.839975118637085|-0.5082556009292603|0|0|0|-1|-1|3
2021-04-09 09:41:49.114 +0100|28267.402147125|-0.105072021484375|0.9310455322265625|-0.3656158447265625|28267.382186125|1.85305761032156|-0.3592395673149524|-1.004758590914644|-0.307839035987854|0.1015242114663124|0.03882064297795296|0.0398748517036438|0.1400681138038635|0.08645391464233398|XArbitraryZVertical|-0.1593572201630305|-0.4728387175348831|0.7411420525727306|0.4491519433737494|-0.1885401904582977|0.8440325260162354|-0.502057671546936|0|0|0|-1|-1|3
2021-04-09 09:41:49.134 +0100|28267.422108125|-0.0640869140625|0.8742523193359375|-0.3182220458984375|28267.402147125|1.851865316665358|-0.3581002663472858|-1.009948560216335|-0.1975233405828476|0.1102205514907837|0.08674938231706619|0.06083613634109497|0.1080450415611267|0.1108335256576538|XArbitraryZVertical|-0.1615836070252724|-0.4741406754576944|0.7400414459112835|0.4487985672098088|-0.1864301860332489|0.8468044996261597|-0.498162716627121|0|0|0|-1|-1|3
2021-04-09 09:41:49.154 +0100|28267.442068125|-0.011322021484375|0.8299713134765625|-0.2787017822265625|28267.422108125|1.854454736638098|-0.3532130822303394|-1.013628670035466|-0.1093365326523781|0.1283487975597382|0.1250198036432266|0.09398695826530457|0.05755507946014404|0.1572580337524414|XArbitraryZVertical|-0.1638550300006876|-0.4744272686362526|0.7396938204190997|0.4482449349649572|-0.182914137840271|0.8487561941146851|-0.4961405992507935|0|0|0|-1|-1|3
2021-04-09 09:41:49.174 +0100|28267.462029125|-0.0224151611328125|0.8064117431640625|-0.27581787109375|28267.442068125|1.858548858382411|-0.3472051996787661|-1.016521672686216|-0.05446274951100349|0.107192263007164|0.1266867518424988|0.1482263505458832|-0.005876064300537109|0.1990668177604675|XArbitraryZVertical|-0.1659499261061131|-0.4743425510467105|0.7396930914112989|0.4475645767330271|-0.1790938228368759|0.8502824306488037|-0.4949195384979248|0|0|0|-1|-1|3
2021-04-09 09:41:49.194 +0100|28267.481990125|-0.0403900146484375|0.824066162109375|-0.309417724609375|28267.462029125|1.86190613157844|-0.3422477474070844|-1.019717226202342|-0.08693781495094299|0.122842013835907|0.1005204916000366|0.1656250357627869|-0.02800047397613525|0.2163226008415222|XArbitraryZVertical|-0.1679154895953998|-0.4745364231461885|0.7395580130049858|0.4468484880895591|-0.1757252812385559|0.8519600033760071|-0.4932391345500946|0|0|0|-1|-1|3
2021-04-09 09:41:49.214 +0100|28267.501951125|-0.067535400390625|0.9030609130859375|-0.310516357421875|28267.481990125|1.863522698130438|-0.337787259415635|-1.024744120367295|-0.08952417969703674|0.179888054728508|0.04460538551211357|0.1348258554935455|-0.05791968107223511|0.1966972947120667|XArbitraryZVertical|-0.1706364715692184|-0.4752868089707791|0.738790472757227|0.4462897077976817|-0.1721020191907883|0.854581356048584|-0.4899712800979614|0|0|0|-1|-1|3
2021-04-09 09:41:49.234 +0100|28267.521912125|-0.104400634765625|0.914215087890625|-0.3013153076171875|28267.501951125|1.864074690987551|-0.332680020200499|-1.029796266585756|-0.07056988030672073|0.2698621451854706|0.002530814148485661|0.1198464184999466|0.009841024875640869|0.1720593869686127|XArbitraryZVertical|-0.1738501798775501|-0.4758127334944558|0.7377102567838399|0.4462756900542242|-0.1681851893663406|0.8571940660476685|-0.4867567121982574|0|0|0|-1|-1|3
2021-04-09 09:41:49.254 +0100|28267.541872125|-0.1294097900390625|0.9070281982421875|-0.30401611328125|28267.521912125|1.864993107173257|-0.3247112161522922|-1.035384302903027|-0.09969478845596313|0.3874781429767609|0.006217427551746368|0.07509438693523407|0.0627780556678772|0.1837143003940582|XArbitraryZVertical|-0.1781782354061956|-0.4759048175280105|0.7363583112116258|0.4467031389734825|-0.1627703011035919|0.8600584864616394|-0.4835342466831207|0|0|0|-1|-1|3
2021-04-09 09:41:49.274 +0100|28267.561833125|-0.1234588623046875|0.8903350830078125|-0.3162078857421875|28267.541872125|1.866447345532205|-0.3143106299919823|-1.039949476684521|-0.08964894711971283|0.4852542877197266|0.06962054222822189|0.03957477211952209|0.04432934522628784|0.1794294714927673|XArbitraryZVertical|-0.1829684070183135|-0.4751752903437549|0.7350345695323998|0.4477224317201223|-0.1565170586109161|0.8623786568641663|-0.4814620018005371|0|0|0|-1|-1|3
2021-04-09 09:41:49.294 +0100|28267.581794125|-0.091827392578125|0.847747802734375|-0.32452392578125|28267.561833125|1.869451235967195|-0.301127863060036|-1.041336441932759|0.01438151486217976|0.5587480664253235|0.113962359726429|0.01569332182407379|0.04826676845550537|0.1777752041816711|XArbitraryZVertical|-0.1874948426452852|-0.4729432440152834|0.7342683234816341|0.44946704323376|-0.1498017609119415|0.8630799651145935|-0.4823407530784607|0|0|0|-1|-1|3
2021-04-09 09:41:49.314 +0100|28267.601755125|-0.109375|0.82208251953125|-0.3528289794921875|28267.581794125|1.874123720384696|-0.285670071910788|-1.041389081216976|0.006307077128440142|0.5846258401870728|0.08690872043371201|0.03619164228439331|0.004096448421478271|0.166271984577179|XArbitraryZVertical|-0.1920818817950881|-0.469922331210234|0.7338453435631278|0.4513854852765207|-0.1423154473304749|0.8631065487861633|-0.4845550954341888|0|0|0|-1|-1|3
2021-04-09 09:41:49.334 +0100|28267.621715125|-0.2002105712890625|0.861236572265625|-0.3838348388671875|28267.601755125|1.873835117151055|-0.2742896149068142|-1.04416882134525|-0.3235671818256378|0.5838489532470703|-0.03699102997779846|0.0558202862739563|-0.02954590320587158|0.1478027105331421|XArbitraryZVertical|-0.1971052608828649|-0.4682239056369277|0.7322199656439561|0.4536187518885187|-0.1361414790153503|0.8645070791244507|-0.4838317930698395|0|0|0|-1|-1|3
2021-04-09 09:41:49.354 +0100|28267.641676125|-0.246429443359375|1.0035400390625|-0.3981170654296875|28267.621715125|1.863548580295251|-0.2714545572001189|-1.05289219325247|-0.6291464567184448|0.5895273089408875|-0.223077267408371|-0.02204206585884094|-0.04790502786636353|0.09749186038970947|XArbitraryZVertical|-0.2030136538544434|-0.4693819022311764|0.7281619537211177|0.4563401964763689|-0.1327420175075531|0.8688586950302124|-0.476932168006897|0|0|0|-1|-1|3
2021-04-09 09:41:49.374 +0100|28267.661637125|-0.269439697265625|0.9498138427734375|-0.4210968017578125|28267.641676125|1.84338937415001|-0.2776038407168895|-1.064930319741722|-0.5890785455703735|0.568802535533905|-0.4183882772922516|-0.1051788926124573|0.05803012847900391|0.07358813285827637|XArbitraryZVertical|-0.2089539405021248|-0.4725795418556422|0.7221966087222743|0.4598249744064477|-0.1327960938215256|0.8747551441192627|-0.466013640165329|0|0|0|-1|-1|3
2021-04-09 09:41:49.394 +0100|28267.681598125|-0.2617645263671875|0.84185791015625|-0.4467926025390625|28267.661637125|1.816200572699094|-0.2906383656122787|-1.075883741746817|-0.6209807395935059|0.5418696999549866|-0.5436490774154663|-0.1162438541650772|0.1297861337661743|0.04887738823890686|XArbitraryZVertical|-0.2138753975415057|-0.4761716558170822|0.7155082787276812|0.4642906803698658|-0.1361048817634583|0.8800102472305298|-0.4550357460975647|0|0|0|-1|-1|3
2021-04-09 09:41:49.414 +0100|28267.701558125|-0.2635498046875|0.8924407958984375|-0.4614105224609375|28267.681598125|1.783885286754114|-0.3088538279163653|-1.089369615898922|-0.9129575490951538|0.478821873664856|-0.5857771039009094|-0.1283832490444183|-0.01766729354858398|0.004076957702636719|XArbitraryZVertical|-0.2190857475449372|-0.4810761211672451|0.707787951734531|0.4686188680073429|-0.1407501846551895|0.8863351941108704|-0.4411343932151794|0|0|0|-1|-1|3
2021-04-09 09:41:49.434 +0100|28267.721519125|-0.2830657958984375|0.9272613525390625|-0.4910125732421875|28267.701558125|1.744651024185399|-0.3350516371535223|-1.10358806317127|-0.8298910856246948|0.3990408480167389|-0.677955150604248|-0.1095606088638306|-0.02939498424530029|-0.0290406346321106|XArbitraryZVertical|-0.2236320194266067|-0.4871481695866497|0.6992449632047015|0.473003248887028|-0.1480982005596161|0.8928291797637939|-0.4253507554531097|0|0|0|-1|-1|3
2021-04-09 09:41:49.454 +0100|28267.741480125|-0.3153076171875|0.6462860107421875|-0.45361328125|28267.721519125|1.704105623554222|-0.3650965090655874|-1.109054336474196|-0.198697492480278|0.2898336052894592|-0.7116572260856628|-0.1172714084386826|0.02119600772857666|-0.0607532262802124|XArbitraryZVertical|-0.2247790905577402|-0.4913266613685809|0.69215730386956|0.478530075961564|-0.1590641885995865|0.8952777981758118|-0.4161449372768402|0|0|0|-1|-1|3
2021-04-09 09:41:49.474 +0100|28267.761441125|-0.3363189697265625|0.3558807373046875|-0.4480743408203125|28267.741480125|1.670211266905334|-0.3914494866761205|-1.104616685465908|-0.01480225287377834|0.1592038571834564|-0.7386243343353271|-0.1308176815509796|-0.05941402912139893|-0.06531178951263428|XArbitraryZVertical|-0.222630229859199|-0.4926429925378117|0.6875619069439486|0.4847653778026029|-0.1714884042739868|0.8932919502258301|-0.4154773354530334|0|0|0|-1|-1|3
2021-04-09 09:41:49.494 +0100|28267.781401125|-0.4437713623046875|0.394744873046875|-0.40118408203125|28267.761441125|1.633545312406822|-0.4230156309642637|-1.103098045004424|-0.4627763628959656|-0.03602283820509911|-0.7526196241378784|-0.1456301808357239|-0.430037796497345|-0.02538305521011353|XArbitraryZVertical|-0.2203920737605325|-0.4958629454585307|0.6823215670795588|0.4898823593668494|-0.1850724816322327|0.8926083445549011|-0.4110945463180542|0|0|0|-1|-1|3
2021-04-09 09:41:49.514 +0100|28267.801362125|-0.614776611328125|0.36871337890625|-0.3875732421875|28267.781401125|1.592257983136944|-0.4630139363737636|-1.106332791209754|-0.5416485667228699|-0.2694917321205139|-0.8207209706306458|-0.1685025095939636|-0.507388710975647|-0.02176666259765625|XArbitraryZVertical|-0.2181714285697649|-0.502007370933004|0.6761713276830228|0.4931351924549229|-0.2000724673271179|0.8940619826316833|-0.400779664516449|0|0|0|-1|-1|3
2021-04-09 09:41:49.534 +0100|28267.821323125|-0.7515411376953125|0.412322998046875|-0.5237274169921875|28267.801362125|1.547221784035882|-0.5107986742261699|-1.106517581051619|-0.446257621049881|-0.4679108858108521|-0.9603812098503113|-0.3129826486110687|-0.5248664021492004|0.008159816265106201|XArbitraryZVertical|-0.2135324869010928|-0.5090120235248426|0.6701688450921196|0.496169840792113|-0.2189071923494339|0.8941447734832764|-0.3906212747097015|0|0|0|-1|-1|3
2021-04-09 09:41:49.554 +0100|28267.841284125|-0.8047637939453125|0.49456787109375|-0.6949462890625|28267.821323125|1.496373938246315|-0.5661572652729758|-1.104175734654796|-0.5678701400756836|-0.4909302294254303|-1.138891577720642|-0.4422394037246704|-0.4995843768119812|-0.05742630362510681|XArbitraryZVertical|-0.2073059136454369|-0.5169002251962634|0.6635506537947862|0.4995388537982331|-0.2413075417280197|0.8930937051773071|-0.3796768188476562|0|0|0|-1|-1|3
2021-04-09 09:41:49.573 +0100|28267.861244125|-0.8108978271484375|0.644500732421875|-0.7235107421875|28267.841284125|1.43709282324276|-0.6292586673347097|-1.100976177907656|-0.6529631018638611|-0.5517514944076538|-1.239038467407227|-0.5172251462936401|-0.4629079103469849|-0.263473242521286|XArbitraryZVertical|-0.2008210650272296|-0.5259890988546851|0.6553590310183062|0.5034987578298348|-0.2664499282836914|0.8916497230529785|-0.3660127222537994|0|0|0|-1|-1|3
2021-04-09 09:41:49.593 +0100|28267.881205125|-0.791839599609375|0.756134033203125|-0.74658203125|28267.861244125|1.377835999799712|-0.6930428105560525|-1.095161983612532|-0.4575912654399872|-0.5819999575614929|-1.234648585319519|-0.541560173034668|-0.3135320544242859|-0.3525669276714325|XArbitraryZVertical|-0.1936643965313056|-0.5351267162520428|0.6469847207750737|0.5074882594019282|-0.2925452291965485|0.8890024423599243|-0.3522669970989227|0|0|0|-1|-1|3
2021-04-09 09:41:49.614 +0100|28267.901166125|-0.7217864990234375|0.7643890380859375|-0.7933349609375|28267.881205125|1.33524071573558|-0.742912621963622|-1.081384237572394|0.1855411976575851|-0.6145275235176086|-1.186555862426758|-0.4701789021492004|-0.1692910194396973|-0.386034369468689|XArbitraryZVertical|-0.1839809507943249|-0.5413257744695072|0.6413215909481104|0.51168769788599|-0.3179975748062134|0.8826093673706055|-0.3462348282337189|0|0|0|-1|-1|3
2021-04-09 09:41:49.633 +0100|28267.921127125|-0.6282958984375|0.707611083984375|-0.8560791015625|28267.901166125|1.313888108754928|-0.7740407273335776|-1.058874089489537|0.753599226474762|-0.6452807188034058|-1.127846837043762|-0.4369491338729858|-0.1415488719940186|-0.4099172353744507|XArbitraryZVertical|-0.1714086196593356|-0.5435748946207719|0.639050214589964|0.5164886035497075|-0.3424230515956879|0.8718044757843018|-0.350290834903717|0|0|0|-1|-1|3
2021-04-09 09:41:49.653 +0100|28267.941087125|-0.528961181640625|0.682647705078125|-0.8753814697265625|28267.921127125|1.309359348744679|-0.79188829524769|-1.029142359862302|1.073208093643188|-0.7569613456726074|-1.120185136795044|-0.2952899038791656|-0.07229554653167725|-0.4745833575725555|XArbitraryZVertical|-0.155768287588139|-0.5428141579359477|0.6396162021501864|0.5215172061558522|-0.3669100105762482|0.8568571209907532|-0.3621780574321747|0|0|0|-1|-1|3
2021-04-09 09:41:49.673 +0100|28267.961048125|-0.3942413330078125|0.698822021484375|-0.896575927734375|28267.941087125|1.311317103171304|-0.8075710992577827|-0.998366080474653|1.183002233505249|-0.9632694721221924|-1.024118185043335|-0.2037774622440338|-0.2131602764129639|-0.4998305141925812|XArbitraryZVertical|-0.1386172650440309|-0.5418179528461704|0.641322283429968|0.5252852088360983|-0.3914212286472321|0.8405870795249939|-0.3744371235370636|0|0|0|-1|-1|3
2021-04-09 09:41:49.693 +0100|28267.981009125|-0.279449462890625|0.797882080078125|-0.9663848876953125|28267.961048125|1.322914405859596|-0.8184386345543663|-0.9651326000165953|1.60749089717865|-1.086088418960571|-0.9368859529495239|-0.05025544762611389|-0.1078447103500366|-0.49453204870224|XArbitraryZVertical|-0.1194463084016361|-0.5396395685553448|0.6448971857347855|0.5278536332026752|-0.4156402349472046|0.8221244215965271|-0.3890434205532074|0|0|0|-1|-1|3
2021-04-09 09:41:49.713 +0100|28268.000970125|-0.1687774658203125|0.8292236328125|-0.98516845703125|28267.981009125|1.351638119049076|-0.8180451260505296|-0.9266321881441011|2.253746032714844|-1.207882523536682|-0.7204424142837524|0.09330371022224426|-0.09789562225341797|-0.5235758423805237|XArbitraryZVertical|-0.0973636631967882|-0.5340826748980433|0.6521044898759004|0.529184001279031|-0.4382734596729279|0.7996020317077637|-0.4105520248413086|0|0|0|-1|-1|3
2021-04-09 09:41:49.733 +0100|28268.020930125|0.017578125|0.8067474365234375|-1.05889892578125|28268.000970125|1.397461283241071|-0.8074146410330227|-0.8835125500311547|2.710927486419678|-1.349157452583313|-0.4535694420337677|0.2259024083614349|0.04753929376602173|-0.5369693040847778|XArbitraryZVertical|-0.07259682447909921|-0.5247987078643349|0.6633394784003985|0.5284855305499397|-0.4583843648433685|0.7729721665382385|-0.4386320412158966|0|0|0|-1|-1|3
2021-04-09 09:41:49.753 +0100|28268.040891125|0.1342315673828125|1.122177124023438|-1.174880981445312|28268.020930125|1.451339784831592|-0.7950631085432179|-0.8405247957809925|2.847568988800049|-1.527901768684387|-0.1623121947050095|0.3992177546024323|0.07097101211547852|-0.532355785369873|XArbitraryZVertical|-0.04684060953811449|-0.5140532734748693|0.6767995115542256|0.524878847350928|-0.4762279689311981|0.744993269443512|-0.4671103656291962|0|0|0|-1|-1|3
2021-04-09 09:41:49.773 +0100|28268.060852125|0.2808990478515625|1.342193603515625|-1.293411254882812|28268.040891125|1.516534242566205|-0.7790572066618872|-0.797013057784546|3.490703344345093|-1.610928297042847|0.2671485245227814|0.5794260501861572|0.2313839793205261|-0.6016862392425537|XArbitraryZVertical|-0.01994556739906266|-0.5009599875329064|0.6932900133425539|0.5176778869545013|-0.4910157024860382|0.7152718901634216|-0.4972825348377228|0|0|0|-1|-1|3
2021-04-09 09:41:49.793 +0100|28268.080813125|0.5391998291015625|1.350173950195312|-1.51495361328125|28268.060852125|1.603288762508289|-0.7496222457726378|-0.7481303389559374|4.371721744537354|-1.482552528381348|0.8944461941719055|0.6732875108718872|0.5832501649856567|-0.6775922775268555|XArbitraryZVertical|0.008348110100881054|-0.4813375774996954|0.7154271987660592|0.5063679140440551|-0.4994127452373505|0.6802695393562317|-0.5364888906478882|0|0|0|-1|-1|3
2021-04-09 09:41:49.813 +0100|28268.100773125|0.3528594970703125|1.147476196289062|-1.622756958007812|28268.080813125|1.710100396858205|-0.7069580140601792|-0.6941328146648166|4.947592735290527|-1.320939540863037|1.481465578079224|0.9115231037139893|0.823965311050415|-0.8041604161262512|XArbitraryZVertical|0.03624683929539519|-0.4544047502835024|0.7429995724159928|0.4900553689633489|-0.49922975897789|0.6397191286087036|-0.5844050049781799|0|0|0|-1|-1|3
2021-04-09 09:41:49.833 +0100|28268.120734125|-0.09210205078125|0.53253173828125|-1.966781616210938|28268.100773125|1.826283215899553|-0.6586643042858068|-0.6382685546204677|5.225994110107422|-0.9113455414772034|2.012743234634399|1.015002131462097|0.6174360513687134|-0.9461462497711182|XArbitraryZVertical|0.0615589411574485|-0.4226692065896445|0.7731057028884184|0.4689017153197974|-0.4915637671947479|0.5958057641983032|-0.6351224780082703|0|0|0|-1|-1|3
2021-04-09 09:41:49.853 +0100|28268.140695125|-0.62518310546875|-0.622222900390625|-2.548599243164062|28268.120734125|1.942014227358294|-0.5998565748456399|-0.5768422834976141|5.102444171905518|0.3408336341381073|1.901119947433472|0.6461524367332458|0.4077453017234802|-1.072900533676147|XArbitraryZVertical|0.08041901521628203|-0.3841942597335131|0.803467231869591|0.4476248527380453|-0.4731778800487518|0.5453798770904541|-0.6918551325798035|0|0|0|-1|-1|3
2021-04-09 09:41:49.873 +0100|28268.160656125|-1.026718139648438|-0.837432861328125|-2.292770385742188|28268.140695125|2.022805275821044|-0.5302399294946293|-0.5232306633246256|2.957772731781006|2.478874921798706|0.8893872499465942|0.04864317178726196|-0.5386061668395996|-1.52704119682312|XArbitraryZVertical|0.08207124570958506|-0.3458771866759901|0.8260950846679789|0.4372646927252227|-0.4380770623683929|0.4996811747550964|-0.7472665905952454|0|0|0|-1|-1|3
2021-04-09 09:41:49.893 +0100|28268.180616125|-1.197784423828125|0.2932281494140625|-1.511459350585938|28268.160656125|2.041784355310977|-0.4474392151018155|-0.4997101031672802|-0.02634971961379051|4.853785037994385|-0.4696784615516663|-0.4569765329360962|-1.308913469314575|-1.712498188018799|XArbitraryZVertical|0.05727612996241161|-0.317900940314532|0.8341822318622825|0.4469883159168619|-0.3797534704208374|0.479171097278595|-0.7913168668746948|0|0|0|-1|-1|3
2021-04-09 09:41:49.913 +0100|28268.200577125|-1.172622680664062|1.801559448242188|-0.8783721923828125|28268.180616125|2.012933147182124|-0.3432514374374958|-0.5172656514042159|-2.367297649383545|6.92548131942749|-1.099979400634766|-0.8271676301956177|-0.8731368184089661|-1.129557251930237|XArbitraryZVertical|0.004721371131795709|-0.3012339412807076|0.8282061442395756|0.4725575236329477|-0.2925212681293488|0.494505375623703|-0.8184716701507568|0|0|0|-1|-1|3
2021-04-09 09:41:49.933 +0100|28268.220538125|-0.727325439453125|2.261337280273438|-1.1190185546875|28268.200577125|1.97337222506219|-0.2105151421012311|-0.562840500095385|-2.686856746673584|8.30069637298584|-0.9238280057907104|-1.023281574249268|0.5307863354682922|-0.312927782535553|XArbitraryZVertical|-0.06810690391573479|-0.2860517033343443|0.8130424964328808|0.5024916276954108|-0.1767295598983765|0.5335906744003296|-0.8270717263221741|0|0|0|-1|-1|3
2021-04-09 09:41:49.953 +0100|28268.240499125|-0.970672607421875|1.88458251953125|-0.2760467529296875|28268.220538125|1.948857126733687|-0.0538567807202912|-0.6125906904137869|-2.478330135345459|8.526228904724121|-0.5640199780464172|-0.9463741779327393|1.507759571075439|-0.08971750736236572|XArbitraryZVertical|-0.1480488493677698|-0.2638069297329885|0.7931462197135084|0.5285892193779471|-0.04404222592711449|0.5749889612197876|-0.8169748783111572|0|0|0|-1|-1|3
2021-04-09 09:41:49.973 +0100|28268.260460125|-0.347198486328125|1.504959106445312|0.0663604736328125|28268.240499125|1.952276682349004|0.1178633993846664|-0.6729429168653484|-3.301271677017212|8.202707290649414|0.5427195429801941|-1.146015644073486|0.784684419631958|0.2040712237358093|XArbitraryZVertical|-0.2306936227519137|-0.2418630316690532|0.7696401979043999|0.5440007194183496|0.09195484220981598|0.6232900023460388|-0.7765654325485229|0|0|0|-1|-1|3
2021-04-09 09:41:49.993 +0100|28268.280420125|-0.08709716796875|1.622024536132812|0.31097412109375|28268.260460125|1.993352012648278|0.2940676513225024|-0.7310148236387697|-3.264986038208008|6.700006484985352|1.340963125228882|-0.8053740859031677|1.087318420410156|0.5391072034835815|XArbitraryZVertical|-0.3069102307041449|-0.2225692216160728|0.7473035369966766|0.5457165410058293|0.215790793299675|0.6676254868507385|-0.7125381231307983|0|0|0|-1|-1|3
2021-04-09 09:41:50.013 +0100|28268.300381125|0.281890869140625|1.759201049804688|0.2067413330078125|28268.280420125|2.061609052324089|0.4578871037698741|-0.7741463714355409|-2.237326145172119|5.006602764129639|1.685998320579529|-0.5964862108230591|0.9160522222518921|0.8673005104064941|XArbitraryZVertical|-0.3692649964070807|-0.2072723758898608|0.7294879941655446|0.5371488696139988|0.3160765171051025|0.699105978012085|-0.6413630247116089|0|0|0|-1|-1|3
2021-04-09 09:41:50.032 +0100|28268.320342125|0.234832763671875|1.430618286132812|0.1505126953125|28268.300381125|2.118526471262959|0.5796740233043736|-0.775912757639093|0.02926853485405445|3.219132900238037|1.717162370681763|-0.2069531083106995|1.059001088142395|0.8776062726974487|XArbitraryZVertical|-0.4081505375231612|-0.1866101331810425|0.7206000979519241|0.5285124934005414|0.3909750580787659|0.7003678679466248|-0.5971795916557312|0|0|0|-1|-1|3
2021-04-09 09:41:50.052 +0100|28268.34030441667|0.137939453125|0.9466552734375|0.2100067138671875|28268.320342125|2.14355858354545|0.6438906751681955|-0.7442246106509233|1.349859356880188|1.520407199859619|1.604779124259949|-0.1527169644832611|0.943295419216156|0.7257706522941589|XArbitraryZVertical|-0.4238710252423001|-0.1617837575896101|0.7208801945019629|0.5239190551463832|0.4415972530841827|0.677401602268219|-0.5883187651634216|0|0|0|-1|-1|3
2021-04-09 09:41:50.073 +0100|28268.36026441667|0.007080078125|0.613555908203125|0.1424713134765625|28268.34030441667|2.148816929380385|0.6632943979941973|-0.7010197285712237|1.7464439868927|0.143339142203331|1.324496865272522|-0.3094482123851776|0.5811684727668762|0.8033259510993958|XArbitraryZVertical|-0.4235183511807742|-0.1398411148394035|0.7275953708114274|0.5212310006712393|0.470520943403244|0.6449972987174988|-0.6021533608436584|0|0|0|-1|-1|3
2021-04-09 09:41:50.092 +0100|28268.38022541667|-0.1274566650390625|0.7044219970703125|0.00518798828125|28268.36026441667|2.146158854591492|0.6551980795179465|-0.6609374489324024|1.510657906532288|-0.6901077032089233|0.984844982624054|-0.3949289917945862|0.09602749347686768|0.8201497197151184|XArbitraryZVertical|-0.414110976042884|-0.1246471146514076|0.7370810514524495|0.519313821728012|0.4810047745704651|0.6138571500778198|-0.6259503960609436|0|0|0|-1|-1|3
2021-04-09 09:41:50.112 +0100|28268.40018641667|-0.1889495849609375|0.702178955078125|-0.152008056640625|28268.38022541667|2.141939918426086|0.6347953644006964|-0.6287268944523642|1.288540840148926|-1.026231527328491|0.7049362659454346|-0.5438688397407532|0.06779879331588745|0.726326048374176|XArbitraryZVertical|-0.4012859907500768|-0.1155800786508537|0.7467126543511126|0.5177172532971654|0.4796150624752045|0.5881155729293823|-0.6512215733528137|0|0|0|-1|-1|3
2021-04-09 09:41:50.133 +0100|28268.42014741667|-0.1944732666015625|0.59368896484375|-0.173614501953125|28268.40018641667|2.136671502688374|0.6109642079179979|-0.6023023048551226|1.106843233108521|-1.022427439689636|0.5048685669898987|-0.6497139930725098|0.1495844125747681|0.5867210626602173|XArbitraryZVertical|-0.3879513559269935|-0.1096027224736985|0.7552473676278378|0.516800377217231|0.4727130234241486|0.5665411353111267|-0.6749619841575623|0|0|0|-1|-1|3
2021-04-09 09:41:50.152 +0100|28268.44010741667|-0.145904541015625|0.466888427734375|-0.1002960205078125|28268.42014741667|2.131863729867181|0.5892730392638605|-0.5808000205114072|0.882119357585907|-0.8826274871826172|0.3807032406330109|-0.6603800058364868|0.1020333766937256|0.520296573638916|XArbitraryZVertical|-0.376049913389225|-0.1052345489440967|0.762237910544398|0.5162418729378558|0.4646260440349579|0.5486929416656494|-0.695024311542511|0|0|0|-1|-1|3
2021-04-09 09:41:50.172 +0100|28268.46006841667|-0.0991973876953125|0.4360504150390625|-0.058349609375|28268.44010741667|2.128930799337402|0.5713207409667406|-0.5649601785598997|0.5532943606376648|-0.7648955583572388|0.288260817527771|-0.6277979016304016|-0.01133430004119873|0.5659905076026917|XArbitraryZVertical|-0.3663699311977926|-0.1026420414418329|0.767742030718997|0.5155676435424645|0.4567173719406128|0.5353822112083435|-0.7104753851890564|0|0|0|-1|-1|3
2021-04-09 09:41:50.192 +0100|28268.48002941667|-0.06890869140625|0.4352264404296875|-0.1420745849609375|28268.46006841667|2.128831899029565|0.5567923647816305|-0.5556408266838017|0.2698447108268738|-0.6861693859100342|0.2094367742538452|-0.5668836832046509|-0.08351808786392212|0.6610753536224365|XArbitraryZVertical|-0.3590099240602493|-0.1024296672671994|0.7720378358629971|0.5143711201386095|0.4489647746086121|0.5274878144264221|-0.7212401032447815|0|0|0|-1|-1|3
2021-04-09 09:41:50.212 +0100|28268.49999041667|-0.0736541748046875|0.38946533203125|-0.1787261962890625|28268.48002941667|2.129988692666839|0.5448188428714151|-0.5503468393068979|0.1431116312742233|-0.565753698348999|0.138560563325882|-0.5231732130050659|-0.09088444709777832|0.6349027156829834|XArbitraryZVertical|-0.353302192861654|-0.1034724875195406|0.7754111373720516|0.513038774392153|0.4417381286621094|0.5229828953742981|-0.7289420366287231|0|0|0|-1|-1|3
2021-04-09 09:41:50.232 +0100|28268.51995041667|-0.0330352783203125|0.3549652099609375|-0.1348419189453125|28268.49999041667|2.130840928804518|0.5354547671867036|-0.5477308897941963|0.03417767211794853|-0.4194647073745728|0.04166295006871223|-0.5088001489639282|-0.132445752620697|0.5601183772087097|XArbitraryZVertical|-0.3491169652024934|-0.1049146590982642|0.7777355234613716|0.5120915536761447|0.4355895221233368|0.520751416683197|-0.7342205047607422|0|0|0|-1|-1|3
2021-04-09 09:41:50.252 +0100|28268.53991141667|-0.01953125|0.42352294921875|-0.118194580078125|28268.51995041667|2.130959947099357|0.5280131772467018|-0.5488496520184548|-0.1545881927013397|-0.3436265885829926|-0.08433413505554199|-0.4799287915229797|-0.1576009392738342|0.5613861680030823|XArbitraryZVertical|-0.346431461390191|-0.1073139023842732|0.778863655069532|0.5117035062626537|0.4298199415206909|0.5217061638832092|-0.736937940120697|0|0|0|-1|-1|3
2021-04-09 09:41:50.272 +0100|28268.55987241667|-0.00482177734375|0.495697021484375|-0.147430419921875|28268.53991141667|2.130835583118871|0.5216560507912237|-0.5541332144171014|-0.2607751190662384|-0.292540967464447|-0.1781165450811386|-0.4544008374214172|-0.1539224982261658|0.619854748249054|XArbitraryZVertical|-0.3449875838476905|-0.1111572567232501|0.7790036079096595|0.5116453886447601|0.4237469434738159|0.5262064337730408|-0.7372552752494812|0|0|0|-1|-1|3
2021-04-09 09:41:50.292 +0100|28268.57983341667|0.0136260986328125|0.4556884765625|-0.168212890625|28268.55987241667|2.129192093700119|0.5152021283412191|-0.5604310288063221|-0.221704363822937|-0.2761001884937286|-0.262265682220459|-0.4282936453819275|-0.0466727614402771|0.606690526008606|XArbitraryZVertical|-0.3437910024048613|-0.1151936235737412|0.7785860305807609|0.5121935204947136|0.4173388779163361|0.5315513610839844|-0.7370763421058655|0|0|0|-1|-1|3
2021-04-09 09:41:50.312 +0100|28268.59979341667|0.070037841796875|0.3462066650390625|-0.2329254150390625|28268.57983341667|2.12562350353379|0.5077517072053308|-0.568173728216986|-0.3378393054008484|-0.2791772186756134|-0.3920206725597382|-0.4066017866134644|-0.05757904052734375|0.5798241496086121|XArbitraryZVertical|-0.3426107722246512|-0.1197687501942572|0.777581063544469|0.5134598995377895|0.409822404384613|0.538093626499176|-0.7365466356277466|0|0|0|-1|-1|3
2021-04-09 09:41:50.332 +0100|28268.61975441667|0.1268157958984375|0.28570556640625|-0.3675537109375|28268.59979341667|2.12184707577572|0.4997091661202467|-0.5817582553942202|-0.7242858409881592|-0.3312151432037354|-0.5356142520904541|-0.3656615018844604|-0.1461734771728516|0.5478190183639526|XArbitraryZVertical|-0.3423752554232237|-0.1269321976632738|0.775567769739464|0.5149390258467411|0.4003457427024841|0.5494937896728516|-0.7333347797393799|0|0|0|-1|-1|3
2021-04-09 09:41:50.352 +0100|28268.63971541667|0.1414794921875|0.3538055419921875|-0.4473876953125|28268.61975441667|2.119518174137566|0.4915010333142889|-0.6044273059737273|-1.184302687644958|-0.3524586856365204|-0.7191644906997681|-0.2788962721824646|-0.2448808550834656|0.4280783534049988|XArbitraryZVertical|-0.3437788460875281|-0.1382142989039761|0.7722748180783267|0.5160470167524046|0.3883333504199982|0.5682909488677979|-0.7254258394241333|0|0|0|-1|-1|3
2021-04-09 09:41:50.372 +0100|28268.65967641667|0.1016845703125|0.4300689697265625|-0.3936767578125|28268.63971541667|2.11765387781282|0.4834885446399946|-0.6368976649606453|-1.595728993415833|-0.33953458070755|-0.9443901777267456|-0.2353167831897736|-0.295921802520752|0.2886849641799927|XArbitraryZVertical|-0.34713139868905|-0.1536297974874212|0.7671555799264086|0.5170783892178745|0.3737302720546722|0.5947042107582092|-0.7117953300476074|0|0|0|-1|-1|3
2021-04-09 09:41:50.392 +0100|28268.67963641667|0.1295166015625|0.5622100830078125|-0.40106201171875|28268.65967641667|2.114103303734957|0.4744162133261783|-0.6786429503456093|-1.993516087532043|-0.3730959594249725|-1.2443927526474|-0.2319261431694031|-0.222845196723938|0.2582063674926758|XArbitraryZVertical|-0.3519804605545062|-0.1728638085627475|0.7598163767643801|0.5185625000304087|0.3555996716022491|0.6277372241020203|-0.6924557089805603|0|0|0|-1|-1|3
2021-04-09 09:41:50.412 +0100|28268.69959741667|0.1191253662109375|0.7059326171875|-0.557830810546875|28268.67963641667|2.10632844737241|0.4607904245754934|-0.7294642438249564|-2.264529943466187|-0.4945223927497864|-1.572907209396362|-0.2255625128746033|-0.1679045557975769|0.2904854416847229|XArbitraryZVertical|-0.3572307608547984|-0.1962125462926028|0.7500720836550988|0.5208442853067001|0.3315052688121796|0.6664702892303467|-0.6677736639976501|0|0|0|-1|-1|3
2021-04-09 09:41:50.432 +0100|28268.71955841667|0.057708740234375|0.705718994140625|-0.5876007080078125|28268.69959741667|2.091815594173519|0.4401085838301339|-0.7864275776302067|-2.453011751174927|-0.5510457158088684|-1.888981580734253|-0.1699614524841309|-0.08622169494628906|0.1744349002838135|XArbitraryZVertical|-0.3618582838756971|-0.2225450820526003|0.738148843560252|0.5240884887415788|0.300943911075592|0.7078343033790588|-0.6390645503997803|0|0|0|-1|-1|3
2021-04-09 09:41:50.452 +0100|28268.73951941667|0.0509033203125|0.7865753173828125|-0.565521240234375|28268.71955841667|2.068943354605039|0.4125454822498101|-0.8519572762119026|-2.926475048065186|-0.5271435976028442|-2.275418758392334|-0.1675124168395996|-0.07755231857299805|0.001321077346801758|XArbitraryZVertical|-0.3669897262958534|-0.2523614316811761|0.7229360411550109|0.528200598106314|0.2640252709388733|0.7525707483291626|-0.6032645106315613|0|0|0|-1|-1|3
2021-04-09 09:41:50.472 +0100|28268.75948041667|0.0543975830078125|1.0101318359375|-0.5992431640625|28268.73951941667|2.034705116091852|0.3748437798610361|-0.9289560208184673|-3.305594921112061|-0.6008493900299072|-2.633761644363403|-0.1935843229293823|-0.07295262813568115|-0.005672216415405273|XArbitraryZVertical|-0.3730495987834171|-0.2868502396419521|0.7033994675527683|0.5327103521341143|0.2191895991563797|0.8009953498840332|-0.557101845741272|0|0|0|-1|-1|3
2021-04-09 09:41:50.492 +0100|28268.77944041667|0.0359649658203125|1.224472045898438|-0.7280731201171875|28268.75948041667|1.983993153547509|0.3194427308896794|-1.010289406909716|-3.284351587295532|-0.7594567537307739|-2.806962251663208|-0.1041258126497269|0.04368531703948975|-0.05797618627548218|XArbitraryZVertical|-0.3778617184350549|-0.3238204259290684|0.6811408668350006|0.5370365166499517|0.1669473350048065|0.8469857573509216|-0.5047217011451721|0|0|0|-1|-1|3
2021-04-09 09:41:50.512 +0100|28268.79940141667|0.0052642822265625|1.2208251953125|-0.7584228515625|28268.77944041667|1.909475595099779|0.2385502531521054|-1.0840334661079|-2.750755310058594|-0.8594897389411926|-2.796802759170532|-0.04949453473091125|0.2510056495666504|-0.2155529260635376|XArbitraryZVertical|-0.3791579706398314|-0.3591360684759644|0.6587451799278361|0.5415861437869744|0.1105307340621948|0.8838517069816589|-0.4545210301876068|0|0|0|-1|-1|3
2021-04-09 09:41:50.532 +0100|28268.81936241667|-0.0208587646484375|1.160919189453125|-0.680419921875|28268.79940141667|1.808138072061686|0.1298162106117588|-1.142752154825024|-2.244330644607544|-0.8970608711242676|-2.683008670806885|-0.03023496270179749|0.3254656791687012|-0.3628137707710266|XArbitraryZVertical|-0.3766054219743306|-0.3903440413784705|0.6379393369829779|0.5466566282772483|0.05373451113700867|0.9097793102264404|-0.4115997850894928|0|0|0|-1|-1|3
2021-04-09 09:41:50.552 +0100|28268.83932341667|0.0296783447265625|1.036270141601562|-0.6663360595703125|28268.81936241667|1.681848060804762|-0.004215547103854675|-1.186520519912356|-1.815424084663391|-0.9042842984199524|-2.587592363357544|-0.01758366823196411|0.2738578319549561|-0.3523792028427124|XArbitraryZVertical|-0.3714684585741565|-0.4178143648182137|0.6186957352839699|0.5519583509543445|-0.001580353360623121|0.927070140838623|-0.374884694814682|0|0|0|-1|-1|3
2021-04-09 09:41:50.572 +0100|28268.85928341667|0.002105712890625|0.966552734375|-0.9237518310546875|28268.83932341667|1.534990128191933|-0.160342899165163|-1.214816979043424|-1.367041349411011|-1.010184049606323|-2.472630023956299|0.06554573774337769|0.1392938494682312|-0.2673197984695435|XArbitraryZVertical|-0.363756125058959|-0.4423373070637318|0.6012016491966077|0.5572934205450961|-0.0556417778134346|0.9373056292533875|-0.3440383672714233|0|0|0|-1|-1|3
2021-04-09 09:41:50.592 +0100|28268.87924441667|-0.1031036376953125|0.8190155029296875|-0.8852386474609375|28268.85928341667|1.384782642405217|-0.3205820933505817|-1.224070571098907|-0.899667501449585|-0.838405430316925|-2.343604564666748|0.1615588963031769|0.1003577709197998|-0.5227219462394714|XArbitraryZVertical|-0.3531685759695277|-0.4626209313217052|0.5863857326235133|0.5633878638707401|-0.1070840060710907|0.9404904246330261|-0.3225076496601105|0|0|0|-1|-1|3
2021-04-09 09:41:50.611 +0100|28268.89920541667|-0.204803466796875|0.8034210205078125|-0.6504974365234375|28268.87924441667|1.2407778114328|-0.4688036430207673|-1.223116335823243|-0.9043727517127991|-0.445013016462326|-2.234267473220825|0.1027658730745316|-0.07548028230667114|-0.6368988752365112|XArbitraryZVertical|-0.3438259085983288|-0.4793797695830508|0.5714692794444851|0.5704399774231724|-0.153942883014679|0.9401656985282898|-0.3039575517177582|0|0|0|-1|-1|3
2021-04-09 09:41:50.631 +0100|28268.91916641667|-0.2587127685546875|0.6627197265625|-0.5566864013671875|28268.89920541667|1.108563442258687|-0.5996022044420448|-1.21374338696994|-0.6103554368019104|-0.2646779716014862|-2.199310302734375|0.04126185178756714|-0.1301982402801514|-0.4876074492931366|XArbitraryZVertical|-0.3355993684964209|-0.4930519434776899|0.5562735989793042|0.578647353999886|-0.1972362697124481|0.9369309544563293|-0.288545697927475|0|0|0|-1|-1|3
2021-04-09 09:41:50.652 +0100|28268.93912641667|-0.27435302734375|0.7095794677734375|-0.748748779296875|28268.91916641667|0.9918151978402614|-0.7149018209814341|-1.194995688170877|-0.4483691155910492|-0.4200240969657898|-2.256169319152832|-0.01552173495292664|-0.2129436731338501|-0.2661018371582031|XArbitraryZVertical|-0.3258879874196415|-0.5051918915356625|0.5416513279586033|0.5875306373757303|-0.2405961006879807|0.9302140474319458|-0.2771563529968262|0|0|0|-1|-1|3
2021-04-09 09:41:50.671 +0100|28268.95908741667|-0.30517578125|0.8096466064453125|-0.933685302734375|28268.93912641667|0.8924107054177978|-0.817863223691948|-1.169889172345174|-0.4735532701015472|-0.6463173627853394|-2.170461177825928|0.05142655968666077|-0.2211219072341919|-0.3963589370250702|XArbitraryZVertical|-0.3139567134294668|-0.5176938047540361|0.5281872747660677|0.595350850455224|-0.2847630083560944|0.9207073450088501|-0.266848623752594|0|0|0|-1|-1|3
2021-04-09 09:41:50.691 +0100|28268.97904841667|-0.3565826416015625|0.967071533203125|-0.991973876953125|28268.95908741667|0.8057560694372569|-0.9115040031345036|-1.145869013424939|-0.5212289094924927|-0.7869337797164917|-1.933982253074646|0.0153108537197113|-0.179973840713501|-0.5949734449386597|XArbitraryZVertical|-0.3027882116543826|-0.5310879536640649|0.5153275630437948|0.6005851035630324|-0.3258568048477173|0.9110686779022217|-0.2525297701358795|0|0|0|-1|-1|3
2021-04-09 09:41:50.711 +0100|28268.99900941667|-0.4266510009765625|1.232940673828125|-1.14080810546875|28268.97904841667|0.742427782547747|-0.9861247565442818|-1.119310734909276|-0.06370444595813751|-0.9544899463653564|-1.810908079147339|0.0565190315246582|-0.0136299729347229|-0.726310133934021|XArbitraryZVertical|-0.2903018415541545|-0.5434348815093778|0.50495983649038|0.604499006942997|-0.3638301491737366|0.8997999429702759|-0.2408067435026169|0|0|0|-1|-1|3
2021-04-09 09:41:50.731 +0100|28269.01896941667|-0.4701080322265625|1.3922119140625|-1.246688842773438|28268.99900941667|0.7160100110984817|-1.031322937493482|-1.085655893914936|0.9435713291168213|-1.208984017372131|-1.646712183952332|-0.002620607614517212|0.2002909183502197|-0.8252711892127991|XArbitraryZVertical|-0.2729463943818508|-0.5529253390452762|0.4995923143766866|0.6084252743703775|-0.4001036584377289|0.8846094608306885|-0.2395476698875427|0|0|0|-1|-1|3
2021-04-09 09:41:50.751 +0100|28269.03893041667|-0.4015960693359375|1.351089477539062|-1.276962280273438|28269.01896941667|0.732622337872925|-1.04262665070509|-1.047891974377705|1.613816261291504|-1.369687080383301|-1.159352660179138|-0.01169195771217346|0.533439040184021|-0.9355666041374207|XArbitraryZVertical|-0.250611840730792|-0.5579936279471399|0.5015590133811105|0.6117806298213492|-0.4313461184501648|0.8663724064826965|-0.2516736388206482|0|0|0|-1|-1|3
2021-04-09 09:41:50.771 +0100|28269.05889141667|-0.294708251953125|1.222976684570312|-1.192626953125|28269.03893041667|0.7767413871925217|-1.033726886922366|-1.01466818637596|2.061643362045288|-1.517256736755371|-0.5673723816871643|-0.01262140274047852|0.5228418111801147|-1.005900144577026|XArbitraryZVertical|-0.2273706912610663|-0.5596962593930431|0.5099532739074063|0.6123646637109722|-0.4535795748233795|0.8493054509162903|-0.270085334777832|0|0|0|-1|-1|3
2021-04-09 09:41:50.791 +0100|28269.07885241667|-0.2696990966796875|1.253555297851562|-1.189178466796875|28269.05889141667|0.8439216069983468|-1.009841014962859|-0.9850528075239948|2.584917068481445|-1.776363253593445|-0.07383985817432404|0.1405538618564606|0.457669198513031|-0.9542545080184937|XArbitraryZVertical|-0.202980840534375|-0.5583459147391121|0.5245133363171086|0.6098642778957052|-0.4680981338024139|0.833301305770874|-0.2940972447395325|0|0|0|-1|-1|3
2021-04-09 09:41:50.811 +0100|28269.09881341667|-0.2745513916015625|1.36688232421875|-1.362808227539062|28269.07885241667|0.9323965180600835|-0.9757569033359397|-0.956380833924161|3.188135623931885|-2.12318229675293|0.3872714042663574|0.1972945034503937|0.385725200176239|-0.8522732257843018|XArbitraryZVertical|-0.1760392143594977|-0.5544722136568626|0.545201279487826|0.6035945566086331|-0.4773992002010345|0.817110538482666|-0.3231415152549744|0|0|0|-1|-1|3
2021-04-09 09:41:50.831 +0100|28269.11877341667|-0.0748138427734375|1.220016479492188|-1.820663452148438|28269.09881341667|1.041333476746021|-0.9326193284650607|-0.9265954223133824|3.651954412460327|-2.334218740463257|0.887313187122345|0.2022852897644043|0.509060263633728|-0.9043272733688354|XArbitraryZVertical|-0.1462123657740579|-0.5474810701891611|0.5718038315979954|0.5932342948364034|-0.4823594987392426|0.799579918384552|-0.3577728569507599|0|0|0|-1|-1|3
2021-04-09 09:41:50.851 +0100|28269.13873441667|0.189422607421875|1.32080078125|-2.363327026367188|28269.11877341667|1.157794869872885|-0.8878876677687227|-0.9003947697320426|3.748155355453491|-2.414533615112305|1.421066880226135|0.2877704799175262|0.528730034828186|-1.132096767425537|XArbitraryZVertical|-0.1173667548061678|-0.5386914323257669|0.6012838886419968|0.5783549319137937|-0.4819682240486145|0.783572256565094|-0.3920731842517853|0|0|0|-1|-1|3
2021-04-09 09:41:50.871 +0100|28269.15869541667|0.1928253173828125|1.358291625976562|-2.921554565429688|28269.13873441667|1.295827691563538|-0.8276581277542719|-0.8712072274241623|4.804430961608887|-2.138216495513916|2.13892936706543|0.5956900119781494|0.5006561279296875|-1.68640398979187|XArbitraryZVertical|-0.08802084936314233|-0.5238502998479555|0.6362680567933278|0.5594606744042042|-0.4741375744342804|0.7651068568229675|-0.4356663823127747|0|0|0|-1|-1|3
2021-04-09 09:41:50.891 +0100|28269.17865641667|0.021575927734375|0.849609375|-2.970458984375|28269.15869541667|1.463602004007486|-0.7340871134557161|-0.8315540566559058|5.7281494140625|-1.040927290916443|2.895326375961304|0.6060622334480286|0.6273543238639832|-2.141778469085693|XArbitraryZVertical|-0.06111338448408577|-0.4961479874328999|0.6783983565636797|0.5384034671827835|-0.4513371586799622|0.7389792799949646|-0.5002046823501587|0|0|0|-1|-1|3
2021-04-09 09:41:50.911 +0100|28269.19861641667|-0.241424560546875|-0.2302398681640625|-2.702011108398438|28269.17865641667|1.628546874261035|-0.6185783240853102|-0.7789658470394627|5.238796710968018|0.92861407995224|2.608368158340454|0.6152563095092773|0.5181444883346558|-2.459393262863159|XArbitraryZVertical|-0.04348868524578468|-0.456311987813683|0.720170908015091|0.5208091767158018|-0.412664383649826|0.7025438547134399|-0.5797762274742126|0|0|0|-1|-1|3
2021-04-09 09:41:50.931 +0100|28269.21857741667|-1.709732055664062|-0.5236663818359375|-1.60028076171875|28269.19861641667|1.754618068764568|-0.4884742315687315|-0.7356977700503531|2.840376377105713|3.362975358963013|2.702072858810425|0.4875554740428925|-0.2615430355072021|-2.232424736022949|XArbitraryZVertical|-0.04952675438016805|-0.4125735693012884|0.7518665582444189|0.5118857586926528|-0.3479060530662537|0.6711046099662781|-0.6546602845191956|0|0|0|-1|-1|3
2021-04-09 09:41:50.951 +0100|28269.23853841667|-1.755218505859375|0.9237060546875|0.2413787841796875|28269.21857741667|1.81129984674243|-0.3483127896798803|-0.7489199309694895|-2.261141538619995|6.8484206199646|1.514329791069031|-0.9886760711669922|-1.41719114780426|-1.384830236434937|XArbitraryZVertical|-0.09543743800007169|-0.3829757369586691|0.7603423291607057|0.5158497674926004|-0.2499856352806091|0.6808480620384216|-0.688442587852478|0|0|0|-1|-1|3
2021-04-09 09:41:50.971 +0100|28269.25849941667|-0.702789306640625|1.347808837890625|1.860748291015625|28269.23853841667|1.815550493831187|-0.1786706220550977|-0.829923458385199|-4.94550895690918|9.51570987701416|1.134138226509094|-1.733656167984009|-0.4978281259536743|-0.226498007774353|XArbitraryZVertical|-0.1828053171884376|-0.3667263779955643|0.7405108433437618|0.532670485113326|-0.119949996471405|0.7378796935081482|-0.6641879677772522|0|0|0|-1|-1|3
2021-04-09 09:41:50.990 +0100|28269.27845941667|-0.1314544677734375|0.970062255859375|1.761016845703125|28269.25849941667|1.850631956867656|0.04449906382426826|-0.9276729725022784|-4.540412902832031|9.463132858276367|1.587886095046997|-1.278385162353516|0.4407099485397339|1.844374418258667|XArbitraryZVertical|-0.2849647580601263|-0.3453157255086172|0.7082462274968733|0.5458385064168855|0.02667718939483166|0.8002265691757202|-0.5991042852401733|0|0|0|-1|-1|3
2021-04-09 09:41:51.010 +0100|28269.29842041667|0.12603759765625|1.852218627929688|0.76263427734375|28269.27845941667|1.931355941569449|0.2750409157775167|-1.012256751194133|-4.943811416625977|6.909128189086914|1.670269131660461|-0.195714071393013|0.689201831817627|2.210088491439819|XArbitraryZVertical|-0.3717866700739031|-0.3267410319516559|0.6747274327655901|0.5475017287137803|0.1439267694950104|0.8480299711227417|-0.5100299119949341|0|0|0|-1|-1|3
2021-04-09 09:41:51.030 +0100|28269.31838141667|-0.83001708984375|1.8104248046875|-0.1568145751953125|28269.29842041667|2.081369447028553|0.5274852944546831|-1.103539227097895|-5.181185245513916|5.450073719024658|1.653607368469238|-0.4615200161933899|0.4259948134422302|2.098625659942627|XArbitraryZVertical|-0.4474209164308632|-0.3243575129883032|0.6402142027904735|0.5336033296414028|0.2267339527606964|0.8928071260452271|-0.3892134428024292|0|0|0|-1|-1|3
2021-04-09 09:41:51.051 +0100|28269.33834179167|-0.596649169921875|2.070602416992188|0.5861053466796875|28269.31838141667|2.264997332914709|0.7970395678832768|-1.146597961730491|-2.910581350326538|4.890552043914795|1.887834310531616|-0.5923794507980347|0.8710865378379822|0.2684206962585449|XArbitraryZVertical|-0.5073524080780849|-0.3142899335464748|0.6117643061604602|0.5191916272496799|0.2944067716598511|0.9113689661026001|-0.2876307368278503|0|0|0|-1|-1|3
2021-04-09 09:41:51.070 +0100|28269.35830179167|-0.1749267578125|1.036666870117188|1.287033081054688|28269.33834179167|2.37848665327854|0.9855761865692899|-1.139379930425329|-0.3463884890079498|3.520825862884521|1.589571714401245|-1.203033447265625|1.098156332969666|0.4013638496398926|XArbitraryZVertical|-0.5466660763490575|-0.2926849971557221|0.5935117329609609|0.5130649662831472|0.3485726118087769|0.9083743691444397|-0.2309833914041519|0|0|0|-1|-1|3
2021-04-09 09:41:51.091 +0100|28269.37826279167|0.0992584228515625|0.647186279296875|1.0574951171875|28269.35830179167|2.406434617507955|1.06115218013731|-1.117162889880577|0.1099688708782196|1.462538480758667|0.8516070246696472|-0.7582288980484009|0.7155343890190125|1.232462525367737|XArbitraryZVertical|-0.5647217275403255|-0.2723771509858747|0.5861861885468237|0.5131140400559817|0.3825430870056152|0.89886075258255|-0.2138001173734665|0|0|0|-1|-1|3
2021-04-09 09:41:51.110 +0100|28269.39822379167|-0.139862060546875|0.9984893798828125|0.32696533203125|28269.37826279167|2.417849149794221|1.082037996541585|-1.111502386863126|-0.2120279520750046|-0.2465001195669174|-0.02550126612186432|-0.3798590302467346|-0.1909823417663574|1.502233505249023|XArbitraryZVertical|-0.5692710155145725|-0.2680587630238744|0.584829858140121|0.5119074883410384|0.3914107978343964|0.8963657021522522|-0.2081500142812729|0|0|0|-1|-1|3
2021-04-09 09:41:51.132 +0100|28269.41818479167|-0.2207183837890625|1.2117919921875|-0.031036376953125|28269.39822379167|2.41694550332102|1.068174880821126|-1.115947707002437|0.2060375362634659|-0.9270200133323669|-0.3303139209747314|-0.3711970746517181|-0.1252257823944092|0.8817859292030334|XArbitraryZVertical|-0.5653427341087209|-0.2730758773201682|0.5872451406942567|0.5108428435882746|0.3849918246269226|0.8983275294303894|-0.2116343230009079|0|0|0|-1|-1|3
2021-04-09 09:41:51.151 +0100|28269.43814479167|-0.1559295654296875|0.839508056640625|-0.041168212890625|28269.41818479167|2.37900164500705|1.013679967352643|-1.114194748007993|1.343474984169006|-1.077250957489014|-0.3325618505477905|-0.5912083387374878|0.284603476524353|0.3124840557575226|XArbitraryZVertical|-0.5544446317603876|-0.2757354332406364|0.5932854289345453|0.5143673332535951|0.3742292523384094|0.8975560665130615|-0.233122244477272|0|0|0|-1|-1|3
2021-04-09 09:41:51.170 +0100|28269.45810579167|-0.146240234375|0.5139007568359375|-0.0180206298828125|28269.43814479167|2.310602565475696|0.9307199806580518|-1.100256597167822|1.745133280754089|-1.102181673049927|-0.2398601621389389|-0.568273663520813|0.1813691854476929|0.204951286315918|XArbitraryZVertical|-0.5385711374351455|-0.2730434087471751|0.6022947055139453|0.5221394948412783|0.3636235892772675|0.8913237452507019|-0.2707768678665161|0|0|0|-1|-1|3
2021-04-09 09:41:51.190 +0100|28269.47806679167|-0.234130859375|0.5575408935546875|-0.0498199462890625|28269.45810579167|2.254624269905622|0.858892322709539|-1.084723935176998|1.183480024337769|-1.105765104293823|-0.1568197906017303|-0.4759309589862823|-0.2403908967971802|0.2890397608280182|XArbitraryZVertical|-0.5234848308168975|-0.270873178138033|0.6111713299623708|0.5282623382212792|0.3536936342716217|0.8841744661331177|-0.3051826953887939|0|0|0|-1|-1|3
2021-04-09 09:41:51.210 +0100|28269.49802779167|-0.1811370849609375|0.6729583740234375|-0.1055755615234375|28269.47806679167|2.223657291362867|0.810725396319236|-1.074442829358048|0.6712411046028137|-0.9789613485336304|-0.0601518303155899|-0.5439505577087402|-0.3799200057983398|0.30530846118927|XArbitraryZVertical|-0.5120828099420693|-0.271512483489873|0.6183968347689172|0.5306954447067468|0.3451598882675171|0.8793249726295471|-0.3281043469905853|0|0|0|-1|-1|3
2021-04-09 09:41:51.230 +0100|28269.51798779167|-0.07366943359375|0.6925506591796875|-0.142333984375|28269.49802779167|2.205920695429578|0.7769294576114272|-1.066087845604066|0.5912564992904663|-0.8559154272079468|0.05933524295687675|-0.5658822059631348|-0.2584177255630493|0.2605484426021576|XArbitraryZVertical|-0.5032482485440222|-0.2726496861407632|0.624645322967943|0.531245538597955|0.3390154838562012|0.8753154873847961|-0.3448067009449005|0|0|0|-1|-1|3
2021-04-09 09:41:51.250 +0100|28269.53794879167|-0.0134429931640625|0.53143310546875|-0.1899871826171875|28269.53794879167|2.176557459531189|0.7185058064466774|-1.040861181389145|0.6848234534263611|-0.7995619773864746|0.2469514757394791|-0.3676165640354156|-0.2535259127616882|0.2106888592243195|XArbitraryZVertical|-0.4862041894184259|-0.2708251804372393|0.6383665650329262|0.5317399415646059|0.3327358663082123|0.8628398776054382|-0.3805184066295624|0|0|0|-1|-1|3
2021-04-09 09:41:51.270 +0100|28269.55790979167|-0.0275115966796875|0.5795745849609375|-0.169036865234375||||||||||||||||||||||||3
2021-04-09 09:41:51.290 +0100|28269.57787079167|0.029083251953125|0.5826873779296875|-0.0836639404296875|28269.55790979167|2.167643433883006|0.6952755507723444|-1.026750647880392|0.7100914716720581|-0.7766117453575134|0.3062291741371155|-0.3563537001609802|-0.3072664737701416|0.2116492986679077|XArbitraryZVertical|-0.4783378096103474|-0.269194212105839|0.6454834686243661|0.5311108602437002|0.3315743505954742|0.8556216359138489|-0.3974548280239105|0|0|0|-1|-1|3
2021-04-09 09:41:51.310 +0100|28269.59783179167|0.112091064453125|0.6923828125|-0.00567626953125|28269.57787079167|2.159668949729279|0.6721910712073778|-1.01186787681736|0.7010287046432495|-0.8754675388336182|0.3007717430591583|-0.3342173397541046|-0.2756954431533813|0.2839250564575195|XArbitraryZVertical|-0.4701144894469951|-0.2674543986093336|0.6528836097867264|0.5302863896209133|0.3302052319049835|0.8478237986564636|-0.4149210155010223|0|0|0|-1|-1|3
2021-04-09 09:41:51.330 +0100|28269.61779179167|0.130828857421875|0.5665740966796875|0.0178070068359375|28269.59783179167|2.150670687335179|0.6453764161800273|-0.9963137049937877|0.8350250720977783|-1.059772968292236|0.2604006230831146|-0.2487748861312866|-0.2105825543403625|0.3879512250423431|XArbitraryZVertical|-0.4605197463158303|-0.2662093067328592|0.6609019101652455|0.5293986670591049|0.3268550634384155|0.8394735455513|-0.4341083467006683|0|0|0|-1|-1|3
2021-04-09 09:41:51.350 +0100|28269.63775279167|0.0860137939453125|0.67962646484375|-0.0069427490234375|28269.61779179167|2.139565253013129|0.612845961385218|-0.982386009080637|0.6189034581184387|-1.267311334609985|0.05812341347336769|-0.1940277516841888|-0.1692415475845337|0.468847393989563|XArbitraryZVertical|-0.4492963923561649|-0.2666787409411864|0.669031912538628|0.5285941507321832|0.3192576169967651|0.8318240642547607|-0.4540303945541382|0|0|0|-1|-1|3
2021-04-09 09:41:51.370 +0100|28269.65771379167|0.0377197265625|0.708984375|0.0038604736328125|28269.63775279167|2.125473613192797|0.5743851313937961|-0.974293016629849|0.5393622517585754|-1.409382820129395|-0.2637565135955811|-0.1902197897434235|-0.1991767883300781|0.4796182513237|XArbitraryZVertical|-0.4370918222442021|-0.2704577348477983|0.6759288224023748|0.5281322652575658|0.3052110075950623|0.8273049592971802|-0.4716067016124725|0|0|0|-1|-1|3
2021-04-09 09:41:51.390 +0100|28269.67767479167|0.0382537841796875|0.7461090087890625|0.00933837890625|28269.65771379167|2.102967791858041|0.5267575259192461|-0.970236549954294|0.4613970518112183|-1.490559101104736|-0.6073713898658752|-0.2312087714672089|-0.137244701385498|0.4877223074436188|XArbitraryZVertical|-0.4233852595650657|-0.2765772563396399|0.6812588182245037|0.5292791991551904|0.2840967178344727|0.8250194191932678|-0.4884998798370361|0|0|0|-1|-1|3
2021-04-09 09:41:51.410 +0100|28269.69763479167|0.003631591796875|0.7113494873046875|0.0289764404296875|28269.67767479167|2.072147058176436|0.4711630642095786|-0.9712182907899799|0.2460042238235474|-1.526845335960388|-0.9752163290977478|-0.2156482636928558|-0.08601069450378418|0.5014366507530212|XArbitraryZVertical|-0.408895203157514|-0.2853069113840166|0.6844031429112843|0.531974822850674|0.2561461329460144|0.8255738019943237|-0.5028093457221985|0|0|0|-1|-1|3
2021-04-09 09:41:51.430 +0100|28269.71759579167|-0.0143890380859375|0.75079345703125|-0.04693603515625|28269.69763479167|2.034437116940919|0.4090368357018133|-0.9800986104711777|-0.1742289811372757|-1.570451617240906|-1.308736801147461|-0.1954924762248993|-0.1102915406227112|0.5387976765632629|XArbitraryZVertical|-0.3947203819036624|-0.2978221250018748|0.6846385401745917|0.5355072911170425|0.2215097397565842|0.8305522799491882|-0.510995626449585|0|0|0|-1|-1|3
2021-04-09 09:41:51.450 +0100|28269.73755679167|0.0386810302734375|0.7441864013671875|-0.183074951171875|28269.71759579167|1.990125322828995|0.3401972432764153|-0.9975150447317056|-0.5237277150154114|-1.616800665855408|-1.590780973434448|-0.1961934864521027|-0.1121134757995605|0.5287327766418457|XArbitraryZVertical|-0.3813639110621587|-0.314496776888447|0.6818932319021566|0.5391429313682654|0.1809815168380737|0.8401257395744324|-0.5113067030906677|0|0|0|-1|-1|3
2021-04-09 09:41:51.470 +0100|28269.75751779167|0.015228271484375|0.7383575439453125|-0.233306884765625|28269.73755679167|1.937298227992224|0.2632372772958915|-1.020176656269036|-0.8197678923606873|-1.594673156738281|-1.773494124412537|-0.1149187088012695|-0.08619379997253418|0.3788652420043945|XArbitraryZVertical|-0.3685503828188482|-0.3340276654199799|0.6766966252840827|0.5428425736344282|0.1361447274684906|0.852200448513031|-0.5051922798156738|0|0|0|-1|-1|3
2021-04-09 09:41:51.490 +0100|28269.77747779167|-0.0382232666015625|0.68231201171875|-0.13409423828125|28269.75751779167|1.874707001443127|0.1791770520445684|-1.047186357299727|-1.144056677818298|-1.418277978897095|-1.959985375404358|-0.05308464914560318|-0.1299203634262085|0.2565776407718658|XArbitraryZVertical|-0.357222223586851|-0.3555134376257122|0.6687355570976563|0.5466217209665414|0.08911167085170746|0.8660197854042053|-0.4920049607753754|0|0|0|-1|-1|3
2021-04-09 09:41:51.510 +0100|28269.79743879167|0.01776123046875|0.83221435546875|-0.1283416748046875|28269.77747779167|1.79824017738139|0.08620475257243515|-1.079592818103398|-1.577274322509766|-1.215497851371765|-2.151091814041138|-0.05820372700691223|-0.1810361742973328|0.2800256013870239|XArbitraryZVertical|-0.3484739535699578|-0.3789431180594966|0.657073700991555|0.550656224620345|0.04061136767268181|0.8817658424377441|-0.4699360430240631|0|0|0|-1|-1|3
2021-04-09 09:41:51.530 +0100|28269.81739979167|-0.0395660400390625|0.999908447265625|-0.2695159912109375|28269.79743879167|1.703832085054936|-0.0212391827310994|-1.114309213567945|-1.687073349952698|-1.148982644081116|-2.254611015319824|-0.005041778087615967|-0.1670764088630676|0.3232367038726807|XArbitraryZVertical|-0.341417085368834|-0.403838063851638|0.6423931080342068|0.5546894739842714|-0.009361481294035912|0.8976064920425415|-0.4406983852386475|0|0|0|-1|-1|3
2021-04-09 09:41:51.550 +0100|28269.83736079167|-0.0997772216796875|1.056533813476562|-0.31427001953125|28269.81739979167|1.592683094180846|-0.1441266093786644|-1.143045493823515|-1.597590565681458|-1.051238298416138|-2.232709169387817|0.05718602985143661|0.01592642068862915|0.2228115200996399|XArbitraryZVertical|-0.334006000837726|-0.4279925346824635|0.6268805550702943|0.5588232928171909|-0.05958066135644913|0.9099010825157166|-0.4105247557163239|0|0|0|-1|-1|3
2021-04-09 09:41:51.570 +0100|28269.85732179167|-0.1094512939453125|0.993011474609375|-0.2757720947265625|28269.83736079167|1.469991092150476|-0.2745123202193618|-1.166019625468203|-1.69830048084259|-0.7649137377738953|-2.14202618598938|0.03133088350296021|0.1184839606285095|0.07457977533340454|XArbitraryZVertical|-0.3279711606150458|-0.4504449621540461|0.6104254724964919|0.5629522420685328|-0.1067541018128395|0.9191903471946716|-0.3790684938430786|0|0|0|-1|-1|3
2021-04-09 09:41:51.589 +0100|28269.87728179167|-0.055999755859375|0.96197509765625|-0.2425537109375|28269.85732179167|1.337728149172174|-0.4092942758637348|-1.184467825595669|-1.73451840877533|-0.5318573713302612|-2.032259225845337|0.02662765979766846|0.1073321104049683|0.04743552207946777|XArbitraryZVertical|-0.3242411154320451|-0.471204453995742|0.5927522465168866|0.5669911515642878|-0.1499482095241547|0.9262986779212952|-0.3456681370735168|0|0|0|-1|-1|3
2021-04-09 09:41:51.609 +0100|28269.89724279167|-0.00921630859375|0.960479736328125|-0.337860107421875|28269.87728179167|1.202075774231558|-0.5446479088327079|-1.196105627891246|-1.601675629615784|-0.4353092908859253|-1.913746356964111|0.1085082590579987|0.04427886009216309|0.06652510166168213|XArbitraryZVertical|-0.3215470369820591|-0.4899921247964324|0.5750242986370872|0.5708435592251413|-0.1896229833364487|0.9306208491325378|-0.3130304515361786|0|0|0|-1|-1|3
2021-04-09 09:41:51.630 +0100|28269.91720379167|-0.1035308837890625|0.96826171875|-0.3492584228515625|28269.89724279167|1.073539044560032|-0.6728073868756242|-1.19940290861771|-1.369213461875916|-0.3956693708896637|-1.744511842727661|0.2059302777051926|0.02655190229415894|-0.0122394859790802|XArbitraryZVertical|-0.3184923627457225|-0.5066057977733897|0.558573611685853|0.5743768793425115|-0.2261624485254288|0.9318225383758545|-0.2838263511657715|0|0|0|-1|-1|3
2021-04-09 09:41:51.649 +0100|28269.93716479167|-0.233795166015625|0.97796630859375|-0.3087921142578125|28269.91720379167|0.9596504515657081|-0.7855252504144402|-1.196063226878731|-1.135358810424805|-0.2645500302314758|-1.576435446739197|0.2093680202960968|0.02123844623565674|-0.09282231330871582|XArbitraryZVertical|-0.3153900238191516|-0.5207075503679089|0.5436133956837166|0.5778213009028336|-0.2588513493537903|0.9306053519248962|-0.2587855458259583|0|0|0|-1|-1|3
2021-04-09 09:41:51.669 +0100|28269.95712479167|-0.2650299072265625|0.965240478515625|-0.3488922119140625|28269.93716479167|0.863903336388932|-0.8785068835436|-1.186745103163787|-0.8780050873756409|-0.1711549311876297|-1.527811408042908|0.1187315285205841|0.06794804334640503|-0.09427599608898163|XArbitraryZVertical|-0.3119947819191239|-0.5320525817842522|0.5300818542633552|0.5818871338867644|-0.2884235680103302|0.9271543622016907|-0.2391586154699326|0|0|0|-1|-1|3
2021-04-09 09:41:51.690 +0100|28269.97708579167|-0.3594970703125|0.99761962890625|-0.4459075927734375|28269.95712479167|0.7817040991728113|-0.958602960192366|-1.172218998623375|-0.7594430446624756|-0.2299599200487137|-1.536726117134094|0.05437982082366943|0.03608912229537964|-0.08101451396942139|XArbitraryZVertical|-0.3074151893780108|-0.5421992981462975|0.5174679327895749|0.5862959748274964|-0.3176235258579254|0.9216140508651733|-0.2230316400527954|0|0|0|-1|-1|3
2021-04-09 09:41:51.709 +0100|28269.99704679167|-0.4618072509765625|0.9520416259765625|-0.456878662109375|28269.97708579167|0.7058135761783678|-1.031984517482093|-1.154467875401066|-0.8826563358306885|-0.1083800196647644|-1.607434153556824|0.05360707640647888|0.06051832437515259|-0.1941189616918564|XArbitraryZVertical|-0.3025053037860597|-0.5520298652645198|0.504576316858164|0.5908946025743972|-0.3471089005470276|0.9145798683166504|-0.2075071334838867|0|0|0|-1|-1|3
2021-04-09 09:41:51.729 +0100|28270.01700779167|-0.5330810546875|1.125457763671875|-0.4217681884765625|28269.99704679167|0.6249677020677066|-1.106024657180597|-1.135026194083716|-1.074748277664185|0.0596034973859787|-1.70743727684021|-0.04920998215675354|0.04178905487060547|-0.2834128141403198|XArbitraryZVertical|-0.2991013546838677|-0.5620852318683907|0.4892616920908275|0.5960048033761813|-0.3773333132266998|0.9065452218055725|-0.1891971379518509|0|0|0|-1|-1|3
2021-04-09 09:41:51.749 +0100|28270.03696879167|-0.5987701416015625|1.21368408203125|-0.47882080078125|28270.01700779167|0.5485684327735255|-1.172624272402929|-1.111283946365534|-0.8864966034889221|0.1407518833875656|-1.835127711296082|-0.09721037745475769|0.1254296898841858|-0.2556321620941162|XArbitraryZVertical|-0.2956479164489347|-0.5714981199342103|0.4726250860535222|0.6021692573108521|-0.4088159501552582|0.8962688446044922|-0.1719644218683243|0|0|0|-1|-1|3
2021-04-09 09:41:51.769 +0100|28270.05692879167|-0.6109161376953125|1.057632446289062|-0.6028594970703125|28270.03696879167|0.4876209298860409|-1.225099083269705|-1.081354246374667|-0.6872963905334473|0.02492813020944595|-1.974754095077515|-0.1233221292495728|0.3027232885360718|-0.2729901671409607|XArbitraryZVertical|-0.289680699594215|-0.5800276186209127|0.4565252386656402|0.6092929199595305|-0.4423203468322754|0.8825953006744385|-0.1593061089515686|0|0|0|-1|-1|3
2021-04-09 09:41:51.789 +0100|28270.07688979167|-0.5696258544921875|1.051788330078125|-0.658233642578125|28270.05692879167|0.4298448049066635|-1.276527781158036|-1.047585827538667|-0.9545384049415588|-0.1206917613744736|-2.10039758682251|-0.1413356363773346|0.2893598079681396|-0.3895008563995361|XArbitraryZVertical|-0.2824272808068117|-0.5897233173736911|0.4394655983476332|0.615898815826243|-0.478185623884201|0.8662194609642029|-0.1449224799871445|0|0|0|-1|-1|3
2021-04-09 09:41:51.809 +0100|28270.09685079167|-0.562744140625|1.09564208984375|-0.72088623046875|28270.07688979167|0.369615443658748|-1.33205506663124|-1.011961855384129|-1.014043569564819|-0.2677379250526428|-2.133303880691528|-0.06967794895172119|0.1934934854507446|-0.5180661678314209|XArbitraryZVertical|-0.2752833784353421|-0.6012723655779766|0.4207409936128583|0.6210214815480818|-0.515160083770752|0.8478736281394958|-0.125381201505661|0|0|0|-1|-1|3
2021-04-09 09:41:51.829 +0100|28270.11681179167|-0.5867462158203125|1.05804443359375|-0.7632598876953125|28270.09685079167|0.3244034588722023|-1.377057424325393|-0.974916435692861|-0.5637726187705994|-0.4428580701351166|-2.01046347618103|-0.02372485399246216|0.241330623626709|-0.580787718296051|XArbitraryZVertical|-0.2662681062783152|-0.6124328734301347|0.403880506907157|0.625226200720133|-0.5507371425628662|0.827655017375946|-0.1080545410513878|0|0|0|-1|-1|3
2021-04-09 09:41:51.849 +0100|28270.13677179167|-0.54571533203125|1.152420043945312|-0.781829833984375|28270.11681179167|0.2983723328134462|-1.409225729514267|-0.9383798577471774|-0.3313142657279968|-0.647616982460022|-1.857154011726379|0.01574057340621948|0.282357931137085|-0.6456334590911865|XArbitraryZVertical|-0.254788650055481|-0.6225258124783078|0.3906319538089387|0.6284513684978338|-0.5833972096443176|0.8066015243530273|-0.09508871287107468|0|0|0|-1|-1|3
2021-04-09 09:41:51.869 +0100|28270.15673279167|-0.4389801025390625|1.15771484375|-0.7793121337890625|28270.13677179167|0.2846341338849758|-1.435406976922399|-0.904494941924138|0.07541468739509583|-0.8738468289375305|-1.59678852558136|0.04248112440109253|0.301961362361908|-0.697258472442627|XArbitraryZVertical|-0.2419605564089509|-0.6322514396502819|0.3805892338879672|0.6299723186616444|-0.6124266386032104|0.7861130833625793|-0.08342641592025757|0|0|0|-1|-1|3
2021-04-09 09:41:51.889 +0100|28270.17669379167|-0.30438232421875|1.121826171875|-0.750213623046875|28270.15673279167|0.2914483737984573|-1.449950210442391|-0.8755645638751433|0.7419574856758118|-1.107985258102417|-1.220181226730347|0.1359537243843079|0.3941590785980225|-0.7036314606666565|XArbitraryZVertical|-0.2267468052056371|-0.6402930669278724|0.3765777885200258|0.6299206046379575|-0.6358919739723206|0.7679052352905273|-0.0772213488817215|0|0|0|-1|-1|3
2021-04-09 09:41:51.909 +0100|28270.19665479167|-0.2733306884765625|1.21563720703125|-0.6515655517578125|28270.17669379167|0.3213205987089326|-1.451638987245341|-0.8521167170234327|1.463136553764343|-1.346877455711365|-0.8823288679122925|0.2849798202514648|0.39710533618927|-0.690760612487793|XArbitraryZVertical|-0.2084502421265875|-0.6460767471899178|0.3797384235073532|0.6284362758399613|-0.6537230014801025|0.7526757121086121|-0.07826666533946991|0|0|0|-1|-1|3
2021-04-09 09:41:51.929 +0100|28270.21661479167|-0.3690643310546875|1.642181396484375|-0.6197662353515625|28270.19665479167|0.3727524489880205|-1.443247507432281|-0.834097481747388|2.214787006378174|-1.662990212440491|-0.4641723334789276|0.4012682437896729|0.3784967064857483|-0.6260711550712585|XArbitraryZVertical|-0.1869115086752758|-0.6498719497788935|0.3901399707767845|0.6249171451714934|-0.6663889288902283|0.7406904697418213|-0.08546107262372971|0|0|0|-1|-1|3
2021-04-09 09:41:51.949 +0100|28270.23657579167|-0.4828948974609375|1.890838623046875|-0.7036590576171875|28270.21661479167|0.4542661106169273|-1.41942976762769|-0.8225778328328591|3.469920873641968|-1.963510632514954|0.1361045837402344|0.3645269274711609|0.6836484670639038|-0.5229313969612122|XArbitraryZVertical|-0.1609738411923304|-0.650226026063774|0.410388750976994|0.6187687261514766|-0.6725553274154663|0.7329020500183105|-0.1025870740413666|0|0|0|-1|-1|3
2021-04-09 09:41:51.969 +0100|28270.25653679167|-0.2514190673828125|1.55462646484375|-0.992950439453125|28270.23657579167|0.5733799496324782|-1.373445184333224|-0.8186270662963141|4.554608345031738|-2.132935762405396|0.8743140697479248|0.2241321802139282|1.104539632797241|-0.4862621426582336|XArbitraryZVertical|-0.1307336782065403|-0.6449247235274623|0.4426395142664815|0.6091397637950103|-0.6699628233909607|0.7302085161209106|-0.1339616179466248|0|0|0|-1|-1|3
2021-04-09 09:41:51.989 +0100|28270.27649779167|-0.0503692626953125|2.034530639648438|-1.459396362304688|28270.25653679167|0.7126902712367138|-1.31530745470778|-0.8207138784767376|4.613673210144043|-2.289183378219604|1.506237149238586|0.2583572864532471|1.050457239151001|-0.6128171682357788|XArbitraryZVertical|-0.1003591647876776|-0.6354439955038756|0.4817046700997913|0.5950626742865671|-0.6595710515975952|0.7316326498985291|-0.1722779273986816|0|0|0|-1|-1|3
2021-04-09 09:41:52.009 +0100|28270.29645779167|0.02001953125|2.339431762695312|-2.11553955078125|28270.27649779167|0.8637270463525819|-1.251641888111579|-0.8298281613265535|5.272171974182129|-2.322535514831543|2.335078716278076|0.5540329813957214|0.9764797687530518|-1.003204941749573|XArbitraryZVertical|-0.07234214106275344|-0.6235951569287834|0.5249027802129905|0.5747806606213061|-0.6409156918525696|0.7378153800964355|-0.2117913961410522|0|0|0|-1|-1|3
2021-04-09 09:41:52.029 +0100|28270.31641879167|-0.2259368896484375|1.458038330078125|-2.647735595703125|28270.29645779167|1.065111780188547|-1.142565738014035|-0.8390902351784735|6.901989936828613|-1.625033020973206|3.484176397323608|0.5662747025489807|1.611754298210144|-1.514401912689209|XArbitraryZVertical|-0.04447776177166577|-0.5994123840110166|0.5798241683268991|0.5500277178851106|-0.6078082919120789|0.7440356016159058|-0.2774530351161957|0|0|0|-1|-1|3
2021-04-09 09:41:52.049 +0100|28270.33637979167|-0.60919189453125|0.398681640625|-2.927474975585938|28270.31641879167|1.303032837210918|-0.9834924885507964|-0.8418523950399688|6.524780750274658|-0.07079647481441498|4.34350061416626|0.4779043793678284|1.226626038551331|-1.994253873825073|XArbitraryZVertical|-0.02508505595076376|-0.5610939321140845|0.641292652436482|0.5227697037748549|-0.5544720888137817|0.7458782196044922|-0.3690886795520782|0|0|0|-1|-1|3
2021-04-09 09:41:52.068 +0100|28270.35634066667|-1.585418701171875|-0.4756011962890625|-2.197265625|28270.33637979167|1.514544770100866|-0.8057476735367043|-0.8380784373315352|4.575335025787354|2.188317537307739|3.98278284072876|0.1167372465133667|0.1710700392723083|-2.403839826583862|XArbitraryZVertical|-0.02599069051387124|-0.5173937569376336|0.6931964185611277|0.5011058814802242|-0.482504814863205|0.7433591485023499|-0.4632563591003418|0|0|0|-1|-1|3
2021-04-09 09:41:52.089 +0100|28270.37630166667|-1.913558959960938|0.0048828125|-0.809478759765625|28270.35634066667|1.650865473282687|-0.6362780354686423|-0.8427327323258796|0.7877043485641479|4.72885799407959|3.144833087921143|-0.5927278995513916|-0.7843056917190552|-2.179984569549561|XArbitraryZVertical|-0.05373208300758602|-0.4790695888028401|0.7236880834253385|0.4938430304905921|-0.395399808883667|0.7464643120765686|-0.5352103710174561|0|0|0|-1|-1|3
2021-04-09 09:41:52.108 +0100|28270.39626166667|-1.340164184570312|1.027542114257812|0.9139556884765625|28270.37630166667|1.696004815716129|-0.4861680089409559|-0.9039291649122331|-4.209102630615234|6.806307315826416|2.602286815643311|-1.700148344039917|-1.257473111152649|-0.9945996403694153|XArbitraryZVertical|-0.1180103160158915|-0.4611336749542415|0.7243582862233809|0.4987329572082865|-0.2890016138553619|0.7857632637023926|-0.5468586087226868|0|0|0|-1|-1|3
2021-04-09 09:41:52.128 +0100|28270.41622266667|-0.4222412109375|1.428909301757812|1.768478393554688|28270.39626166667|1.69936377741918|-0.3375760675177115|-1.027962550838107|-6.531640529632568|7.558761119842529|2.600759983062744|-1.581948757171631|-0.2497111558914185|0.5580275058746338|XArbitraryZVertical|-0.2101154641658288|-0.460593748555209|0.6992615996791403|0.5047159458003552|-0.1710866689682007|0.8562483191490173|-0.487409770488739|0|0|0|-1|-1|3
2021-04-09 09:41:52.148 +0100|28270.43618366667|0.1219024658203125|1.957901000976562|1.446441650390625|28270.41622266667|1.756190580025905|-0.1434203459524015|-1.162729919985668|-5.745370864868164|6.434842109680176|2.998306512832642|-0.7769892811775208|0.2762174606323242|1.855239987373352|XArbitraryZVertical|-0.3037280284121474|-0.4597485574342976|0.6665766567084064|0.5020520250860073|-0.05671936273574829|0.9178898334503174|-0.3927611112594604|0|0|0|-1|-1|3
2021-04-09 09:41:52.168 +0100|28270.45614466667|-0.409210205078125|2.168045043945312|-0.21234130859375|28270.43618366667|1.905334258198718|0.1038765187821669|-1.263380065745367|-4.034341335296631|4.544207096099854|2.702436923980713|-0.1275818645954132|0.9171513915061951|2.098040103912354|XArbitraryZVertical|-0.3758901194188898|-0.4563150333410972|0.6390485113312114|0.4920370043302209|0.03137627989053726|0.9531185626983643|-0.3009664118289948|0|0|0|-1|-1|3
2021-04-09 09:41:52.188 +0100|28270.47610466667|-1.341888427734375|-0.1863250732421875|-1.351821899414062|28270.45614466667|2.106236246089467|0.3768018548774412|-1.283484556146228|-0.8258407115936279|4.677500247955322|2.293365955352783|0.0147213339805603|0.95760178565979|0.5891952514648438|XArbitraryZVertical|-0.4213499148192347|-0.4367107826146369|0.6282963058910549|0.4868181527920843|0.1042677164077759|0.9590091109275818|-0.2634958922863007|0|0|0|-1|-1|3
2021-04-09 09:41:52.208 +0100|28270.49606566667|-0.9698333740234375|1.997970581054688|0.1051788330078125|28270.47610466667|2.289561048005953|0.6538047744394293|-1.287970140120648|-2.521279573440552|5.106424808502197|2.198072195053101|-1.073114395141602|-0.2626539468765259|-1.899374961853027|XArbitraryZVertical|-0.4688111619749353|-0.41165057509972|0.6099951830509375|0.4885344781640022|0.1697341054677963|0.9602705836296082|-0.22151979804039|0|0|0|-1|-1|3
2021-04-09 09:41:52.228 +0100|28270.51602666667|-0.800567626953125|1.516220092773438|0.9805450439453125|28270.49606566667|2.480508561972882|0.9315198597218346|-1.281907643217683|-0.1422111392021179|4.218233585357666|1.991365075111389|-1.56290328502655|0.3730581402778625|-0.2436665147542953|XArbitraryZVertical|-0.5138795709354677|-0.3885148061677838|0.5902224090658986|0.486437684714456|0.2286299914121628|0.9585610628128052|-0.1699680685997009|0|0|0|-1|-1|3
2021-04-09 09:41:52.248 +0100|28270.53598766667|-0.600494384765625|1.187759399414062|0.8052825927734375|28270.51602666667|2.508687171622713|1.026058576585218|-1.247234316585402|0.8852717876434326|2.408949375152588|1.278741121292114|-1.082290410995483|0.626231849193573|0.9462220668792725|XArbitraryZVertical|-0.5369843828207241|-0.3595398874361759|0.5829491886192373|0.4924928497501975|0.2719275653362274|0.9481089115142822|-0.1647576838731766|0|0|0|-1|-1|3
2021-04-09 09:41:52.268 +0100|28270.55594866667|-0.3894195556640625|0.90216064453125|0.2865142822265625|28270.53598766667|2.496150128153654|1.042385339779279|-1.222188903745178|0.6243998408317566|0.5192257165908813|0.7567442655563354|-1.025498151779175|0.5896000266075134|1.118185758590698|XArbitraryZVertical|-0.5445577808086659|-0.342561918487581|0.5830037881392146|0.4962003484035387|0.2949998080730438|0.939849317073822|-0.1722163110971451|0|0|0|-1|-1|3
2021-04-09 09:41:52.288 +0100|28270.57590866667|-0.3812255859375|0.8258514404296875|0.1602020263671875|28270.55594866667|2.480066490269051|1.027773787178799|-1.204249759386907|0.925502598285675|-0.3045657277107239|0.504736602306366|-0.7805322408676147|0.09462761878967285|0.699199914932251|XArbitraryZVertical|-0.5433435444020854|-0.3349358651410629|0.5883657634699672|0.4964087745511022|0.3068392872810364|0.9335706233978271|-0.1851915121078491|0|0|0|-1|-1|3
2021-04-09 09:41:52.308 +0100|28270.59586966667|-0.3940277099609375|0.84429931640625|0.39202880859375|28270.57590866667|2.434750990980245|0.977058031774118|-1.184520451914519|1.599716782569885|-0.530462920665741|0.2924750149250031|-0.6717908382415771|-0.1444123983383179|0.3792310357093811|XArbitraryZVertical|-0.535935604742491|-0.3276987014202111|0.596668627660081|0.4993729081682334|0.3122642040252686|0.9263185262680054|-0.2107731699943542|0|0|0|-1|-1|3
2021-04-09 09:41:52.328 +0100|28270.61583066667|-0.4137420654296875|0.7437286376953125|0.4992523193359375|28270.59586966667|2.359028210118702|0.8938782658424766|-1.156692700954497|2.403589487075806|-0.8719450831413269|0.209578275680542|-0.715245246887207|-0.05688053369522095|0.4948558211326599|XArbitraryZVertical|-0.5225598659469786|-0.317663699273303|0.6079416699752922|0.5063873028469607|0.3136501014232635|0.9154773354530334|-0.2520419359207153|0|0|0|-1|-1|3
2021-04-09 09:41:52.348 +0100|28270.63579166667|-0.3688507080078125|0.5476226806640625|0.3133544921875|28270.61583066667|2.273181598835503|0.7938721114402261|-1.118966965677673|2.728114128112793|-1.309738397598267|0.2065992653369904|-0.70539391040802|-0.07808613777160645|0.8047012090682983|XArbitraryZVertical|-0.5031660534438482|-0.306221761036098|0.6227829162598001|0.5149696812741086|0.3113366067409515|0.8996498584747314|-0.306104302406311|0|0|0|-1|-1|3
2021-04-09 09:41:52.368 +0100|28270.65575166667|-0.3414764404296875|0.399627685546875|0.15386962890625|28270.63579166667|2.199757481100472|0.6999859092968866|-1.076780380062094|2.566097974777222|-1.490620851516724|0.2119369357824326|-0.7046145796775818|-0.2441288232803345|0.7775688171386719|XArbitraryZVertical|-0.4808763018654618|-0.2956768756103976|0.6389328248632551|0.5225880496033093|0.3054609000682831|0.8804357647895813|-0.3626663386821747|0|0|0|-1|-1|3
2021-04-09 09:41:52.388 +0100|28270.67571266667|-0.307891845703125|0.3529205322265625|0.13287353515625|28270.65575166667|2.149588994273221|0.6269936753428008|-1.037802897408456|2.02541971206665|-1.413143873214722|0.235109731554985|-0.6466573476791382|-0.400871217250824|0.6342319250106812|XArbitraryZVertical|-0.4600358206138606|-0.2874595200167636|0.6537122544033789|0.5276309857434467|0.2981170117855072|0.861289918422699|-0.4114681482315063|0|0|0|-1|-1|3
2021-04-09 09:41:52.408 +0100|28270.69567366667|-0.26715087890625|0.3155059814453125|0.1822967529296875|28270.67571266667|2.118144966311726|0.5734764627784884|-1.005806273786106|1.535085797309875|-1.258250594139099|0.2138254046440125|-0.618017315864563|-0.4707534909248352|0.5670937895774841|XArbitraryZVertical|-0.4424400773184007|-0.2817272645920646|0.6660079739834379|0.5303867583479793|0.2904884219169617|0.8445939421653748|-0.4497530460357666|0|0|0|-1|-1|3
2021-04-09 09:41:52.428 +0100|28270.71563466667|-0.22027587890625|0.3352203369140625|0.208526611328125|28270.69567366667|2.098691037800703|0.5334305524610069|-0.9812626423722712|1.162114262580872|-1.137475371360779|0.1713257879018784|-0.5705631971359253|-0.5161212682723999|0.6489738821983337|XArbitraryZVertical|-0.4279920988099656|-0.2783115754662169|0.6759061251409284|0.5315226994994303|0.2827071249485016|0.8312000036239624|-0.4787308573722839|0|0|0|-1|-1|3
2021-04-09 09:41:52.448 +0100|28270.73559466667|-0.1441192626953125|0.3072509765625|0.1491851806640625|28270.71563466667|2.085162821228898|0.4997211686050969|-0.9622789494137077|0.8578295111656189|-1.132892847061157|0.09222971647977829|-0.5195137858390808|-0.4834144115447998|0.7108856439590454|XArbitraryZVertical|-0.4153208370933009|-0.2768294959386479|0.6842004766516985|0.5317367650897117|0.2739245891571045|0.8204964399337769|-0.5017480850219727|0|0|0|-1|-1|3
2021-04-09 09:41:52.468 +0100|28270.75555566667|-0.0977020263671875|0.3239288330078125|0.0887451171875|28270.73559466667|2.075519550091872|0.4687156004969451|-0.9496436769608786|0.5044023990631104|-1.183268427848816|0.003523729043081403|-0.4451203942298889|-0.4938874244689941|0.7071498036384583|XArbitraryZVertical|-0.4038426288058093|-0.2780427322586709|0.6911020889176808|0.5310191759510368|0.2629009187221527|0.8132081627845764|-0.5192067623138428|0|0|0|-1|-1|3
2021-04-09 09:41:52.488 +0100|28270.77551666667|-0.119720458984375|0.3420562744140625|0.0467681884765625|28270.75555566667|2.069202968435227|0.4396724424646332|-0.9442762954638985|0.1344902366399765|-1.210861325263977|-0.09645577520132065|-0.3614740073680878|-0.5105273723602295|0.6412826180458069|XArbitraryZVertical|-0.3937035275922557|-0.2823391347158651|0.6965185732680144|0.5292864871783636|0.249567061662674|0.8100728392601013|-0.5305643081665039|0|0|0|-1|-1|3
2021-04-09 09:41:52.508 +0100|28270.79547766667|-0.1279754638671875|0.343170166015625|-0.0102691650390625|28270.77551666667|2.064887487827711|0.4119394473938299|-0.9468626425421317|-0.2627005875110626|-1.208442568778992|-0.2656221687793732|-0.3405313193798065|-0.4745807647705078|0.5953875780105591|XArbitraryZVertical|-0.3851062463239252|-0.2898511787485929|0.7001599569863011|0.5267405851774882|0.2339191883802414|0.8115865588188171|-0.5353589653968811|0|0|0|-1|-1|3
2021-04-09 09:41:52.528 +0100|28270.81543866667|-0.1095733642578125|0.38507080078125|-0.0477447509765625|28270.79547766667|2.058288668533012|0.3828174254986055|-0.9584466275408214|-0.6364402174949646|-1.173255205154419|-0.5492007732391357|-0.3401771187782288|-0.4675152897834778|0.5556933283805847|XArbitraryZVertical|-0.3780225573310373|-0.3008420487762408|0.7012264824490749|0.5242846745627363|0.2147051095962524|0.8182997107505798|-0.5331860184669495|0|0|0|-1|-1|3
2021-04-09 09:41:52.548 +0100|28270.83539866667|-0.111663818359375|0.4389495849609375|-0.079864501953125|28270.81543866667|2.04504943984448|0.3486003799090924|-0.9788817791132107|-1.024754405021667|-1.172311186790466|-0.8890228271484375|-0.308276355266571|-0.4626711010932922|0.4925771355628967|XArbitraryZVertical|-0.3719508568345531|-0.3153680022995752|0.6993235807691545|0.5226300850515903|0.1905864030122757|0.8298739790916443|-0.5243911743164062|0|0|0|-1|-1|3
2021-04-09 09:41:52.568 +0100|28270.85535966667|-0.142364501953125|0.5330963134765625|-0.1315155029296875|28270.83539866667|2.022710694954605|0.3062800921817382|-1.009005162830338|-1.418001294136047|-1.1926029920578|-1.24088180065155|-0.2691368758678436|-0.4466286897659302|0.4487084150314331|XArbitraryZVertical|-0.3667095179590842|-0.3340181086727769|0.6941447031355599|0.5216506394374765|0.1606174260377884|0.846302330493927|-0.5079120397567749|0|0|0|-1|-1|3
2021-04-09 09:41:52.587 +0100|28270.87532066667|-0.131072998046875|0.64471435546875|-0.1757354736328125|28270.85535966667|1.986297104958823|0.251331899521747|-1.046601576698569|-1.63285756111145|-1.164792537689209|-1.61725902557373|-0.2464989721775055|-0.3790327310562134|0.3926283717155457|XArbitraryZVertical|-0.361682689673362|-0.3560760274379659|0.6857126852032612|0.5217219066691092|0.1244754865765572|0.8657272458076477|-0.4847909808158875|0|0|0|-1|-1|3
2021-04-09 09:41:52.608 +0100|28270.89528166667|-0.19720458984375|0.71502685546875|-0.1913604736328125|28270.87532066667|1.927776465969279|0.1777086417901751|-1.087117351130297|-1.749603152275085|-1.064814209938049|-2.015569925308228|-0.218253493309021|-0.2912652492523193|0.2745037376880646|XArbitraryZVertical|-0.3561876342206734|-0.3798323141645434|0.674079760447113|0.5239029419488557|0.08220721781253815|0.8852900266647339|-0.4577155709266663|0|0|0|-1|-1|3
2021-04-09 09:41:52.628 +0100|28270.91524166667|-0.194549560546875|0.801727294921875|-0.3526153564453125|28270.89528166667|1.839260452586017|0.0780382861033206|-1.129727614232603|-1.99922251701355|-0.9932866096496582|-2.455907106399536|-0.1917121708393097|-0.2104175090789795|0.2578981518745422|XArbitraryZVertical|-0.3504138906675816|-0.4054707935249621|0.6586567963005679|0.528180762685623|0.03328123688697815|0.9042959213256836|-0.4256070852279663|0|0|0|-1|-1|3
2021-04-09 09:41:52.647 +0100|28270.93520266667|-0.22418212890625|0.993560791015625|-0.496826171875|28270.91524166667|1.70993307201925|-0.05989269150673633|-1.173539395416783|-2.274067878723145|-0.9752084016799927|-2.812360048294067|-0.182483583688736|-0.1971651315689087|0.1633886098861694|XArbitraryZVertical|-0.3443685627562696|-0.4339490441552933|0.6389357667328083|0.53372264185616|-0.02315807715058327|0.9221257567405701|-0.386197030544281|0|0|0|-1|-1|3
2021-04-09 09:41:52.667 +0100|28270.95516366667|-0.29107666015625|1.15228271484375|-0.4566192626953125|28270.93520266667|1.53648153703994|-0.2392371247885953|-1.210210530433395|-2.288915157318115|-0.8103667497634888|-2.971674680709839|-0.1046564057469368|-0.001882433891296387|-0.1101367175579071|XArbitraryZVertical|-0.337957339599934|-0.4630309950675873|0.6162243874840699|0.5400508832482731|-0.08360548317432404|0.9356902837753296|-0.3427742719650269|0|0|0|-1|-1|3
2021-04-09 09:41:52.687 +0100|28270.97512466667|-0.270904541015625|1.270034790039062|-0.49908447265625|28270.95516366667|1.324319822762554|-0.4532317295729144|-1.234054086841759|-2.39130973815918|-0.6571832299232483|-3.042210340499878|-0.1192962974309921|0.1292387843132019|-0.1992367804050446|XArbitraryZVertical|-0.3319987718832657|-0.4911714111368915|0.591158275735908|0.5468634578848325|-0.1446797549724579|0.9438360929489136|-0.2970549166202545|0|0|0|-1|-1|3
