loggingTime(txt)|accelerometerTimestamp_sinceReboot(s)|accelerometerAccelerationX(G)|accelerometerAccelerationY(G)|accelerometerAccelerationZ(G)|motionTimestamp_sinceReboot(s)|motionYaw(rad)|motionRoll(rad)|motionPitch(rad)|motionRotationRateX(rad/s)|motionRotationRateY(rad/s)|motionRotationRateZ(rad/s)|motionUserAccelerationX(G)|motionUserAccelerationY(G)|motionUserAccelerationZ(G)|motionAttitudeReferenceFrame(txt)|motionQuaternionX(R)|motionQuaternionY(R)|motionQuaternionZ(R)|motionQuaternionW(R)|motionGravityX(G)|motionGravityY(G)|motionGravityZ(G)|motionMagneticFieldX(µT)|motionMagneticFieldY(µT)|motionMagneticFieldZ(µT)|motionHeading(°)|motionMagneticFieldCalibrationAccuracy(Z)|label
2021-04-08 19:56:07.928 +0100|18961.839621125|0.090972900390625|-0.512908935546875|-0.82000732421875|18961.819660125|1.333099270186534|0.1374751874329571|0.5042533787186394|0.383037805557251|0.01165555603802204|-0.08410804718732834|-0.02386966347694397|0.07174700498580933|0.0144762396812439|XArbitraryZVertical|0.1544827121020555|0.2061495263796975|0.6107831667915518|0.7487198968489902|0.1199856251478195|-0.4831538796424866|-0.8672749400138855|0|0|0|-1|-1|3
2021-04-08 19:56:07.940 +0100|18961.859582125|0.111328125|-0.4925689697265625|-0.849578857421875|18961.839621125|1.331466087144078|0.1394734939293032|0.5100838434029246|0.2337477058172226|0.1401529759168625|-0.000764685682952404|-0.03340275585651398|-0.05778473615646362|0.01744234561920166|XArbitraryZVertical|0.1562867514489521|0.2084704467567162|0.6100298152527727|0.7483169258637629|0.1213247701525688|-0.4882504045963287|-0.8642290234565735|0|0|0|-1|-1|3
2021-04-08 19:56:07.941 +0100|18961.879542125|0.1052093505859375|-0.5463104248046875|-0.840972900390625|18961.859582125|1.329398527624168|0.1430328788206031|0.5152770544486645|0.2932187914848328|0.1031530350446701|-0.10223139077425|-0.01365405321121216|0.0154205858707428|0.00662541389465332|XArbitraryZVertical|0.1574186222431913|0.2111496376998592|0.6092696690760157|0.7479477506240597|0.1240370124578476|-0.492775946855545|-0.8612704277038574|0|0|0|-1|-1|3
2021-04-08 19:56:07.942 +0100|18961.899503125|0.126983642578125|-0.53350830078125|-0.85247802734375|18961.879542125|1.326475223410646|0.1459109557965994|0.5179748670775308|0.07604285329580307|0.05969003587961197|-0.1000820398330688|-0.01455004513263702|-0.03290814161300659|0.02043408155441284|XArbitraryZVertical|0.1578921350307894|0.2127777174674683|0.6082654542419688|0.7482038322511001|0.1263215392827988|-0.4951216578483582|-0.8595914244651794|0|0|0|-1|-1|3
2021-04-08 19:56:07.961 +0100|18961.919464125|0.0864410400390625|-0.4825897216796875|-0.8266143798828125|18961.899503125|1.324606875569165|0.1470057058802114|0.5165188980898433|-0.07708065211772919|-0.001989788841456175|-0.08893796056509018|0.002378389239311218|-0.03862917423248291|0.0135154128074646|XArbitraryZVertical|0.1571963579703581|0.2126191254420757|0.6077261037994662|0.7488334461855173|0.1273679584264755|-0.4938561618328094|-0.8601648211479187|0|0|0|-1|-1|3
2021-04-08 19:56:07.981 +0100|18961.939424125|0.13372802734375|-0.4836883544921875|-0.8533782958984375|18961.919464125|1.327122291021672|0.1447311797550584|0.515343028846902|-0.1641123294830322|0.009245343506336212|0.02611353434622288|-0.01741597056388855|-0.07381638884544373|0.001712143421173096|XArbitraryZVertical|0.1571675731504905|0.2116251135564028|0.6085483430648192|0.7484531523709569|0.1254948377609253|-0.4928333461284637|-0.8610263466835022|0|0|0|-1|-1|3
2021-04-08 19:56:08.001 +0100|18961.959385125|0.1119384765625|-0.5040740966796875|-0.84246826171875|18961.939424125|1.32770525665627|0.1431271406266363|0.5127307714449479|-0.1107125505805016|-0.08505426347255707|-0.0003765742294490337|0.0120718851685524|0.01829978823661804|0.006723701953887939|XArbitraryZVertical|0.1565870489686636|0.2103130401409749|0.6087731782214747|0.7487618398654415|0.1242967694997787|-0.4905586838722229|-0.862497866153717|0|0|0|-1|-1|3
2021-04-08 19:56:08.021 +0100|18961.979346125|0.10455322265625|-0.4918060302734375|-0.841033935546875|18961.959385125|1.328587130858297|0.1402305932772246|0.5107736668608067|-0.1650798767805099|-0.1371635794639587|0.03737834841012955|-0.001432433724403381|-0.007423937320709229|0.01628410816192627|XArbitraryZVertical|0.156622037460508|0.2087292708065965|0.6089760784397591|0.7490326790495987|0.1219319403171539|-0.488852322101593|-0.8638032674789429|0|0|0|-1|-1|3
2021-04-08 19:56:08.041 +0100|18961.999306125|0.0624237060546875|-0.477630615234375|-0.8452911376953125|18961.979346125|1.32982524885794|0.1371880864298484|0.5085688675828088|-0.1642080843448639|-0.1011518463492393|0.01797731034457684|-0.008777499198913574|-0.01534521579742432|0.02324032783508301|XArbitraryZVertical|0.1565704074221066|0.2070453789759525|0.6093143991358|0.7492356854612844|0.1194503679871559|-0.4869277477264404|-0.8652358651161194|0|0|0|-1|-1|3
2021-04-08 19:56:08.061 +0100|18962.019267125|0.1162567138671875|-0.477325439453125|-0.86322021484375|18961.999306125|1.330075346239234|0.1358457903836151|0.5069577990501388|-0.1189199984073639|0.01491585187613964|-0.08002133667469025|-0.02523918449878693|0.0007945895195007324|0.01555478572845459|XArbitraryZVertical|0.1563328713256886|0.206092892065233|0.6093858107954137|0.7494897187172516|0.1183949410915375|-0.4855199158191681|-0.8661714792251587|0|0|0|-1|-1|3
2021-04-08 19:56:08.081 +0100|18962.039228125|0.106231689453125|-0.49761962890625|-0.8503570556640625|18962.019267125|1.330410625479821|0.1358400856142162|0.5049354675370369|-0.085616335272789|-0.01904754713177681|0.03575000539422035|-0.04611891508102417|-0.002973258495330811|0.01614511013031006|XArbitraryZVertical|0.1555209773728682|0.2055276306863135|0.609614576144503|0.7496277581241734|0.1185227259993553|-0.483750969171524|-0.8671432137489319|0|0|0|-1|-1|3
2021-04-08 19:56:08.101 +0100|18962.059188125|0.0759429931640625|-0.5402984619140625|-0.8246307373046875|18962.039228125|1.33046096903997|0.1356285493831099|0.503921866269372|-0.07661265879869461|-0.02322348952293396|-0.02789785899221897|-0.008053109049797058|0.002624362707138062|0.007027208805084229|XArbitraryZVertical|0.1551897614170361|0.2051567492600701|0.6096686996870671|0.7497540590688511|0.1184055283665657|-0.4828636050224304|-0.8676536679267883|0|0|0|-1|-1|3
2021-04-08 19:56:08.121 +0100|18962.079149125|0.102691650390625|-0.4880523681640625|-0.8380279541015625|18962.059188125|1.329830623285044|0.1356879505639926|0.5017111284034276|-0.2134065479040146|0.01462679170072079|-0.06133535504341125|-0.02668140083551407|-0.04110655188560486|0.0297432541847229|XArbitraryZVertical|0.1543842024477357|0.2044857491026827|0.6095491414722976|0.7502006784365711|0.1186011806130409|-0.4809264838695526|-0.8687021732330322|0|0|0|-1|-1|3
2021-04-08 19:56:08.141 +0100|18962.099110125|0.086700439453125|-0.5263214111328125|-0.811126708984375|18962.079149125|1.329964521198273|0.1358398166600723|0.4966081926805132|-0.314009428024292|0.01559186819940805|-0.04179423302412033|-0.03695551306009293|-0.05060699582099915|0.03740972280502319|XArbitraryZVertical|0.1523567028700331|0.2030646606528046|0.6098670236308713|0.7507425367995783|0.1190638989210129|-0.4764461815357208|-0.87110435962677|0|0|0|-1|-1|3
2021-04-08 19:56:08.161 +0100|18962.119070125|0.0544281005859375|-0.5235748291015625|-0.782623291015625|18962.099110125|1.328912622492914|0.1354258745291005|0.4907486347256381|-0.3021796047687531|-0.009795353747904301|-0.1499017030000687|-0.01582109928131104|-0.01064670085906982|0.05307328701019287|XArbitraryZVertical|0.1503283192224541|0.2011193489390044|0.6097295958032383|0.7517860365247147|0.1190781891345978|-0.4712862968444824|-0.873904824256897|0|0|0|-1|-1|3
2021-04-08 19:56:08.181 +0100|18962.139031125|0.0678558349609375|-0.474212646484375|-0.7972259521484375|18962.119070125|1.327280012382986|0.1361362394490619|0.4823164582406507|-0.5446127653121948|0.01020626351237297|-0.1356378942728043|-0.05491030216217041|-0.07330664992332458|0.08614563941955566|XArbitraryZVertical|0.1470175485367874|0.1988034204745589|0.6095739951677399|0.753181620544215|0.1202340126037598|-0.4638326168060303|-0.8777260780334473|0|0|0|-1|-1|3
2021-04-08 19:56:08.201 +0100|18962.158992125|0.079925537109375|-0.4614105224609375|-0.812774658203125|18962.139031125|1.32578870910382|0.1365043106849612|0.470960972358094|-0.6412608027458191|-0.009621609002351761|-0.1791387647390366|-0.05800225585699081|-0.04285380244255066|0.1029357314109802|XArbitraryZVertical|0.1426587529377151|0.1955170484865234|0.6095656241240252|0.7548849993573301|0.1212660297751427|-0.4537428617477417|-0.8828431367874146|0|0|0|-1|-1|3
2021-04-08 19:56:08.221 +0100|18962.178952125|0.1043243408203125|-0.47491455078125|-0.82958984375|18962.158992125|1.323926702187559|0.1365184183596191|0.4599145252795932|-0.6327990293502808|-0.01690002903342247|-0.1929353773593903|-0.04782517999410629|-0.02269580960273743|0.08427083492279053|XArbitraryZVertical|0.138553695662493|0.1921622700354351|0.6093555527915728|0.7566785639976983|0.1219532117247581|-0.4438715279102325|-0.8877530694007874|0|0|0|-1|-1|3
2021-04-08 19:56:08.241 +0100|18962.198913125|0.1028594970703125|-0.477020263671875|-0.8646240234375|18962.178952125|1.321098177689541|0.1370053716032947|0.447948922180733|-0.6727888584136963|-0.04905125498771667|-0.2507329881191254|-0.03119758516550064|-0.03174060583114624|0.07105278968811035|XArbitraryZVertical|0.1340282943736312|0.1886551039467783|0.6088275565082378|0.7587982911664973|0.123102106153965|-0.4331177473068237|-0.8928913474082947|0|0|0|-1|-1|3
2021-04-08 19:56:08.261 +0100|18962.218874125|0.074493408203125|-0.4868316650390625|-0.85357666015625|18962.198913125|1.317569310181177|0.1366068301060211|0.4357265335410437|-0.7569379210472107|-0.07560787349939346|-0.3027949333190918|-0.01760691404342651|-0.05409595370292664|0.05519169569015503|XArbitraryZVertical|0.1297221574275219|0.184697598914966|0.6079570183021432|0.7612144388415899|0.1234579682350159|-0.4220691621303558|-0.8981178998947144|0|0|0|-1|-1|3
2021-04-08 19:56:08.281 +0100|18962.238834125|0.041473388671875|-0.490264892578125|-0.8317108154296875|18962.218874125|1.312893429938517|0.1362637068241169|0.4214035612291711|-0.9195862412452698|-0.05965809151530266|-0.4083400070667267|-0.02970395982265472|-0.07185369729995728|0.03409230709075928|XArbitraryZVertical|0.1246638670185971|0.1800843086932948|0.6067032325096137|0.7641595250212668|0.1239583343267441|-0.4090416133403778|-0.9040571451187134|0|0|0|-1|-1|3
2021-04-08 19:56:08.301 +0100|18962.258795125|0.0814666748046875|-0.4386749267578125|-0.805328369140625|18962.238834125|1.305834132606746|0.1378158302660654|0.4021689375278252|-1.131792902946472|0.01414065808057785|-0.5431737303733826|-0.07218845188617706|-0.1037166118621826|0.06848663091659546|XArbitraryZVertical|0.1172876495085621|0.1746397565207094|0.6047760525050823|0.7681084247423688|0.1264190077781677|-0.391415148973465|-0.9114891290664673|0|0|0|-1|-1|3
2021-04-08 19:56:08.321 +0100|18962.278756125|0.1191864013671875|-0.3834686279296875|-0.808074951171875|18962.258795125|1.297688991701978|0.1410990567125026|0.3784216038795518|-1.344184160232544|0.02786765433847904|-0.5862467885017395|-0.07776324450969696|-0.09946292638778687|0.1010900139808655|XArbitraryZVertical|0.1076540004525347|0.1685335638108188|0.6025693369328154|0.7726043204534641|0.1306815147399902|-0.3694542050361633|-0.9200140833854675|0|0|0|-1|-1|3
2021-04-08 19:56:08.341 +0100|18962.298716125|0.108367919921875|-0.3316497802734375|-0.79180908203125|18962.278756125|1.289196932445168|0.1439932299843682|0.3500921937814046|-1.468600034713745|-0.03859003633260727|-0.6472850441932678|-0.02820838987827301|-0.06036573648452759|0.1270225644111633|XArbitraryZVertical|0.09628418483533198|0.1609952760937308|0.6001761870759641|0.7775594127443395|0.13479183614254|-0.3429844081401825|-0.9296197295188904|0|0|0|-1|-1|3
2021-04-08 19:56:08.361 +0100|18962.318677125|0.133270263671875|-0.2308502197265625|-0.8509368896484375|18962.298716125|1.280280579152871|0.1452311383181253|0.3174308484316863|-1.667659640312195|-0.1104866489768028|-0.6384261250495911|-0.01998218894004822|-0.06011062860488892|0.1478329300880432|XArbitraryZVertical|0.08363280041728167|0.1516117077308018|0.5974426448699308|0.7829954007791345|0.1374909430742264|-0.3121267855167389|-0.9400388598442078|0|0|0|-1|-1|3
2021-04-08 19:56:08.392 +0100|18962.338637125|0.1871185302734375|-0.197723388671875|-0.853271484375|18962.318677125|1.272315571151565|0.1455519505534848|0.2816821045928313|-1.725257754325867|-0.09761623293161392|-0.6371972560882568|-0.03174722194671631|0.005053907632827759|0.1372299194335938|XArbitraryZVertical|0.06984630476645612|0.141086912092722|0.5948798070588905|0.7882474447106197|0.1393224895000458|-0.2779718637466431|-0.9504319429397583|0|0|0|-1|-1|3
2021-04-08 19:56:08.401 +0100|18962.358598125|0.21282958984375|-0.161102294921875|-0.8871307373046875|18962.338637125|1.264702408231383|0.1447463618497923|0.2455395968792879|-1.753179907798767|-0.1842469424009323|-0.5999451279640198|0.02488058805465698|0.03299751877784729|0.1039511561393738|XArbitraryZVertical|0.05610722290061809|0.1300797220611773|0.5922016890820863|0.7932393164604392|0.1399151086807251|-0.2430797666311264|-0.9598624706268311|0|0|0|-1|-1|3
2021-04-08 19:56:08.421 +0100|18962.378559125|0.2213897705078125|-0.1397705078125|-0.910491943359375|18962.358598125|1.258390894197517|0.1420430008617043|0.2092152280179275|-1.759979248046875|-0.2303011417388916|-0.5391525030136108|0.06214445829391479|0.02857014536857605|0.08903962373733521|XArbitraryZVertical|0.04267605036264533|0.1183529611233054|0.5897927357713753|0.7976941450759988|0.1384788751602173|-0.2076923102140427|-0.968342661857605|0|0|0|-1|-1|3
2021-04-08 19:56:08.441 +0100|18962.398519125|0.1843719482421875|-0.1567840576171875|-0.908538818359375|18962.378559125|1.252870836994092|0.1379284776750015|0.1731626940588251|-1.759090304374695|-0.2808536887168884|-0.5200179815292358|0.0851006954908371|0.02682209014892578|0.07488709688186646|XArbitraryZVertical|0.02963971691323974|0.1061914144290733|0.587503698210787|0.801676068160177|0.1354353427886963|-0.1722985953092575|-0.9756897687911987|0|0|0|-1|-1|3
2021-04-08 19:56:08.461 +0100|18962.418480125|0.1457672119140625|-0.0819854736328125|-0.9150543212890625|18962.398519125|1.247290333330461|0.1326480961383753|0.135456313893815|-1.966634511947632|-0.3212206661701202|-0.5106462836265564|0.07667073607444763|-0.02090156078338623|0.08371317386627197|XArbitraryZVertical|0.01619989086701657|0.09311204516590381|0.5850189757520569|0.8054940817839664|0.1310479193925858|-0.1350424587726593|-0.9821354150772095|0|0|0|-1|-1|3
2021-04-08 19:56:08.480 +0100|18962.438441125|0.1130828857421875|-0.0079803466796875|-0.909423828125|18962.418480125|1.24296642166214|0.1270950304183346|0.09305431686690727|-2.140664339065552|-0.2919837534427643|-0.4948750734329224|0.0348677784204483|-0.03302514553070068|0.09382867813110352|XArbitraryZVertical|0.0008022494068025204|0.07860010029640879|0.5828389420759612|0.8087770768613479|0.1262047588825226|-0.09292007982730865|-0.987642765045166|0|0|0|-1|-1|3
2021-04-08 19:56:08.501 +0100|18962.458401125|0.1677093505859375|0.04345703125|-0.926788330078125|18962.438441125|1.238119253662774|0.122141057854568|0.0484782841843046|-2.233340501785278|-0.2193432003259659|-0.5353784561157227|-0.01094542443752289|0.002485401928424835|0.04288244247436523|XArbitraryZVertical|-0.01570271074796736|0.06372945550119893|0.5802223589736577|0.8118092633660198|0.121694453060627|-0.04845929890871048|-0.991383969783783|0|0|0|-1|-1|3
2021-04-08 19:56:08.520 +0100|18962.478362125|0.17498779296875|0.1834869384765625|-0.9091949462890625|18962.458401125|1.231525216262938|0.1176871416699104|0.0009105658129463573|-2.436889886856079|-0.2616984248161316|-0.683760404586792|0.03392178565263748|0.0236470103263855|0.07399988174438477|XArbitraryZVertical|-0.03359630234431257|0.04827074630504815|0.5766033460002411|0.8149048877248204|0.117415614426136|-0.0009105656645260751|-0.9930824637413025|0|0|0|-1|-1|3
2021-04-08 19:56:08.540 +0100|18962.498323125|0.14190673828125|0.2858428955078125|-1.035690307617188|18962.478362125|1.22386854806084|0.1105698388157961|-0.05089170242636273|-2.57635235786438|-0.3756707906723022|-0.6797002553939819|0.08991792052984238|0.06865321099758148|0.1170116066932678|XArbitraryZVertical|-0.05252640231993218|0.03062163349634255|0.5722376630772672|0.8178310097552758|0.1102018132805824|0.05086973682045937|-0.9926065802574158|0|0|0|-1|-1|3
2021-04-08 19:56:08.560 +0100|18962.518283125|0.2047576904296875|0.331695556640625|-0.98834228515625|18962.498323125|1.214742833868647|0.1039666166743547|-0.1022970131027329|-2.461660146713257|-0.1969047337770462|-0.7489572167396545|0.02867604047060013|0.1361634135246277|0.02210056781768799|XArbitraryZVertical|-0.07154091919870416|0.01347225807131934|0.5670132504744829|0.8204855896696791|0.1032368838787079|0.1021186858415604|-0.9894008040428162|0|0|0|-1|-1|3
2021-04-08 19:56:08.580 +0100|18962.538244125|0.155975341796875|0.423187255859375|-0.8911285400390625|18962.518283125|1.204619099757934|0.09930430979183638|-0.150048219059733|-2.234802961349487|-0.1621839255094528|-0.7114430665969849|0.06818746775388718|0.1340386271476746|-0.1083008050918579|XArbitraryZVertical|-0.08972760020207049|-0.001629518551756784|0.5611917113079767|0.8228062768292906|0.09802721440792084|0.1494858115911484|-0.9838926196098328|0|0|0|-1|-1|3
2021-04-08 19:56:08.600 +0100|18962.558205125|0.1639862060546875|0.4734954833984375|-0.8587646484375|18962.538244125|1.192988789313535|0.09400739900721529|-0.1956469513437844|-2.222841024398804|-0.1633576899766922|-0.9303681254386902|0.1027467176318169|0.1900143623352051|0.04540824890136719|XArbitraryZVertical|-0.106980295398192|-0.01611725622535024|0.5546460332252892|0.8250231472786878|0.09207817167043686|0.1944011896848679|-0.9765908718109131|0|0|0|-1|-1|3
2021-04-08 19:56:08.620 +0100|18962.578165125|0.154693603515625|0.26123046875|-0.853240966796875|18962.558205125|1.176858845923218|0.08775595809686949|-0.2402968003793625|-2.21573805809021|-0.1321827322244644|-1.022914886474609|0.03699161112308502|0.1792615652084351|0.1249703168869019|XArbitraryZVertical|-0.1237761873729199|-0.03024109110368186|0.5461501640909389|0.8279401718765959|0.0851251408457756|0.2379909157752991|-0.9675298929214478|0|0|0|-1|-1|3
2021-04-08 19:56:08.640 +0100|18962.598126125|-0.02056884765625|0.3439178466796875|-0.7496490478515625|18962.578165125|1.15910920906581|0.0795846542814234|-0.2928548701454107|-2.9292151927948|-0.2436304241418839|-1.121782898902893|0.1103014498949051|0.1288557052612305|0.06097614765167236|XArbitraryZVertical|-0.1435362507628704|-0.04691215469880819|0.5365052853198737|0.8302762499920057|0.07611581683158875|0.2886867225170135|-0.954393208026886|0|0|0|-1|-1|3
2021-04-08 19:56:08.660 +0100|18962.618087125|0.1365966796875|0.746002197265625|-0.7566986083984375|18962.598126125|1.146335132169779|0.07172226721316614|-0.3708711597546575|-4.952705860137939|-0.02092070877552032|-0.7516168355941772|0.01240502297878265|-0.1331633031368256|0.1247761249542236|XArbitraryZVertical|-0.1739195191659019|-0.07031417831951518|0.527102269244507|0.8288373156260209|0.06678871810436249|0.3624275028705597|-0.92961585521698|0|0|0|-1|-1|3
2021-04-08 19:56:08.680 +0100|18962.638047125|0.1582183837890625|0.919677734375|-0.7868499755859375|18962.618087125|1.138178357247102|0.07039965080289304|-0.48563478292607|-6.184742450714111|0.1831236630678177|-0.799822211265564|-0.04736113920807838|0.03901407122612|0.138368546962738|XArbitraryZVertical|-0.2208255945611713|-0.1007072737032663|0.5156050524708536|0.8217332879185911|0.06220854446291924|0.4667698442935944|-0.8821882009506226|0|0|0|-1|-1|3
2021-04-08 19:56:08.700 +0100|18962.658008125|0.1508026123046875|0.8290863037109375|-0.7337646484375|18962.638047125|1.12929536294034|0.07121599064455948|-0.602118951117336|-5.317330837249756|0.4015096724033356|-0.7976992726325989|0.1290873289108276|0.329026997089386|0.03008729219436646|XArbitraryZVertical|-0.2685384558181326|-0.1298573672898025|0.5018081160294784|0.8119192599582634|0.05864215642213821|0.5663900375366211|-0.8220483064651489|0|0|0|-1|-1|3
2021-04-08 19:56:08.720 +0100|18962.677969125|0.169158935546875|0.7850494384765625|-0.695526123046875|18962.658008125|1.117823925488087|0.07530213349965048|-0.7035780714346296|-4.798818111419678|0.6885880827903748|-0.8029268383979797|0.07434839010238647|0.2383197546005249|0.01607882976531982|XArbitraryZVertical|-0.3106751268148925|-0.1526279653659117|0.4864397336017539|0.8022232243705562|0.05736605450510979|0.6469502449035645|-0.7603713274002075|0|0|0|-1|-1|3
2021-04-08 19:56:08.740 +0100|18962.697929125|0.1288909912109375|0.884033203125|-0.5824737548828125|18962.677969125|1.107416808880084|0.08430028958937835|-0.7978931972968023|-4.5679931640625|0.9258766174316406|-0.7088959217071533|0.09521734714508057|0.07734221220016479|-0.02520942687988281|XArbitraryZVertical|-0.3505304832128182|-0.1710550841411579|0.470197946776985|0.7916960211101379|0.0587901696562767|0.715886652469635|-0.6957370638847351|0|0|0|-1|-1|3
2021-04-08 19:56:08.760 +0100|18962.717890125|0.10418701171875|0.954315185546875|-0.5302886962890625|18962.697929125|1.101614551489612|0.100228187924186|-0.8872220790944813|-4.275233268737793|1.114959836006165|-0.5247783660888672|0.109794408082962|0.04558801651000977|-0.01793229579925537|XArbitraryZVertical|-0.3889462193104936|-0.185799695341221|0.4538027715805884|0.779911760481853|0.06319501250982285|0.775320291519165|-0.628398597240448|0|0|0|-1|-1|3
2021-04-08 19:56:08.780 +0100|18962.737851125|0.111572265625|1.140090942382812|-0.4220428466796875|18962.717890125|1.09832041379765|0.12232488950191|-0.9646104370245663|-3.362158060073853|1.340563535690308|-0.5102617740631104|0.02801531553268433|0.09948402643203735|-0.01970893144607544|XArbitraryZVertical|-0.4231494953556159|-0.1954597701748796|0.4373819233130847|0.7690495877115235|0.06951937079429626|0.8218270540237427|-0.5654799938201904|0|0|0|-1|-1|3
2021-04-08 19:56:08.800 +0100|18962.757811125|0.0365753173828125|1.275527954101562|-0.482696533203125|18962.737851125|1.095367950927242|0.1472510345196101|-1.021432024200004|-2.184792518615723|1.394938230514526|-0.3597877323627472|0.04179978370666504|0.1890293955802917|0.07623398303985596|XArbitraryZVertical|-0.4495910538771952|-0.1990489024398356|0.422338512190831|0.7614971207396526|0.07660890370607376|0.8528566360473633|-0.5164948105812073|0|0|0|-1|-1|3
2021-04-08 19:56:08.820 +0100|18962.777772125|0.0749664306640625|1.000289916992188|-0.342681884765625|18962.757811125|1.096152565404032|0.1768709540079752|-1.050156746954431|-0.7476077079772949|1.463127493858337|-0.09907856583595276|-0.02111712098121643|0.3416363596916199|0.02446585893630981|XArbitraryZVertical|-0.4660048483332414|-0.1949411817617936|0.4113029494529638|0.7587275584752293|0.08752384036779404|0.8675011992454529|-0.489674836397171|0|0|0|-1|-1|3
2021-04-08 19:56:08.840 +0100|18962.797733125|0.0169830322265625|0.942230224609375|-0.2907257080078125|18962.777772125|1.09055073090063|0.2008476933960157|-1.054739775438213|0.3422828912734985|1.431980729103088|-0.2251324504613876|-0.04641127586364746|0.3325755596160889|0.095306396484375|XArbitraryZVertical|-0.4730465113446813|-0.1856329984590445|0.4027899878178069|0.7612672376069547|0.09844415634870529|0.8697718381881714|-0.4835347831249237|0|0|0|-1|-1|3
2021-04-08 19:56:08.860 +0100|18962.817693125|-0.0247650146484375|1.000396728515625|-0.30224609375|18962.797733125|1.077812022693979|0.2173307300786997|-1.04679226728827|0.5460858941078186|1.32886815071106|-0.3021756708621979|-0.04573819041252136|0.08373230695724487|0.1885942816734314|XArbitraryZVertical|-0.474660465338134|-0.1743757579659816|0.3953480907490077|0.7668054303018601|0.1078876629471779|0.8658226728439331|-0.4885810613632202|0|0|0|-1|-1|3
2021-04-08 19:56:08.893 +0100|18962.837654125|-0.0123291015625|1.131607055664062|-0.43560791015625|18962.817693125|1.055918782477417|0.2243239485887398|-1.034261480901224|0.9836649894714355|1.238726735115051|-0.4574104249477386|-0.1342748403549194|0.1148807406425476|0.1956965923309326|XArbitraryZVertical|-0.4733998005869786|-0.1634496261935183|0.3873468079539686|0.7740409966621419|0.1137063801288605|0.8594850897789001|-0.4983536899089813|0|0|0|-1|-1|3
2021-04-08 19:56:08.900 +0100|18962.857615125|0.0283966064453125|1.086761474609375|-0.6000518798828125|18962.857615125|0.9849043625347401|0.2105048784421176|-0.9614327747721588|3.428232192993164|1.073511242866516|-0.6135544776916504|-0.1193950623273849|0.3008988499641418|0.02361023426055908|XArbitraryZVertical|-0.449254508370434|-0.1353314259104965|0.3740763557798433|0.7999517706614443|0.1195937544107437|0.8200124502182007|-0.5597115755081177|0|0|0|-1|-1|3
2021-04-08 19:56:08.920 +0100|18962.877575125|0.0989227294921875|0.885528564453125|-0.62237548828125||||||||||||||||||||||||3
2021-04-08 19:56:08.940 +0100|18962.897536125|0.2203216552734375|0.643646240234375|-0.69610595703125|18962.877575125|0.9371027167172774|0.1923742727931871|-0.8872745061853222|4.188516139984131|0.9288486242294312|-0.7258242964744568|-0.06898359954357147|0.2232434749603271|0.009603559970855713|XArbitraryZVertical|-0.4203687273515789|-0.1155474232769268|0.3692132247441067|0.8207438927832839|0.1207417026162148|0.7753534317016602|-0.6198778748512268|0|0|0|-1|-1|3
2021-04-08 19:56:08.960 +0100|18962.917497125|0.240203857421875|0.577117919921875|-0.78338623046875|18962.897536125|0.8925508028989322|0.1746067104072186|-0.8102109973939055|3.912983417510986|0.6476484537124634|-0.7331889271736145|0.04470578581094742|0.02741444110870361|0.02974086999893188|XArbitraryZVertical|-0.3887494197693796|-0.09716905401332215|0.3641655434765774|0.8407233099910022|0.1197537109255791|0.724432647228241|-0.6788641214370728|0|0|0|-1|-1|3
2021-04-08 19:56:08.980 +0100|18962.937457125|0.2312164306640625|0.6260223388671875|-0.852996826171875|18962.917497125|0.8579874881031827|0.1602124538867259|-0.7399371976023694|3.450311899185181|0.3244451284408569|-0.5034204721450806|0.1270449161529541|-0.1008764505386353|-0.02482175827026367|XArbitraryZVertical|-0.3587993948492232|-0.08207575859281575|0.3602557373464439|0.8571711876780131|0.1178131327033043|0.6742415428161621|-0.7290531396865845|0|0|0|-1|-1|3
2021-04-08 19:56:09.000 +0100|18962.957418125|0.237823486328125|0.3436431884765625|-0.8440399169921875|18962.937457125|0.8324882036269265|0.1466275398131842|-0.6734141599064539|3.47450590133667|-0.004869570955634117|-0.4428330957889557|0.1153454259037971|0.02575647830963135|-0.03983116149902344|XArbitraryZVertical|-0.3293124690150754|-0.06999149177603529|0.3584655371752765|0.8707222374688002|0.1142080426216125|0.6236584782600403|-0.7733089923858643|0|0|0|-1|-1|3
2021-04-08 19:56:09.020 +0100|18962.97737879167|0.22320556640625|-0.0167083740234375|-0.80853271484375|18962.957418125|0.809447865456192|0.1299271402791658|-0.6074724196751228|3.090488910675049|-0.3024276494979858|-0.4762056171894073|0.1290761828422546|-0.06412488222122192|-0.04622393846511841|XArbitraryZVertical|-0.2987368717879975|-0.06057998014900336|0.3571005620490454|0.882930207272651|0.1063824221491814|0.5707939267158508|-0.8141726851463318|0|0|0|-1|-1|3
2021-04-08 19:56:09.040 +0100|18962.99733979167|0.18798828125|-0.017669677734375|-0.85980224609375|18962.97737879167|0.791338836655899|0.1101278222081162|-0.5637815874985536|1.28745424747467|-0.7145753502845764|-0.4940970838069916|0.1351921856403351|-0.3922650218009949|0.02980256080627441|XArbitraryZVertical|-0.2766664208096075|-0.05827274942800449|0.3555258463862927|0.8908768598851509|0.09289643913507462|0.5343863368034363|-0.8401199579238892|0|0|0|-1|-1|3
2021-04-08 19:56:09.060 +0100|18963.01730079167|0.0452728271484375|0.0805816650390625|-0.872344970703125|18962.99733979167|0.7800885149875751|0.08445993920471177|-0.556612539594487|-0.3356448709964752|-1.220121026039124|-0.3852798640727997|0.155639186501503|-0.5843271613121033|0.01402300596237183|XArbitraryZVertical|-0.2693013869481264|-0.0668221465152857|0.3545457829438272|0.8929216770128406|0.07162545621395111|0.5283131003379822|-0.8460231423377991|0|0|0|-1|-1|3
2021-04-08 19:56:09.079 +0100|18963.03726079167|-0.010528564453125|0.0962677001953125|-0.8544158935546875|18963.01730079167|0.7713550339959715|0.05155312575546028|-0.5735508742171068|-1.165555357933044|-1.558664917945862|-0.5200220346450806|0.08719375729560852|-0.4720147252082825|0.0001496076583862305|XArbitraryZVertical|-0.2712956151973817|-0.08346796020924109|0.3539491136842413|0.8911520804786839|0.04328439384698868|0.5426180958747864|-0.8388635516166687|0|0|0|-1|-1|3
2021-04-08 19:56:09.101 +0100|18963.05722179167|-0.0225677490234375|0.300445556640625|-0.7824554443359375|18963.03726079167|0.757620072396728|0.01206946867966762|-0.6097007331475384|-2.657017469406128|-1.647419452667236|-0.6745093464851379|-0.03569690883159637|-0.5446518063545227|-0.1173123121261597|XArbitraryZVertical|-0.2809950960382563|-0.1056497568757786|0.3510742779253459|0.8869199565752564|0.009894545190036297|0.5726221203804016|-0.8197597861289978|0|0|0|-1|-1|3
2021-04-08 19:56:09.120 +0100|18963.07718279167|-0.25225830078125|0.5100250244140625|-1.01458740234375|18963.05722179167|0.7407671860612201|-0.03393093166028482|-0.6740922897952171|-3.584577560424805|-1.909371137619019|-0.5705458521842957|0.046630859375|-0.4615135192871094|-0.003003776073455811|XArbitraryZVertical|-0.3024359332507903|-0.1346119869265862|0.3467874287116312|0.8775824161741251|-0.0265042670071125|0.6241884231567383|-0.7808242440223694|0|0|0|-1|-1|3
2021-04-08 19:56:09.139 +0100|18963.09714279167|-0.1705322265625|0.5115966796875|-1.143951416015625|18963.07718279167|0.7203551754430731|-0.08272435444543073|-0.7398996008010028|-2.874675750732422|-1.532915115356445|-0.6459482908248901|-0.09554488956928253|-0.2529940009117126|-0.1258049011230469|XArbitraryZVertical|-0.3244912968403629|-0.1634014420103784|0.3423068305777721|0.8665053771872195|-0.06102528050541878|0.6742137670516968|-0.736010730266571|0|0|0|-1|-1|3
2021-04-08 19:56:09.160 +0100|18963.11710379167|-0.042022705078125|0.51251220703125|-1.094161987304688|18963.09714279167|0.6932442964262794|-0.1260669481245334|-0.7827921028134794|-1.672843337059021|-0.9340211749076843|-0.8528798222541809|-0.1361269652843475|-0.1652674674987793|-0.4026809334754944|XArbitraryZVertical|-0.3382970277945365|-0.1841048477863872|0.3360092619054765|0.8595105826703595|-0.08913826197385788|0.7052616477012634|-0.7033210396766663|0|0|0|-1|-1|3
2021-04-08 19:56:09.179 +0100|18963.13706479167|-0.1113739013671875|0.43658447265625|-1.106613159179688|18963.11710379167|0.6630931799659914|-0.1613151329006023|-0.8082812015385231|-1.168810844421387|-0.4963835179805756|-0.8485069870948792|0.01478391885757446|-0.2230238318443298|-0.4612911939620972|XArbitraryZVertical|-0.3464914189663419|-0.1976271577472684|0.3282673039291431|0.8562288923276351|-0.1109445542097092|0.723101019859314|-0.681774377822876|0|0|0|-1|-1|3
2021-04-08 19:56:09.199 +0100|18963.15702479167|0.034423828125|0.7194976806640625|-1.145965576171875|18963.13706479167|0.6319649091994992|-0.189783272331035|-0.8278339269764738|-1.280206918716431|-0.1160739585757256|-0.7998406887054443|-0.01218685507774353|-0.3140579462051392|-0.4521886110305786|XArbitraryZVertical|-0.3536095224818672|-0.2068742448307165|0.3194496884410909|0.8544679178590456|-0.12761390209198|0.7364678382873535|-0.6643267273902893|0|0|0|-1|-1|3
2021-04-08 19:56:09.220 +0100|18963.17698579167|-0.030548095703125|0.691802978515625|-1.008193969726562|18963.17698579167|0.5814524583345656|-0.2210532113290322|-0.856651770275033|-0.4875059723854065|0.4109074473381042|-0.5470706224441528|0.1477883905172348|-0.03647571802139282|-0.4641603231430054|XArbitraryZVertical|-0.3667292184084652|-0.2144590330462126|0.303052928531166|0.8530393831058635|-0.1436072736978531|0.7556537985801697|-0.6390340328216553|0|0|0|-1|-1|3
2021-04-08 19:56:09.244 +0100|18963.19694679167|-0.0409698486328125|0.633056640625|-0.8941192626953125||||||||||||||||||||||||3
2021-04-08 19:56:09.259 +0100|18963.21690679167|0.038330078125|0.687591552734375|-0.837158203125|18963.19694679167|0.5625445996654735|-0.2255020595876413|-0.8678210307845284|-0.9090946912765503|0.5680081844329834|-0.3944106101989746|0.08742383122444153|-0.111966073513031|-0.2949100136756897|XArbitraryZVertical|-0.3729994250150883|-0.2140329246699822|0.2956992023994355|0.8530084680573093|-0.1445525288581848|0.7629220485687256|-0.6301226615905762|0|0|0|-1|-1|3
2021-04-08 19:56:09.279 +0100|18963.23686779167|-0.0172119140625|0.76483154296875|-0.8560943603515625|18963.21690679167|0.5451456369154951|-0.2273476478274031|-0.886768209169755|-1.107056379318237|0.5871859192848206|-0.2597510814666748|0.1535550057888031|-0.1104056835174561|-0.2439435720443726|XArbitraryZVertical|-0.3829106439475197|-0.2134238103035224|0.2884738598949639|0.8512419210644018|-0.1424311697483063|0.7750335931777954|-0.6156594157218933|0|0|0|-1|-1|3
2021-04-08 19:56:09.299 +0100|18963.25682879167|-0.0384368896484375|0.84234619140625|-0.7135162353515625|18963.23686779167|0.5316508597336486|-0.2249935683017153|-0.9051287409912099|-0.7740277647972107|0.7044919729232788|-0.2213638126850128|0.1570093929767609|-0.02795898914337158|-0.1958473920822144|XArbitraryZVertical|-0.3927250893188459|-0.2115603286782577|0.2821294116973975|0.8493599032712049|-0.1377831250429153|0.7865046858787537|-0.6020184755325317|0|0|0|-1|-1|3
2021-04-08 19:56:09.319 +0100|18963.27678879167|-0.0556793212890625|0.8926239013671875|-0.742462158203125|18963.25682879167|0.5230665014661959|-0.2167314720510553|-0.9190146668583331|-0.6591455936431885|0.7861858010292053|0.03436959907412529|0.07615272700786591|-0.07521599531173706|-0.175652801990509|XArbitraryZVertical|-0.4008482037045744|-0.2076400514901619|0.2767180302580951|0.8483121551375138|-0.1304433047771454|0.7950043082237244|-0.5924126505851746|0|0|0|-1|-1|3
2021-04-08 19:56:09.339 +0100|18963.29674979167|-0.0872039794921875|0.9085540771484375|-0.4593963623046875|18963.27678879167|0.5211255241415477|-0.2014094997112883|-0.9258868443397582|0.006562808528542519|0.8891268372535706|0.0248566996306181|0.08926515281200409|0.1698559522628784|-0.1711103916168213|XArbitraryZVertical|-0.4061490840475566|-0.2013841113822297|0.2727210626456937|0.8485933269799891|-0.1202556043863297|0.7991541624069214|-0.5889747142791748|0|0|0|-1|-1|3
2021-04-08 19:56:09.359 +0100|18963.31671079167|-0.091156005859375|1.023590087890625|-0.4401397705078125|18963.29674979167|0.5242306854542127|-0.1824398820600961|-0.9264026365086818|-0.08372339606285095|0.7030993700027466|0.2066696435213089|0.03415827453136444|0.07623851299285889|-0.01873648166656494|XArbitraryZVertical|-0.4086414754099941|-0.194010157003316|0.2701672634188621|0.8499305478129137|-0.1089872196316719|0.7994641065597534|-0.5907444357872009|0|0|0|-1|-1|3
2021-04-08 19:56:09.379 +0100|18963.33667079167|-0.1191253662109375|1.004241943359375|-0.43408203125|18963.31671079167|0.5338984022241574|-0.163618195477054|-0.9269605256620917|0.2492313086986542|0.4151570498943329|0.3719185292720795|0.004027247428894043|0.2085939645767212|0.1825075149536133|XArbitraryZVertical|-0.4105045042424159|-0.1880442294959022|0.2704105434685133|0.8502962184210192|-0.0977771058678627|0.7997991442680359|-0.5922508239746094|0|0|0|-1|-1|3
2021-04-08 19:56:09.399 +0100|18963.35663179167|-0.131561279296875|0.870208740234375|-0.4636688232421875|18963.33667079167|0.5520224157270477|-0.1436780717426515|-0.9198289068180752|0.6143455505371094|0.159770667552948|0.527133047580719|-0.01720985770225525|0.2020919322967529|0.2141697406768799|XArbitraryZVertical|-0.4084411884859743|-0.1825362566311652|0.2742266583906767|0.851267405093607|-0.0867634043097496|0.7954979538917542|-0.599712610244751|0|0|0|-1|-1|3
2021-04-08 19:56:09.418 +0100|18963.37659279167|-0.1021881103515625|0.876251220703125|-0.4765625|18963.35663179167|0.5717661361409031|-0.1264132362981294|-0.9085472011593261|0.5116046667098999|0.007959621958434582|0.5319195985794067|-0.04868163913488388|0.1380710005760193|0.1388561725616455|XArbitraryZVertical|-0.4041529032942526|-0.177954064357922|0.2794901008886081|0.8525714566175724|-0.07752364128828049|0.7886112332344055|-0.6099855899810791|0|0|0|-1|-1|3
2021-04-08 19:56:09.438 +0100|18963.39655279167|-0.12664794921875|0.941925048828125|-0.4348297119140625|18963.37659279167|0.5909394906005938|-0.1123754305758791|-0.9024755877514787|0.3056900203227997|-0.1129106059670448|0.5670957565307617|-0.0394584983587265|0.07626718282699585|0.143425464630127|XArbitraryZVertical|-0.4018082018027556|-0.1751285176357124|0.2850582145960726|0.8524212666140981|-0.06948909163475037|0.7848633527755737|-0.615760326385498|0|0|0|-1|-1|3
2021-04-08 19:56:09.459 +0100|18963.41651379167|-0.2053070068359375|0.9278717041015625|-0.397979736328125|18963.39655279167|0.609235753788924|-0.1019132319891755|-0.8972535512509282|0.4163573682308197|-0.2857086956501007|0.4860075414180756|-0.05473508685827255|0.1118013858795166|0.1801548600196838|XArbitraryZVertical|-0.3994583770421606|-0.1737001481990174|0.290972712677489|0.8518193259046454|-0.06345931440591812|0.781616747379303|-0.6205224990844727|0|0|0|-1|-1|3
2021-04-08 19:56:09.479 +0100|18963.43647479167|-0.2513427734375|0.9282379150390625|-0.36175537109375|18963.41651379167|0.6243357892316107|-0.09719506700980864|-0.8855604062560279|0.7386311888694763|-0.4247556328773499|0.3541771769523621|-0.09829990565776825|0.1761094331741333|0.191851019859314|XArbitraryZVertical|-0.3937839068098417|-0.1732045425957279|0.2969848094442359|0.8524872616910875|-0.06141365692019463|0.7742697596549988|-0.6298688650131226|0|0|0|-1|-1|3
2021-04-08 19:56:09.499 +0100|18963.45643479167|-0.25323486328125|0.9359588623046875|-0.333282470703125|18963.43647479167|0.6347420858046018|-0.1000035513359387|-0.8745718399774187|0.6208338737487793|-0.6177669763565063|0.2527383267879486|-0.1741462498903275|0.1570329666137695|0.2640529870986938|XArbitraryZVertical|-0.3877004743067555|-0.175007627304805|0.3024611774975667|0.8529818770444395|-0.06402798742055893|0.76726895570755|-0.6381213665008545|0|0|0|-1|-1|3
2021-04-08 19:56:09.519 +0100|18963.47639579167|-0.2422943115234375|0.9129180908203125|-0.2913665771484375|18963.45643479167|0.6414283973770042|-0.110195319020267|-0.8675672300026566|0.5108268857002258|-0.8108060956001282|0.1713844388723373|-0.1836431175470352|0.1699058413505554|0.2817397117614746|XArbitraryZVertical|-0.3825178795920502|-0.1797197490901312|0.307579006116042|0.8525116776137814|-0.07111743092536926|0.7627579569816589|-0.642761766910553|0|0|0|-1|-1|3
2021-04-08 19:56:09.539 +0100|18963.49635679167|-0.267852783203125|0.8644256591796875|-0.381744384765625|18963.47639579167|0.6439149959114548|-0.127445552451295|-0.8647218316451658|0.2281767129898071|-1.026123523712158|0.004566962830722332|-0.1729317903518677|0.1598775386810303|0.342305600643158|XArbitraryZVertical|-0.3783833792596042|-0.1871664183435896|0.3120350576268014|0.8511338896901629|-0.08246960490942001|0.7609148025512695|-0.6435894966125488|0|0|0|-1|-1|3
2021-04-08 19:56:09.558 +0100|18963.51631679167|-0.307037353515625|0.8640594482421875|-0.36090087890625|18963.49635679167|0.639770446809116|-0.1533620044239571|-0.86681806640688|0.06991283595561981|-1.116884112358093|-0.1428639441728592|-0.1513682007789612|0.1418412923812866|0.3078570365905762|XArbitraryZVertical|-0.3756292926082841|-0.1976698198632381|0.3150839462390684|0.848852997751715|-0.09887571632862091|0.7622732520103455|-0.6396585702896118|0|0|0|-1|-1|3
2021-04-08 19:56:09.578 +0100|18963.53627779167|-0.3234405517578125|0.917999267578125|-0.2936553955078125|18963.51631679167|0.6298729407468088|-0.1849360954396077|-0.8727739359740124|-0.1753648221492767|-1.093793630599976|-0.2034266293048859|-0.1824456453323364|0.08863765001296997|0.2319040894508362|XArbitraryZVertical|-0.3742411310538845|-0.2099317344301351|0.316635941757313|0.8459396686113244|-0.1181827783584595|0.7661147117614746|-0.6317445039749146|0|0|0|-1|-1|3
2021-04-08 19:56:09.599 +0100|18963.55623879167|-0.30908203125|1.00347900390625|-0.2262420654296875|18963.53627779167|0.61841407277414|-0.2178268698020411|-0.8813485559216138|-0.1652419120073318|-1.097761034965515|-0.1860431879758835|-0.1826906949281693|0.1293280124664307|0.2812366485595703|XArbitraryZVertical|-0.3739956701595226|-0.2226824887808715|0.3177670260320994|0.8423561522325497|-0.1374689489603043|0.7715973854064941|-0.6210795044898987|0|0|0|-1|-1|3
2021-04-08 19:56:09.618 +0100|18963.57619879167|-0.28070068359375|0.9656219482421875|-0.168243408203125|18963.55623879167|0.6098484646020961|-0.2489320007410981|-0.8877463359765404|0.1366008967161179|-1.127343654632568|-0.09188482910394669|-0.1584963500499725|0.1833949089050293|0.3659192323684692|XArbitraryZVertical|-0.3728022382178652|-0.2348723297220191|0.3198840604720949|0.8387657033061716|-0.1554987281560898|0.7756512761116028|-0.6117069721221924|0|0|0|-1|-1|3
2021-04-08 19:56:09.638 +0100|18963.59615979167|-0.2310943603515625|0.829925537109375|-0.1747589111328125|18963.57619879167|0.6081385714538547|-0.2742263839758428|-0.8844010187231096|0.4698021113872528|-1.189423322677612|-0.05367885529994965|-0.1350032687187195|0.2338048219680786|0.4161040186882019|XArbitraryZVertical|-0.3674789644374833|-0.2447912726201425|0.3238742311603989|0.8367449688971812|-0.1716217994689941|0.7735354900360107|-0.610072910785675|0|0|0|-1|-1|3
2021-04-08 19:56:09.658 +0100|18963.61612079167|-0.1783905029296875|0.77435302734375|-0.202789306640625|18963.59615979167|0.6115867695209001|-0.2966779189183731|-0.8760167405288416|0.2824870347976685|-1.32617449760437|0.04876913502812386|-0.05677802860736847|0.1559392809867859|0.4425549507141113|XArbitraryZVertical|-0.3597249694204545|-0.253918171254262|0.3294135665504535|0.835230666692918|-0.187163919210434|0.768194854259491|-0.6122469902038574|0|0|0|-1|-1|3
2021-04-08 19:56:09.678 +0100|18963.63608079167|-0.1539764404296875|0.76141357421875|-0.2039794921875|18963.61612079167|0.612843052347261|-0.3240146815519134|-0.8760490456383123|-0.2243042588233948|-1.509759545326233|0.02926707081496716|0.00188639760017395|0.05458498001098633|0.4409405589103699|XArbitraryZVertical|-0.355036302917675|-0.2655366325839896|0.3348219968375692|0.8314649780443765|-0.2038208991289139|0.768215537071228|-0.6068790555000305|0|0|0|-1|-1|3
2021-04-08 19:56:09.699 +0100|18963.65604179167|-0.19219970703125|0.7880706787109375|-0.279266357421875|18963.65604179167|0.5981529701243291|-0.403308702838761|-0.9068360694112917|-1.129850268363953|-1.824440956115723|0.07709797471761703|0.07904119789600372|0.00257343053817749|0.3256948590278625|XArbitraryZVertical|-0.3570633225257331|-0.2985074814675253|0.3433397505140393|0.8157922378974737|-0.2418521046638489|0.7875579595565796|-0.5667981505393982|0|0|0|-1|-1|3
2021-04-08 19:56:09.718 +0100|18963.67600279167|-0.2049713134765625|0.8830413818359375|-0.2305908203125||||||||||||||||||||||||3
2021-04-08 19:56:09.738 +0100|18963.69596279167|-0.262176513671875|0.9937286376953125|-0.2232818603515625|18963.67600279167|0.5846477812548172|-0.4517125245846146|-0.9301457920545428|-1.276680707931519|-1.956730842590332|0.1461726576089859|0.0656108558177948|0.001333236694335938|0.2861043810844421|XArbitraryZVertical|-0.3608738623553011|-0.3176266354015257|0.3472029486499194|0.8051917077804044|-0.2609077394008636|0.8017070889472961|-0.5377667546272278|0|0|0|-1|-1|3
2021-04-08 19:56:09.758 +0100|18963.71592379167|-0.310272216796875|0.996368408203125|-0.239837646484375|18963.69596279167|0.5718682281374259|-0.50233892180935|-0.9533667510193915|-1.111994624137878|-2.067976713180542|0.2411776334047318|0.04347196221351624|0.1190796494483948|0.2777284979820251|XArbitraryZVertical|-0.364106853594835|-0.3372196939412521|0.3521545970795607|0.7935340087551326|-0.2787467837333679|0.8153692483901978|-0.507418155670166|0|0|0|-1|-1|3
2021-04-08 19:56:09.778 +0100|18963.73588479167|-0.29620361328125|0.9582366943359375|-0.3445892333984375|18963.71592379167|0.5627542995780732|-0.5518018806849299|-0.9730374875735812|-0.865740954875946|-2.126158952713013|0.3045385181903839|0.003036230802536011|0.1897743940353394|0.2556765377521515|XArbitraryZVertical|-0.3653107646786509|-0.3562537104100865|0.3585340721450132|0.7817191058552818|-0.2950279414653778|0.8265990018844604|-0.4792626798152924|0|0|0|-1|-1|3
2021-04-08 19:56:09.798 +0100|18963.75584479167|-0.348175048828125|0.924835205078125|-0.431365966796875|18963.73588479167|0.5571138719326819|-0.598535894742639|-0.9901861585761165|-0.7623100876808167|-2.069311857223511|0.3725886642932892|-0.002551823854446411|0.1458368301391602|0.1735615134239197|XArbitraryZVertical|-0.3651635479642142|-0.3742546921793223|0.365871244479519|0.7698879729529652|-0.3090626895427704|0.8361281156539917|-0.4531780183315277|0|0|0|-1|-1|3
2021-04-08 19:56:09.818 +0100|18963.77580579167|-0.4015655517578125|0.91241455078125|-0.524749755859375|18963.75584479167|0.5543534185096761|-0.6405227931246772|-1.00667215008109|-0.6914263367652893|-1.894910454750061|0.4509777426719666|0.008861899375915527|0.08923918008804321|0.03121906518936157|XArbitraryZVertical|-0.3648879465708312|-0.3905247225145086|0.3735706352828067|0.7581506513273204|-0.3195303082466125|0.8450571894645691|-0.4286944568157196|0|0|0|-1|-1|3
2021-04-08 19:56:09.838 +0100|18963.79576679167|-0.4541168212890625|0.91131591796875|-0.6040496826171875|18963.77580579167|0.5538904578920247|-0.6770020788118178|-1.022280297423645|-0.5521299242973328|-1.722491383552551|0.4924676418304443|-0.04029345512390137|0.0811496376991272|-0.07100710272789001|XArbitraryZVertical|-0.3646407864061407|-0.4047529367239117|0.3811909993182381|0.7469308193475188|-0.3266493082046509|0.8532992601394653|-0.4064243137836456|0|0|0|-1|-1|3
2021-04-08 19:56:09.858 +0100|18963.81572679167|-0.4925079345703125|0.90093994140625|-0.6930084228515625|18963.79576679167|0.5565894595683963|-0.7072962805122777|-1.036610343192985|-0.4641433358192444|-1.533236503601074|0.519029974937439|-0.1020307540893555|0.04718470573425293|-0.1723928153514862|XArbitraryZVertical|-0.3642246570481097|-0.4169364401764815|0.3888372742623088|0.7364170641941571|-0.3308299779891968|0.8606833815574646|-0.3870088160037994|0|0|0|-1|-1|3
2021-04-08 19:56:09.878 +0100|18963.83568779167|-0.5156097412109375|0.889404296875|-0.767486572265625|18963.81572679167|0.5612960316689318|-0.7313081860545835|-1.049416466624259|-0.3483540713787079|-1.269237518310547|0.5062898397445679|-0.1381865739822388|0.04445862770080566|-0.2870247662067413|XArbitraryZVertical|-0.3638251701765837|-0.426932483684674|0.395984231730172|0.7270190587030728|-0.3326380550861359|0.8671327233314514|-0.3707197904586792|0|0|0|-1|-1|3
2021-04-08 19:56:09.898 +0100|18963.85564879167|-0.5167999267578125|0.8863677978515625|-0.8663177490234375|18963.83568779167|0.5665748272687298|-0.749120753235952|-1.060438371748564|-0.2883375585079193|-0.9835165739059448|0.4388691484928131|-0.1802337467670441|0.03502380847930908|-0.3639331161975861|XArbitraryZVertical|-0.3636777072366973|-0.4346042795101788|0.4020674238428281|0.7191659671613948|-0.3326593041419983|0.8725696802139282|-0.3577152788639069|0|0|0|-1|-1|3
2021-04-08 19:56:09.918 +0100|18963.87560879167|-0.5330352783203125|0.90301513671875|-0.9635467529296875|18963.85564879167|0.5717598750320511|-0.7610016998444133|-1.070079962198646|-0.2034290879964828|-0.6426918506622314|0.4028620719909668|-0.1849987506866455|0.01234912872314453|-0.4567675590515137|XArbitraryZVertical|-0.3640996914641513|-0.4400190977179136|0.4069159351323604|0.712905476414523|-0.3310681283473969|0.8772388696670532|-0.3476292192935944|0|0|0|-1|-1|3
2021-04-08 19:56:09.938 +0100|18963.89556979167|-0.5263519287109375|0.834136962890625|-1.058807373046875|18963.87560879167|0.5808733394827461|-0.7616138039400798|-1.076521646406326|0.05370605364441872|-0.1980070173740387|0.3474896848201752|-0.1928427815437317|0.008405327796936035|-0.5745009183883667|XArbitraryZVertical|-0.3646027448008501|-0.4420407153816054|0.410818924933502|0.709149413357589|-0.3273743987083435|0.8803130388259888|-0.3433296978473663|0|0|0|-1|-1|3
2021-04-08 19:56:09.958 +0100|18963.91553079167|-0.501373291015625|0.7407379150390625|-1.110336303710938|18963.89556979167|0.5953178081686112|-0.7477569897390972|-1.07788851175547|0.2821558713912964|0.3132268488407135|0.2471511960029602|-0.2115116715431213|-0.004144191741943359|-0.6753420233726501|XArbitraryZVertical|-0.3648334586914354|-0.4397969908471197|0.413525088348351|0.708852828543481|-0.3217670917510986|0.8809606432914734|-0.3469503223896027|0|0|0|-1|-1|3
2021-04-08 19:56:09.978 +0100|18963.93549079167|-0.4740447998046875|0.6857452392578125|-1.119140625|18963.91553079167|0.6096794523321988|-0.724030002430983|-1.075836884656474|0.3073964416980743|0.7863434553146362|0.1298580318689346|-0.2087646126747131|-0.09818804264068604|-0.7390692234039307|XArbitraryZVertical|-0.3657649853959882|-0.4339310475696722|0.4141347453318528|0.7116265203230377|-0.3146417140960693|0.8799879550933838|-0.3558396399021149|0|0|0|-1|-1|3
2021-04-08 19:56:09.998 +0100|18963.95545179167|-0.38897705078125|0.6331787109375|-1.082626342773438|18963.93549079167|0.6204322840274089|-0.6945653165213789|-1.072529391314432|0.2654808163642883|1.220469355583191|0.02780002541840076|-0.176171749830246|-0.168770968914032|-0.749677300453186|XArbitraryZVertical|-0.3681842986558961|-0.4252597227564421|0.4123377868376504|0.7166394860558239|-0.3058832287788391|0.878412127494812|-0.3671889901161194|0|0|0|-1|-1|3
2021-04-08 19:56:10.018 +0100|18963.97541216667|-0.3100738525390625|0.707489013671875|-1.031494140625|18963.95545179167|0.623536284457652|-0.6640323180796355|-1.069280319230779|0.02837423235177994|1.544777512550354|-0.1027248725295067|-0.140371710062027|-0.2266007661819458|-0.7378374338150024|XArbitraryZVertical|-0.3724526440766004|-0.4147026039929542|0.4075976407691834|0.7233015304272021|-0.2962884306907654|0.8768547177314758|-0.3786015510559082|0|0|0|-1|-1|3
2021-04-08 19:56:10.038 +0100|18963.99537216667|-0.25897216796875|0.816558837890625|-0.97442626953125|18963.97541216667|0.6158106749315519|-0.6375877610672352|-1.068985291944203|-0.1750985532999039|1.764306902885437|-0.1926664859056473|-0.06085464358329773|-0.2167696356773376|-0.6725089550018311|XArbitraryZVertical|-0.3792493088414598|-0.4036264982897011|0.3998033590055957|0.7303512416816308|-0.2863279283046722|0.8767128586769104|-0.3865112364292145|0|0|0|-1|-1|3
2021-04-08 19:56:10.057 +0100|18964.01533316667|-0.191070556640625|0.7977752685546875|-0.890411376953125|18963.99537216667|0.6062041748300657|-0.6089289716585916|-1.068061532173554|0.06466228514909744|1.94920027256012|-0.2565380334854126|-0.009801715612411499|-0.1034556031227112|-0.5996508002281189|XArbitraryZVertical|-0.3864399264112282|-0.3912205020865193|0.3907412711279081|0.7381951499203672|-0.2755981087684631|0.8762681484222412|-0.3952214121818542|0|0|0|-1|-1|3
2021-04-08 19:56:10.077 +0100|18964.03529416667|-0.1566314697265625|0.757415771484375|-0.7957305908203125|18964.01533316667|0.6025965511658561|-0.571927533658743|-1.060165070731044|0.4462456107139587|2.067418336868286|-0.3365001678466797|0.05000331997871399|-0.05071920156478882|-0.5287294387817383|XArbitraryZVertical|-0.3909977656635942|-0.3763574029588566|0.3818340757703077|0.7481168155811951|-0.2645260691642761|0.8724361658096313|-0.41095170378685|0|0|0|-1|-1|3
2021-04-08 19:56:10.097 +0100|18964.05525416667|-0.1619873046875|0.7198944091796875|-0.7113494873046875|18964.03529416667|0.6011350990665919|-0.531397175108311|-1.047388313411627|0.5870696902275085|2.110787868499756|-0.3877813816070557|0.08203664422035217|-0.0850837230682373|-0.4055629968643188|XArbitraryZVertical|-0.3935796198616037|-0.3600572874268351|0.3728130886200776|0.7592525122776567|-0.2532855272293091|0.8661207556724548|-0.430907666683197|0|0|0|-1|-1|3
2021-04-08 19:56:10.117 +0100|18964.07521516667|-0.1806640625|0.710418701171875|-0.6538543701171875|18964.05525416667|0.5984134700711601|-0.4915376456344544|-1.034049321165494|0.4791742861270905|2.122148752212524|-0.3795020282268524|0.07842719554901123|-0.1298685073852539|-0.2916263341903687|XArbitraryZVertical|-0.3957986966029202|-0.3434256737668465|0.3634552432920582|0.7702613770457823|-0.2413448393344879|0.8593766093254089|-0.4508043825626373|0|0|0|-1|-1|3
2021-04-08 19:56:10.137 +0100|18964.09517616667|-0.1654052734375|0.7463226318359375|-0.5408477783203125|18964.07521516667|0.5912461458934676|-0.4554152943437668|-1.023697817274295|0.2679618000984192|2.114842653274536|-0.401197224855423|0.06019823253154755|-0.1323419213294983|-0.2139454185962677|XArbitraryZVertical|-0.3991096905012624|-0.3272859388802418|0.3532131140089024|0.7802793905259043|-0.2288073897361755|0.8540375232696533|-0.4671907424926758|0|0|0|-1|-1|3
2021-04-08 19:56:10.157 +0100|18964.11513616667|-0.1790313720703125|0.8132781982421875|-0.4736328125|18964.09517616667|0.5808673974240725|-0.4224816278771336|-1.017200087081146|0.1042312458157539|2.057517766952515|-0.3625464141368866|0.0422922670841217|-0.1304848194122314|-0.131895899772644|XArbitraryZVertical|-0.4037464271603151|-0.3118130564972821|0.3423869236362388|0.7890074506367003|-0.2155706584453583|0.850639283657074|-0.4795228838920593|0|0|0|-1|-1|3
2021-04-08 19:56:10.177 +0100|18964.13509716667|-0.1595611572265625|0.828887939453125|-0.4381256103515625|18964.11513616667|0.5726963289592529|-0.3887718731550486|-1.012396042432163|0.2111693173646927|2.0259690284729|-0.2180583924055099|0.02889765799045563|-0.0724073052406311|-0.022295743227005|XArbitraryZVertical|-0.4086360345141062|-0.2964299131930753|0.3322206564732378|0.7967279408837173|-0.2008333206176758|0.8481037616729736|-0.4902918040752411|0|0|0|-1|-1|3
2021-04-08 19:56:10.197 +0100|18964.15505816667|-0.1917266845703125|0.7636871337890625|-0.4007720947265625|18964.13509716667|0.5686677889499581|-0.3521602113514522|-1.005948891559753|0.3898720443248749|1.958610415458679|-0.2002203464508057|-0.00605417788028717|-0.001011192798614502|0.0281636118888855|XArbitraryZVertical|-0.4124723501485394|-0.2804432221857492|0.3230248094402831|0.8042842618809531|-0.1846345365047455|0.844670295715332|-0.5024363398551941|0|0|0|-1|-1|3
2021-04-08 19:56:10.217 +0100|18964.17501816667|-0.1963958740234375|0.666351318359375|-0.2720489501953125|18964.15505816667|0.5709203631958196|-0.3118804792643112|-0.9940678990741834|0.8038573861122131|1.913547873497009|-0.1036029160022736|0.002388060092926025|-0.001855134963989258|0.1112957000732422|XArbitraryZVertical|-0.4135299434250708|-0.2636350354065495|0.3155798888270512|0.8123417065519873|-0.1673199981451035|0.8382510542869568|-0.5189791321754456|0|0|0|-1|-1|3
2021-04-08 19:56:10.237 +0100|18964.19497916667|-0.235748291015625|0.5790557861328125|-0.0915985107421875|18964.17501816667|0.5767535166391068|-0.2698911286853815|-0.9759375898091233|1.025773882865906|1.760520815849304|-0.1209277585148811|-0.04141077399253845|-0.09821593761444092|0.2013005018234253|XArbitraryZVertical|-0.4115907200798126|-0.2460492328859318|0.3093902575838667|0.821176432889053|-0.1494153439998627|0.828227698802948|-0.5401057004928589|0|0|0|-1|-1|3
2021-04-08 19:56:10.257 +0100|18964.21494016667|-0.32672119140625|0.489532470703125|0.120880126953125|18964.19497916667|0.5839767182821806|-0.2326572370764516|-0.9556520599599008|0.9665009379386902|1.320015907287598|0.03306012228131294|-0.06824065744876862|-0.2122278213500977|0.3627225756645203|XArbitraryZVertical|-0.4077410751701471|-0.2301804533769186|0.3050024625115489|0.8292995646014836|-0.1330530345439911|0.81669020652771|-0.5615283250808716|0|0|0|-1|-1|3
2021-04-08 19:56:10.277 +0100|18964.23490016667|-0.48199462890625|0.4817352294921875|0.2011871337890625|18964.21494016667|0.59433302849745|-0.205900141894647|-0.9394636192678086|0.7195332050323486|0.4736326038837433|0.2244781106710434|-0.1647609174251556|-0.268575131893158|0.5958825349807739|XArbitraryZVertical|-0.4036834891297117|-0.2194597506547971|0.3041939914220994|0.834471778564336|-0.1206697523593903|0.8072416186332703|-0.5777541399002075|0|0|0|-1|-1|3
2021-04-08 19:56:10.297 +0100|18964.25486116667|-0.7266693115234375|0.51300048828125|0.2054443359375|18964.23490016667|0.6090605752281937|-0.1942408905042255|-0.9334844068704315|-0.01556201744824648|-0.4875868558883667|0.5296069383621216|-0.2632116079330444|-0.3309495449066162|0.772446870803833|XArbitraryZVertical|-0.4012864494308674|-0.2168998021654203|0.3081372927404744|0.8348504323012286|-0.1148551478981972|0.8036981821060181|-0.5838473439216614|0|0|0|-1|-1|3
2021-04-08 19:56:10.317 +0100|18964.27482216667|-0.6117401123046875|0.5977935791015625|0.26397705078125|18964.25486116667|0.6268745173452014|-0.1986661625874629|-0.9423398595331673|-0.5487123131752014|-1.41314971446991|0.6483146548271179|-0.5132437944412231|-0.3036861419677734|0.7927649617195129|XArbitraryZVertical|-0.4024394068757504|-0.223329000025811|0.3162024476643923|0.8295678123459576|-0.1160284504294395|0.8089358806610107|-0.5763333439826965|0|0|0|-1|-1|3
2021-04-08 19:56:10.337 +0100|18964.29478216667|-0.403472900390625|0.8125152587890625|0.3144683837890625|18964.27482216667|0.6478903275865739|-0.2197312962500087|-0.9571405063785181|-0.7008577585220337|-2.46015453338623|0.8161295652389526|-0.5846707820892334|-0.2821776866912842|0.7909579873085022|XArbitraryZVertical|-0.4029459717527005|-0.2379652357154133|0.328711086964475|0.8203390384990009|-0.125518724322319|0.8175482153892517|-0.5620141625404358|0|0|0|-1|-1|3
2021-04-08 19:56:10.357 +0100|18964.31474316667|-0.2852325439453125|0.937164306640625|0.2511138916015625|18964.29478216667|0.6698303230693322|-0.2622588629803648|-0.9760039765613596|-0.7836136817932129|-3.604726076126099|0.8602863550186157|-0.3803140819072723|-0.1991137266159058|0.8600258231163025|XArbitraryZVertical|-0.4010488593801296|-0.2618609741180053|0.3457284137076115|0.8068833721523689|-0.1452745646238327|0.8282648921012878|-0.5411772727966309|0|0|0|-1|-1|3
2021-04-08 19:56:10.377 +0100|18964.33470416667|-0.05926513671875|0.957183837890625|-0.036956787109375|18964.31474316667|0.6931243695692851|-0.3265505750598029|-0.9946812190658277|-0.6506238579750061|-4.72881031036377|0.9136848449707031|-0.1700522005558014|0.07067131996154785|0.8378666639328003|XArbitraryZVertical|-0.3942328874413984|-0.2942611396309667|0.3674876923231972|0.7892678058479797|-0.1747502237558365|0.8385853171348572|-0.5159816145896912|0|0|0|-1|-1|3
2021-04-08 19:56:10.397 +0100|18964.35466416667|-0.1224822998046875|1.121826171875|-0.478240966796875|18964.33470416667|0.7177201492485252|-0.4092387708605368|-1.011407898662646|-0.4125815033912659|-5.543610572814941|0.9581973552703857|0.04338887333869934|0.09001243114471436|0.6150070428848267|XArbitraryZVertical|-0.3816713805239158|-0.3330212458042051|0.392999931003218|0.76744706012754|-0.2111586928367615|0.8475798368453979|-0.4868476092815399|0|0|0|-1|-1|3
2021-04-08 19:56:10.417 +0100|18964.37462516667|0.0175018310546875|1.247299194335938|-1.002044677734375|18964.35466416667|0.7511401423767021|-0.4970786738570154|-1.020580755052366|0.3350516557693481|-5.974242210388184|1.092142105102539|0.1771170794963837|0.186193585395813|0.1938619613647461|XArbitraryZVertical|-0.3616900179928028|-0.3733414176601797|0.4220119533292659|0.7427668957876008|-0.2493362724781036|0.8524118065834045|-0.4595930278301239|0|0|0|-1|-1|3
2021-04-08 19:56:10.437 +0100|18964.39458616667|-0.0802459716796875|1.4951171875|-1.466842651367188|18964.37462516667|0.8090872923250904|-0.5685008508048661|-1.020830103462187|1.24635910987854|-6.092646598815918|1.590399503707886|0.2632718682289124|0.3276800513267517|-0.2920025885105133|XArbitraryZVertical|-0.3347725725221938|-0.4095152939492269|0.455596863639622|0.7160001273739219|-0.2813833355903625|0.8525421619415283|-0.4404490888118744|0|0|0|-1|-1|3
2021-04-08 19:56:10.457 +0100|18964.41454616667|-0.272216796875|1.634262084960938|-1.94049072265625|18964.39458616667|0.9061306864484182|-0.6066178335165826|-1.015028408643945|2.154532432556152|-5.995413780212402|2.331393241882324|0.2726723849773407|0.521156370639801|-0.7975546717643738|XArbitraryZVertical|-0.3027663852370543|-0.4377226386325666|0.4956036106875121|0.6863735875022969|-0.3007782995700836|0.849495530128479|-0.4334628283977509|0|0|0|-1|-1|3
2021-04-08 19:56:10.477 +0100|18964.43450716667|-0.485931396484375|1.65118408203125|-2.235519409179688|18964.41454616667|1.048932386478384|-0.6048496491705395|-1.002492987619539|3.630727291107178|-5.923154354095459|3.195634126663208|0.1444684863090515|0.7159316539764404|-1.181074976921082|XArbitraryZVertical|-0.2662620905928184|-0.4557904258498467|0.5431005595726497|0.652994318642204|-0.3060429394245148|0.8428153395652771|-0.4427191615104675|0|0|0|-1|-1|3
2021-04-08 19:56:10.496 +0100|18964.45446816667|-0.779693603515625|1.474380493164062|-2.417266845703125|18964.43450716667|1.244989333265189|-0.5519806621772206|-0.9693363544604371|5.114239692687988|-5.231925010681152|4.092725276947021|-0.1128137707710266|0.8954761624336243|-1.469375133514404|XArbitraryZVertical|-0.2236107026844843|-0.4572662117187769|0.5995347637891576|0.6176278447858892|-0.2967159152030945|0.824510395526886|-0.4818117320537567|0|0|0|-1|-1|3
2021-04-08 19:56:10.517 +0100|18964.47442816667|-1.255111694335938|1.475265502929688|-2.405441284179688|18964.45446816667|1.46220452512896|-0.4704046875066494|-0.9259263992905709|4.966193199157715|-4.374831676483154|4.924514770507812|-0.4395297169685364|0.7525041103363037|-1.707280874252319|XArbitraryZVertical|-0.1840946153423539|-0.4452030981537881|0.6584347274962163|0.5782450451944156|-0.2724443972110748|0.7991779446601868|-0.5358067750930786|0|0|0|-1|-1|3
2021-04-08 19:56:10.536 +0100|18964.49438916667|-1.377029418945312|0.948699951171875|-2.4769287109375|18964.47442816667|1.686423441597842|-0.372451768960098|-0.8621158860506762|5.863226890563965|-3.166666507720947|5.000686168670654|-0.7621385455131531|0.89844810962677|-2.016684055328369|XArbitraryZVertical|-0.1474623926274402|-0.4185089752198685|0.7181907895537842|0.5360104473735815|-0.2368381023406982|0.7592213749885559|-0.6062101721763611|0|0|0|-1|-1|3
2021-04-08 19:56:10.556 +0100|18964.51435016667|-1.55218505859375|0.712799072265625|-2.393600463867188|18964.49438916667|1.884780405751753|-0.2829400528336798|-0.7797997719524404|6.25827693939209|-2.384831428527832|4.967310905456543|-1.019412755966187|0.256686806678772|-1.857135057449341|XArbitraryZVertical|-0.115707213479728|-0.3810784831885058|0.7722801345435968|0.4949491578460132|-0.1985121816396713|0.7031370401382446|-0.6827820539474487|0|0|0|-1|-1|3
2021-04-08 19:56:10.576 +0100|18964.53431016667|-1.507247924804688|0.271240234375|-2.4073486328125|18964.51435016667|2.043133712564694|-0.2132196906841708|-0.6858903690804854|6.163254261016846|-1.36214005947113|4.135017395019531|-1.354753971099854|0.1174008250236511|-1.573731660842896|XArbitraryZVertical|-0.08906919690237335|-0.3374922464759049|0.8173780801728058|0.4583220308828104|-0.1637538522481918|0.6333622932434082|-0.7563313245773315|0|0|0|-1|-1|3
2021-04-08 19:56:10.596 +0100|18964.55427116667|-2.014572143554688|-0.933685302734375|-1.99127197265625|18964.53431016667|2.141421029401619|-0.1703276083599178|-0.5547101828232142|8.034546852111816|-0.08146538585424423|1.140875697135925|-1.489226579666138|0.3872129917144775|-1.677674531936646|XArbitraryZVertical|-0.05902584941366196|-0.2786392363320944|0.8521134902562252|0.4390657521993048|-0.1440884470939636|0.5266969799995422|-0.8377522230148315|0|0|0|-1|-1|3
2021-04-08 19:56:10.616 +0100|18964.57423216667|-3.23931884765625|-2.283981323242188|-1.893447875976562|18964.55427116667|2.15909484458353|-0.1445527971111294|-0.3994480079454594|7.282763957977295|1.749151349067688|-2.574535131454468|-1.356699585914612|-0.8265166878700256|-1.237136602401733|XArbitraryZVertical|-0.03093774690677018|-0.2078682416498903|0.8687187267811409|0.4485102986337881|-0.1327096968889236|0.3889098763465881|-0.9116672873497009|0|0|0|-1|-1|3
2021-04-08 19:56:10.636 +0100|18964.59419216667|-5.790359497070312|-0.5262298583984375|-0.850738525390625|18964.57423216667|2.059068298280537|-0.1223411069795348|-0.2687571912216479|4.857333183288574|3.263941287994385|-8.367951393127441|-2.574711322784424|-2.057769775390625|-0.8294051289558411|XArbitraryZVertical|-0.01697526841159617|-0.1458219102263029|0.8519636854390303|0.5025989442889973|-0.1176552549004555|0.265533447265625|-0.956895649433136|0|0|0|-1|-1|3
2021-04-08 19:56:10.656 +0100|18964.61415316667|-5.77581787109375|1.39410400390625|1.2066650390625|18964.59419216667|1.837991470718149|-0.09048601774542442|-0.1664852512806382|2.850375652313232|4.79322624206543|-14.19017791748047|-4.455456733703613|-1.692862272262573|-0.6118705868721008|XArbitraryZVertical|-0.01455554260632265|-0.09337414173172254|0.7937105365089854|0.6009102038529446|-0.08911317586898804|0.1657172292470932|-0.9821388125419617|0|0|0|-1|-1|3
2021-04-08 19:56:10.676 +0100|18964.63411416667|-4.832290649414062|3.030120849609375|2.376419067382812|18964.61415316667|1.515603419286726|-0.03095419907763865|-0.1364232972873987|-2.178864717483521|5.464150905609131|-17.08219146728516|-5.943901062011719|0.3352220356464386|1.042159914970398|XArbitraryZVertical|-0.03888844624512906|-0.05805687859925725|0.6864120586782639|0.7238478738486045|-0.03066170029342175|0.1360005140304565|-0.9902341961860657|0|0|0|-1|-1|3
2021-04-08 19:56:10.696 +0100|18964.65407416667|-4.598114013671875|1.65155029296875|-0.2487945556640625|18964.63411416667|1.191592988059661|0.0223900620054493|-0.2223141264735022|-5.140392303466797|5.919734954833984|-14.3569450378418|-5.236619472503662|2.157687425613403|3.310854196548462|XArbitraryZVertical|-0.09805318321666512|-0.0530367423388932|0.5566420594801436|0.8232390759552857|0.02183721400797367|0.2204873859882355|-0.9751453399658203|0|0|0|-1|-1|3
2021-04-08 19:56:10.716 +0100|18964.67403516667|-6.606033325195312|-3.094009399414062|0.391387939453125|18964.65407416667|0.8833970868419938|0.1277781764030843|-0.3227175862430868|-4.301723957061768|12.10478210449219|-18.20713424682617|-5.222445011138916|3.167994022369385|2.566988468170166|XArbitraryZVertical|-0.1718820832846707|-0.01156947904792523|0.4117888443666465|0.8948479512299282|0.1208524033427238|0.3171450197696686|-0.9406453967094421|0|0|0|-1|-1|3
2021-04-08 19:56:10.736 +0100|18964.69399616667|-6.241409301757812|2.634017944335938|4.208694458007812|18964.67403516667|0.6012370469054148|0.2540190406256895|-0.5856396631008199|-17.93050765991211|13.61082077026367|-10.86122608184814|-4.714195728302002|-2.903027534484863|-0.5365530252456665|XArbitraryZVertical|-0.3093985590158445|0.03105280947877932|0.2462995904764502|0.917957010696606|0.209419772028923|0.5527325868606567|-0.806616485118866|0|0|0|-1|-1|3
2021-04-08 19:56:10.756 +0100|18964.71395716667|-2.673233032226562|3.946884155273438|2.220260620117188|18964.69399616667|0.6446127362694282|0.5810562833162822|-1.019841547617147|-19.09550285339355|13.94302845001221|-5.15114688873291|-8.646011352539062|-1.431705951690674|3.100443840026855|XArbitraryZVertical|-0.5227659812462425|0.08901060634994588|0.1322500416951174|0.8374381911629931|0.2873533964157104|0.8520250916481018|-0.4375856816768646|0|0|0|-1|-1|3
2021-04-08 19:56:10.776 +0100|18964.73391716667|-1.9134521484375|3.084304809570312|2.222274780273438|18964.71395716667|1.017182430135528|1.16283275298798|-1.257741911793396|-7.638874530792236|9.986932754516602|-2.315877914428711|-3.506432056427002|2.974338531494141|3.11197566986084|XArbitraryZVertical|-0.6456316757010959|0.1485540770049376|0.04691275752379173|0.7475899591101658|0.2826918065547943|0.9513973593711853|-0.1221828535199165|0|0|0|-1|-1|3
2021-04-08 19:56:10.796 +0100|18964.75387816667|-1.27490234375|0.857421875|4.450973510742188|18964.73391716667|0.8611359886635263|1.181297479866011|-1.274991889665089|10.4010181427002|6.603065013885498|-0.5537131428718567|-3.163994312286377|3.12721848487854|1.558906078338623|XArbitraryZVertical|-0.6360170530684572|0.2003384360889801|-0.02262311198117899|0.7448726323566817|0.2696758806705475|0.9565679430961609|-0.1106936410069466|0|0|0|-1|-1|3
2021-04-08 19:56:10.816 +0100|18964.77383816667|-0.8878173828125|0.9269561767578125|4.133758544921875|18964.75387816667|0.1928619764271491|0.6505326264929012|-1.126966632593671|14.00321197509766|3.1443030834198|-2.619657278060913|-1.747584462165833|1.012627720832825|4.027477741241455|XArbitraryZVertical|-0.5297868844481451|0.2201710183646901|-0.09276698508296065|0.8137844071633699|0.2600500285625458|0.903113842010498|-0.3417011499404907|0|0|0|-1|-1|3
2021-04-08 19:56:10.836 +0100|18964.79379916667|0.630401611328125|2.204208374023438|3.229827880859375|18964.77383816667|-0.1123127342142424|0.4300060549133412|-0.9948852491166772|4.7544264793396|1.742906093597412|-3.454725027084351|-1.408550024032593|-0.339290976524353|4.937999248504639|XArbitraryZVertical|-0.4549345515019056|0.2133638747527979|-0.1498348385330021|0.851504675185987|0.2270305901765823|0.8386964797973633|-0.4950208067893982|0|0|0|-1|-1|3
2021-04-08 19:56:10.856 +0100|18964.81376016667|1.3363037109375|2.03851318359375|2.044830322265625|18964.79379916667|-0.2598315367780926|0.3308241480662816|-0.9832537567956239|0.3536715507507324|0.4999797344207764|-3.235130786895752|-0.3924733996391296|0.887848973274231|4.240828037261963|XArbitraryZVertical|-0.4428882057447742|0.2042553053871633|-0.1897224285679621|0.8521357670198145|0.1800548434257507|0.832305371761322|-0.524259626865387|0|0|0|-1|-1|3
2021-04-08 19:56:10.876 +0100|18964.83372116667|0.815582275390625|1.790283203125|1.296142578125|18964.81376016667|-0.3412778046398107|0.258955245023483|-1.00127336630524|-0.6348320841789246|-0.7707506418228149|-1.709694027900696|1.120447516441345|1.387807369232178|3.169521570205688|XArbitraryZVertical|-0.4498189775118149|0.1924503292027235|-0.2087988024634554|0.8467756438800177|0.1380811780691147|0.842158317565918|-0.5212514996528625|0|0|0|-1|-1|3
2021-04-08 19:56:10.896 +0100|18964.85368116667|0.64276123046875|1.988739013671875|0.7150115966796875|18964.83372116667|-0.3877512479644005|0.1964257897684174|-1.028959097292272|-1.433982849121094|-1.514986872673035|-1.284034609794617|0.9454317688941956|0.9666020274162292|2.100490570068359|XArbitraryZVertical|-0.4640896290343973|0.1781117374072908|-0.21426174004788|0.8408263599720388|0.1006487831473351|0.8567626476287842|-0.5057940483093262|0|0|0|-1|-1|3
2021-04-08 19:56:10.916 +0100|18964.87364216667|0.3745574951171875|1.788284301757812|0.4087066650390625|18964.85368116667|-0.4181305289175732|0.1329724917729282|-1.0541059413281|-0.4075744152069092|-2.208392858505249|-0.5941517949104309|0.6544740200042725|1.027666807174683|1.532598376274109|XArbitraryZVertical|-0.4790313656636081|0.1603333219220222|-0.2116734393111521|0.8366699465183826|0.06549570709466934|0.8694589138031006|-0.4896443486213684|0|0|0|-1|-1|3
2021-04-08 19:56:10.936 +0100|18964.89360316667|0.3321075439453125|1.830490112304688|0.2268524169921875|18964.87364216667|-0.4350645394801349|0.06832492485503615|-1.045548869983954|0.9713594317436218|-2.789961338043213|-0.1481853872537613|0.4611270427703857|1.046009659767151|0.9699233770370483|XArbitraryZVertical|-0.4808477813071539|0.1365897624858919|-0.2035375920693039|0.8418439424241851|0.03423332795500755|0.865199863910675|-0.5002573132514954|0|0|0|-1|-1|3
2021-04-08 19:56:10.956 +0100|18964.91356316667|0.220001220703125|1.534378051757812|-0.0626983642578125|18964.89360316667|-0.428888672688942|0.01320586706803452|-1.026704327591575|1.003189921379089|-3.300420045852661|0.5760046243667603|0.3123467266559601|0.9167873859405518|0.8792608380317688|XArbitraryZVertical|-0.4786168135570093|0.1101260539314872|-0.1885390354703695|0.8504418557893433|0.006835706532001495|0.8555976748466492|-0.517596423625946|0|0|0|-1|-1|3
2021-04-08 19:56:10.976 +0100|18964.93352416667|0.146759033203125|1.389236450195312|-0.0476531982421875|18964.91356316667|-0.3971281749591956|-0.02912676841693701|-0.9998861051600479|1.534025430679321|-3.579036235809326|1.036561131477356|0.2987416982650757|0.8908908367156982|0.5500422120094299|XArbitraryZVertical|-0.4724274131284227|0.08202302842479088|-0.1662566341731287|0.8616516250117404|-0.01573783159255981|0.84140944480896|-0.5401691198348999|0|0|0|-1|-1|3
2021-04-08 19:56:10.996 +0100|18964.95348516667|-0.09613037109375|1.335769653320312|-0.11920166015625|18964.93352416667|-0.3483511598937007|-0.06108280742562606|-0.9763191120160949|0.937399685382843|-3.675992727279663|1.566891551017761|0.238473579287529|0.5493667125701904|0.5271410942077637|XArbitraryZVertical|-0.4663634364451091|0.05467639365237935|-0.1388783968444039|0.8719108403511262|-0.03418973088264465|0.8284414410591125|-0.5590312480926514|0|0|0|-1|-1|3
2021-04-08 19:56:11.015 +0100|18964.9734455|-0.2721710205078125|1.236434936523438|-0.23358154296875|18964.95348516667|-0.2849914615082286|-0.08231253772438929|-0.9604662591205668|0.9358447194099426|-3.709937572479248|1.863208413124084|0.07809779047966003|0.5764766931533813|0.4812783598899841|XArbitraryZVertical|-0.4620984283728462|0.02943206489533878|-0.1070281359330673|0.8798545073492419|-0.04712319746613503|0.8194589018821716|-0.5711975693702698|0|0|0|-1|-1|3
2021-04-08 19:56:11.036 +0100|18964.9934065|-0.383331298828125|1.145401000976562|-0.35577392578125|18964.9734455|-0.2140315372379094|-0.09905688360528973|-0.9469750162004408|0.7850694060325623|-3.74284029006958|2.117481470108032|-0.1428393721580505|0.4547362923622131|0.4027658104896545|XArbitraryZVertical|-0.4575344856865908|0.004836184470640346|-0.07249776032731815|0.8862184209580575|-0.05776862055063248|0.8116521835327148|-0.58127760887146|0|0|0|-1|-1|3
2021-04-08 19:56:11.055 +0100|18965.0133675|-0.5276031494140625|1.014053344726562|-0.4664306640625|18964.9934065|-0.1364308611260147|-0.110374247901117|-0.9386308439547343|0.5101510882377625|-3.689566373825073|2.293737888336182|-0.2577895224094391|0.3972913026809692|0.2958860993385315|XArbitraryZVertical|-0.4538902405404275|-0.0182994576844579|-0.03581101091024338|0.8901496483969459|-0.06508705019950867|0.8067498207092285|-0.5872975587844849|0|0|0|-1|-1|3
2021-04-08 19:56:11.076 +0100|18965.0333275|-0.6604156494140625|0.90142822265625|-0.59820556640625|18965.0133675|-0.05703922361679963|-0.1187862176981808|-0.9345049003122208|0.5070303678512573|-3.523769378662109|2.333141326904297|-0.3836832046508789|0.2776505947113037|0.1798588633537292|XArbitraryZVertical|-0.4509690532888457|-0.04015215448807446|0.001311899681865753|0.8916350502667936|-0.07041888684034348|0.8043049573898315|-0.5900294184684753|0|0|0|-1|-1|3
2021-04-08 19:56:11.095 +0100|18965.0532885|-0.8023681640625|0.8244476318359375|-0.7528228759765625|18965.0333275|0.02395547194483369|-0.1208236637136992|-0.9286566744842646|0.5897412896156311|-3.173643827438354|2.401245832443237|-0.5069916844367981|0.1614953279495239|0.06475985050201416|XArbitraryZVertical|-0.4463267432481876|-0.05933283858672599|0.03772514063612934|0.8921036716916844|-0.07218661159276962|0.8008161187171936|-0.5945441126823425|0|0|0|-1|-1|3
2021-04-08 19:56:11.115 +0100|18965.0732495|-0.721405029296875|0.7695770263671875|-0.8002166748046875|18965.0532885|0.1048544617289021|-0.1148224086684318|-0.9248082921981826|0.3768502473831177|-2.678783416748047|2.381592750549316|-0.6838533282279968|0.04782402515411377|-0.07691735029220581|XArbitraryZVertical|-0.4420630263299008|-0.0746218571539192|0.0723846526796888|0.8909390412632104|-0.06896989792585373|0.7985053658485413|-0.5980237126350403|0|0|0|-1|-1|3
2021-04-08 19:56:11.135 +0100|18965.0932095|-0.543304443359375|0.7095489501953125|-0.786956787109375|18965.0732495|0.1831751320430677|-0.1012783247272846|-0.9227337961858364|0.3485261499881744|-2.238476276397705|2.278995752334595|-0.7299996614456177|-0.001843929290771484|-0.2023667693138123|XArbitraryZVertical|-0.438592933835956|-0.08579830161932755|0.1042310851290097|0.8884880187326517|-0.06103149056434631|0.7972548604011536|-0.6005497574806213|0|0|0|-1|-1|3
2021-04-08 19:56:11.155 +0100|18965.1131705|-0.518707275390625|0.6929473876953125|-0.8205108642578125|18965.0932095|0.2584424228404715|-0.08267179161630005|-0.9212482398477873|0.2191004306077957|-1.918676018714905|2.264691829681396|-0.584561288356781|-0.0796358585357666|-0.1937163472175598|XArbitraryZVertical|-0.4356545126380461|-0.09393958427556041|0.133548384798837|0.8851810632214228|-0.049945168197155|0.7963572144508362|-0.6027609705924988|0|0|0|-1|-1|3
2021-04-08 19:56:11.175 +0100|18965.1331315|-0.394927978515625|0.63275146484375|-0.821502685546875|18965.1131705|0.3314395701330152|-0.05948242165109746|-0.9188530892372641|0.3403836786746979|-1.562797427177429|2.09754467010498|-0.4838442802429199|-0.08018386363983154|-0.2108222842216492|XArbitraryZVertical|-0.4327688029756809|-0.09940570041640988|0.1607971033169066|0.8814613861439763|-0.0360686331987381|0.7949062585830688|-0.6056593656539917|0|0|0|-1|-1|3
2021-04-08 19:56:11.195 +0100|18965.1530915|-0.33441162109375|0.66143798828125|-0.87384033203125|18965.1331315|0.3962500489759001|-0.03626667517361645|-0.9155804518605384|0.1315577477216721|-1.320760726928711|1.873771905899048|-0.4532483816146851|-0.1251452565193176|-0.2140824794769287|XArbitraryZVertical|-0.4300480857065764|-0.1029257073528382|0.1843919817413377|0.8777612111328903|-0.02209354937076569|0.7929164171218872|-0.6089298725128174|0|0|0|-1|-1|3
2021-04-08 19:56:11.215 +0100|18965.1730525|-0.2509613037109375|0.7330169677734375|-0.9386444091796875|18965.1530915|0.4550317397024441|-0.01394848418390808|-0.9166973056559835|-0.09208279103040695|-1.130977988243103|1.683021783828735|-0.34321328997612|-0.1397718191146851|-0.2292295694351196|XArbitraryZVertical|-0.4296440317078452|-0.1058928970446709|0.205278372897209|0.8729568516873167|-0.008486604318022728|0.7935964465141296|-0.6083853840827942|0|0|0|-1|-1|3
2021-04-08 19:56:11.235 +0100|18965.1930135|-0.0881805419921875|0.758514404296875|-1.047042846679688|18965.1730525|0.5055543186372147|0.004582432134321648|-0.9190172863849608|-0.07124584913253784|-1.060229301452637|1.367507815361023|-0.3131892681121826|-0.09650349617004395|-0.2879653573036194|XArbitraryZVertical|-0.4299262037926363|-0.1089299282247903|0.2231672290327023|0.8680404929773744|0.002779701957479119|0.7950059175491333|-0.6065954566001892|0|0|0|-1|-1|3
2021-04-08 19:56:11.255 +0100|18965.2129735|-0.0560760498046875|0.590057373046875|-1.184677124023438|18965.1930135|0.5474030555882055|0.01580426906637777|-0.9162507846158517|0.3681882321834564|-1.148801565170288|1.188273906707764|-0.1544423848390579|-0.03474849462509155|-0.3785656690597534|XArbitraryZVertical|-0.427707350404031|-0.1127164185902892|0.239052515778069|0.8644162834869575|0.009621220640838146|0.7933247089385986|-0.6087228655815125|0|0|0|-1|-1|3
2021-04-08 19:56:11.275 +0100|18965.2329345|0.038177490234375|0.50762939453125|-1.26214599609375|18965.2129735|0.5806398002319294|0.01940377505043506|-0.9028738197929462|0.8480710983276367|-1.122130632400513|0.8531522750854492|-0.08841781318187714|-0.09036135673522949|-0.5105810165405273|XArbitraryZVertical|-0.4204817965384436|-0.1165125069747924|0.2535141810790538|0.8633369243446717|0.01201709732413292|0.7851100564002991|-0.6192398071289062|0|0|0|-1|-1|3
2021-04-08 19:56:11.295 +0100|18965.2528955|-0.0564117431640625|0.506439208984375|-1.311355590820312|18965.2329345|0.6012410392835053|0.0133200832155405|-0.8871163433991534|0.6600691080093384|-1.1022047996521|0.4365994036197662|-0.001531600952148438|-0.2575219869613647|-0.5922207832336426|XArbitraryZVertical|-0.4116817956733119|-0.1213300937347646|0.2647222779764961|0.863550393666194|0.008413384668529034|0.7752535343170166|-0.6315942406654358|0|0|0|-1|-1|3
2021-04-08 19:56:11.315 +0100|18965.2728555|-0.0965118408203125|0.5471649169921875|-1.3885498046875|18965.2528955|0.6059432758120273|-0.005127454339461696|-0.8781792425552275|0.2255045920610428|-1.112114310264587|-0.1235361397266388|-0.004904478788375854|-0.2723385095596313|-0.6506080031394958|XArbitraryZVertical|-0.4050596018316924|-0.1290509182147614|0.2710946172420135|0.8635858557242416|-0.003274139948189259|0.7695775032043457|-0.6385451555252075|0|0|0|-1|-1|3
2021-04-08 19:56:11.335 +0100|18965.2928165|-0.192230224609375|0.418487548828125|-1.188507080078125|18965.2728555|0.5952726119841997|-0.03518369415508998|-0.8733019654258689|0.4017508029937744|-1.034059405326843|-0.5509952306747437|-0.0476423054933548|-0.2165874242782593|-0.7137186527252197|XArbitraryZVertical|-0.3995755099849249|-0.1392425957562651|0.2728165506471742|0.8640151545652146|-0.02259380184113979|0.7664539813995361|-0.6419018507003784|0|0|0|-1|-1|3
2021-04-08 19:56:11.355 +0100|18965.3127775|-0.636077880859375|0.4610595703125|-0.6467132568359375|18965.2928165|0.5759618519141243|-0.06883715972307708|-0.8603430949620808|0.8532174229621887|-0.8803561329841614|-0.7073591947555542|-0.08410859107971191|-0.263879120349884|-0.6728219985961914|XArbitraryZVertical|-0.3907333132948896|-0.1483611182363182|0.2717480502845956|0.8668734581969215|-0.04485860094428062|0.7580663561820984|-0.650632917881012|0|0|0|-1|-1|3
2021-04-08 19:56:11.375 +0100|18965.3327375|-1.19171142578125|0.977508544921875|-0.3199462890625|18965.3127775|0.5598904330074389|-0.09830618035805853|-0.8405741503317575|0.8767682313919067|-0.9237164258956909|-0.403116762638092|-0.3145824372768402|-0.3767392039299011|-0.3061245679855347|XArbitraryZVertical|-0.3792706031712994|-0.1557126849002076|0.2712192017171889|0.8708316377572285|-0.06546812504529953|0.7450262308120728|-0.6638147234916687|0|0|0|-1|-1|3
2021-04-08 19:56:11.395 +0100|18965.3526985|-1.390380859375|0.640228271484375|-0.00775146484375|18965.3327375|0.5661905650812717|-0.1162581242878041|-0.8210718604407544|1.405267834663391|-1.375517129898071|0.6269202828407288|-0.8235129714012146|0.02441084384918213|0.2492868304252625|XArbitraryZVertical|-0.3676878920273049|-0.1624406910800298|0.2779495280843066|0.8724464995535876|-0.07904427498579025|0.7318766713142395|-0.6768372654914856|0|0|0|-1|-1|3
2021-04-08 19:56:11.415 +0100|18965.3726595|-0.753631591796875|0.2408294677734375|0.276947021484375|18965.3526985|0.6013809246231706|-0.1220950619204992|-0.7910517101193957|1.682075977325439|-1.758252382278442|1.481619834899902|-1.297363758087158|0.2764108180999756|0.5740243196487427|XArbitraryZVertical|-0.350645962605492|-0.1676768162712987|0.2952556921659271|0.8727863957402149|-0.08563165366649628|0.7110931277275085|-0.6978638172149658|0|0|0|-1|-1|3
2021-04-08 19:56:11.435 +0100|18965.3926205|-0.3773345947265625|0.178466796875|0.4987640380859375|18965.3726595|0.6575449661702034|-0.1238198463136109|-0.7765324876986383|0.107385590672493|-2.419610023498535|2.135875940322876|-0.9929075837135315|-0.308551549911499|0.9131181836128235|XArbitraryZVertical|-0.339130750374883|-0.1762016694202472|0.3204444481421192|0.8667518363174486|-0.0881011113524437|0.7008100748062134|-0.7078866362571716|0|0|0|-1|-1|3
2021-04-08 19:56:11.455 +0100|18965.4125805|-0.0667572021484375|0.7728271484375|0.3804931640625|18965.3926205|0.7206508289095579|-0.1348318066672936|-0.8007636789807233|-1.906707406044006|-3.137655019760132|2.568602323532104|-0.4364182651042938|-0.6093513369560242|1.108542442321777|XArbitraryZVertical|-0.3420382868723165|-0.1951656418664198|0.3485271426378761|0.8505581352505981|-0.09358019381761551|0.7178879380226135|-0.6898403763771057|0|0|0|-1|-1|3
2021-04-08 19:56:11.475 +0100|18965.4325415|-0.0745391845703125|0.8536529541015625|-0.202423095703125|18965.4125805|0.7864707175892984|-0.1577857146318174|-0.8582676987792844|-2.913831949234009|-4.046724796295166|2.61268424987793|-0.08375241607427597|-0.2676510214805603|1.151854753494263|XArbitraryZVertical|-0.3556694964211825|-0.2251334322470122|0.3776399201717257|0.8247438581118787|-0.1027248278260231|0.7567111849784851|-0.6456282734870911|0|0|0|-1|-1|3
2021-04-08 19:56:11.495 +0100|18965.4525025|-0.1130828857421875|0.887847900390625|-0.9978179931640625|18965.4325415|0.8507091651537434|-0.1939768537457942|-0.9228271848893027|-2.603780031204224|-4.547379970550537|2.49555492401123|0.07041704654693604|0.0525583028793335|0.7060955762863159|XArbitraryZVertical|-0.367856204142855|-0.2618346112455789|0.4070258937827844|0.7940117141258732|-0.1163454949855804|0.7973111867904663|-0.5922489166259766|0|0|0|-1|-1|3
2021-04-08 19:56:11.515 +0100|18965.4724625|-0.0809478759765625|0.9021759033203125|-1.724929809570312|18965.4525025|0.9166436191391124|-0.2303980574426491|-0.9713316875627843|-1.152295708656311|-4.37840461730957|2.314314842224121|0.001372396945953369|0.0556952953338623|-0.04912638664245605|XArbitraryZVertical|-0.3708717962968461|-0.2963243404945357|0.4368062290594421|0.7640984758175796|-0.1288437396287918|0.8256377577781677|-0.5492919683456421|0|0|0|-1|-1|3
2021-04-08 19:56:11.535 +0100|18965.4924235|0.0368804931640625|0.8507080078125|-1.868438720703125|18965.4724625|0.9980350444002669|-0.2439728632818079|-0.9822005208993377|1.289291977882385|-3.755266666412354|2.287495613098145|0.01472839713096619|0.05562388896942139|-0.8477520942687988|XArbitraryZVertical|-0.3596583962163267|-0.3182289895200588|0.4692556421575895|0.741063751674818|-0.1341124773025513|0.8317211270332336|-0.5387523174285889|0|0|0|-1|-1|3
2021-04-08 19:56:11.554 +0100|18965.5123845|0.0721435546875|0.8536224365234375|-2.238540649414062|18965.4924235|1.101246996136719|-0.2270829879046947|-0.9464752704358183|3.228121280670166|-3.026780366897583|2.599027872085571|0.1620294600725174|0.1045644879341125|-1.295129418373108|XArbitraryZVertical|-0.3331414833662235|-0.322872909865373|0.5067224386737496|0.7266376423697003|-0.1316026896238327|0.8113601803779602|-0.5695396661758423|0|0|0|-1|-1|3
2021-04-08 19:56:11.574 +0100|18965.5323445|0.0304718017578125|1.576675415039062|-2.799072265625|18965.5123845|1.218914202489147|-0.1890118394799144|-0.9005169910981707|2.666616439819336|-2.861485958099365|3.432739019393921|0.1718327701091766|0.01710319519042969|-1.269923686981201|XArbitraryZVertical|-0.3066191281812303|-0.3176695147947453|0.5467456588973084|0.7114352551671566|-0.1167172268033028|0.7836481928825378|-0.6101415753364563|0|0|0|-1|-1|3
2021-04-08 19:56:11.594 +0100|18965.5523055|-0.096588134765625|1.357376098632812|-3.458480834960938|18965.5323445|1.352807446715955|-0.1385694288123598|-0.8553340251807872|3.293258666992188|-2.527271509170532|4.383482456207275|0.1771245002746582|0.4522722959518433|-1.838449358940125|XArbitraryZVertical|-0.2832234463380947|-0.3081316071301117|0.5906375133060137|0.6899179785117691|-0.09060628712177277|0.7547900676727295|-0.6496787667274475|0|0|0|-1|-1|3
2021-04-08 19:56:11.614 +0100|18965.5722665|-0.5538177490234375|1.130386352539062|-3.743072509765625|18965.5523055|1.501893803254809|-0.07551124363245626|-0.8192203562723107|2.433931112289429|-2.39539909362793|5.389927387237549|-0.05964991450309753|0.6998830437660217|-2.136781215667725|XArbitraryZVertical|-0.2673066281462752|-0.2968576464067728|0.6364296937541208|0.6598333878737711|-0.05150942131876945|0.7306137084960938|-0.6808453798294067|0|0|0|-1|-1|3
2021-04-08 19:56:11.634 +0100|18965.5922265|-0.244384765625|-0.19232177734375|-3.687042236328125|18965.5722665|1.658017057097543|-0.007664675240470865|-0.7528480970771481|4.304547309875488|-1.990283608436584|5.098490238189697|-0.3780880570411682|0.8683892488479614|-2.906095027923584|XArbitraryZVertical|-0.2457218659999844|-0.2734213045265189|0.6865892930332438|0.627261297894887|-0.005593200214207172|0.6837199330329895|-0.7297230958938599|0|0|0|-1|-1|3
2021-04-08 19:56:11.654 +0100|18965.6121875|-0.4041748046875|-0.5144805908203125|-3.537521362304688|18965.5922265|1.786746210828856|0.05354890257933159|-0.6690133701039893|3.909057378768921|-0.8809221386909485|4.765450000762939|-0.649681031703949|-0.3903078436851501|-2.728759765625|XArbitraryZVertical|-0.2254062373518632|-0.23986921816166|0.7302290499995352|0.5986821917477672|0.04198550805449486|0.6202123165130615|-0.7833095788955688|0|0|0|-1|-1|3
2021-04-08 19:56:11.674 +0100|18965.6321485|-0.581939697265625|-2.687591552734375|-2.31787109375|18965.6121875|1.862514345853581|0.09499881422412561|-0.563985578361094|6.71053409576416|0.5998221635818481|1.865232586860657|-0.5080974102020264|-0.7573978304862976|-2.830508232116699|XArbitraryZVertical|-0.202484601135346|-0.1958052001133242|0.7619245818145324|0.5832077599223618|0.08016576617956161|0.5345587730407715|-0.8413206338882446|0|0|0|-1|-1|3
2021-04-08 19:56:11.694 +0100|18965.6521085|-1.753173828125|-2.641220092773438|-1.678665161132812|18965.6321485|1.833861297381762|0.1078003286961862|-0.4220448564459519|6.54922342300415|1.940234661102295|-2.517186164855957|-0.7586112022399902|-1.815891742706299|-2.173593044281006|XArbitraryZVertical|-0.1690341561223854|-0.1339723186855965|0.7681400962347035|0.6028595645723438|0.09815084189176559|0.4096267223358154|-0.906957745552063|0|0|0|-1|-1|3
2021-04-08 19:56:11.714 +0100|18965.6720695|-2.718353271484375|0.28094482421875|-1.76885986328125|18965.6521085|1.740386546192024|0.1235320947392771|-0.3517789790306465|1.006742000579834|3.15549373626709|-5.456023693084717|-0.9412329196929932|-3.371103048324585|-0.9525322318077087|XArbitraryZVertical|-0.1590525547504102|-0.09433203193414426|0.7442604666063387|0.6417790159058828|0.1156724169850349|0.3445684015750885|-0.9316074848175049|0|0|0|-1|-1|3
2021-04-08 19:56:11.734 +0100|18965.6920305|-2.841567993164062|1.2152099609375|-0.178009033203125|18965.6720695|1.586907768896735|0.1543995721580558|-0.3598204471287509|1.773712038993835|5.241172313690186|-9.278765678405762|-2.674027681350708|-1.786950588226318|-0.8399900197982788|XArbitraryZVertical|-0.1792179275500075|-0.07394572084719075|0.6895073908995479|0.6978485521955443|0.143938347697258|0.3521061837673187|-0.92482590675354|0|0|0|-1|-1|3
2021-04-08 19:56:11.754 +0100|18965.7119905|-3.183990478515625|1.73223876953125|1.0101318359375|18965.6920305|1.347919492704113|0.1918687839349889|-0.3426816057099913|3.123990774154663|6.709065437316895|-12.08275032043457|-3.012369155883789|0.7346807718276978|-0.151002824306488|XArbitraryZVertical|-0.1915156170726464|-0.03217134134995434|0.5993575695753083|0.7765677728402566|0.1796062141656876|0.3360139727592468|-0.924573540687561|0|0|0|-1|-1|3
2021-04-08 19:56:11.774 +0100|18965.7319515|-5.326934814453125|0.959808349609375|1.784515380859375|18965.7119905|1.084975670601588|0.2401881515800759|-0.3581014578476643|0.1325642764568329|6.786951541900635|-11.85200691223145|-2.986389875411987|1.1586594581604|1.406840562820435|XArbitraryZVertical|-0.2122902413718888|0.009681611801155749|0.4860822469906929|0.8476811670778294|0.2227948755025864|0.350496768951416|-0.9096782207489014|0|0|0|-1|-1|3
2021-04-08 19:56:11.794 +0100|18965.7519125|-5.2362060546875|-0.67791748046875|2.119186401367188|18965.7319515|0.8425433526459256|0.2931854305002592|-0.4578563099485378|-5.589098930358887|7.966530799865723|-12.52235507965088|-4.417759895324707|1.702353477478027|2.438956737518311|XArbitraryZVertical|-0.2630437316175891|0.03801702050359951|0.363731434083858|0.8927834878213274|0.2592364847660065|0.4420262277126312|-0.8587254285812378|0|0|0|-1|-1|3
2021-04-08 19:56:11.814 +0100|18965.7718725|-2.606399536132812|0.89031982421875|0.256591796875|18965.7519125|0.7105072121232036|0.3954766855290393|-0.7758535487540568|-20.01325798034668|9.226253509521484|-8.564421653747559|-5.403172969818115|-0.3562085032463074|2.982396125793457|XArbitraryZVertical|-0.4109934939638156|0.04149057063065772|0.2460366819883686|0.8768289873410654|0.2749992311000824|0.700325608253479|-0.6587257385253906|0|0|0|-1|-1|3
2021-04-08 19:56:11.834 +0100|18965.7918335|-0.8270721435546875|3.553436279296875|0.18585205078125|18965.7718725|1.009335289864702|0.8434973135434772|-1.169409870839834|-19.23125648498535|8.824003219604492|-2.26166033744812|-4.522048473358154|-1.543002009391785|1.501394748687744|XArbitraryZVertical|-0.6058577688640839|0.05530446518803682|0.1700842858098727|0.7752092048148899|0.2918388247489929|0.9205201864242554|-0.259755551815033|0|0|0|-1|-1|3
2021-04-08 19:56:11.854 +0100|18965.8117945|-0.1742706298828125|3.603363037109375|2.409423828125|18965.7918335|1.791668758631376|1.714453192062062|-1.253817072879194|-6.243638038635254|4.534802913665771|0.9272820353507996|-1.554535865783691|1.119887232780457|0.09787917137145996|XArbitraryZVertical|-0.7179525342471547|0.08280109785590593|0.1367030524759179|0.677495788892962|0.3084873855113983|0.9501813054084778|0.0446237251162529|0|0|0|-1|-1|3
2021-04-08 19:56:11.874 +0100|18965.8317545|0.7562713623046875|0.3847503662109375|3.30877685546875|18965.8117945|1.443796844218433|1.440621353477618|-1.265054849462938|14.34527683258057|1.341420769691467|-1.201627373695374|-0.751656174659729|3.13914966583252|0.8610337972640991|XArbitraryZVertical|-0.685051992905385|0.1056770865530473|0.1078963105998769|0.7126673416170684|0.2984543740749359|0.9536240100860596|-0.03907224163413048|0|0|0|-1|-1|3
2021-04-08 19:56:11.894 +0100|18965.8517155|0.612548828125|-0.424072265625|2.853347778320312|18965.8317545|0.6250740883869883|0.6687085309009801|-1.125570981919117|13.94709491729736|-1.139699220657349|-1.781099319458008|0.2459709048271179|0.8907151222229004|3.50224494934082|XArbitraryZVertical|-0.5649210161587765|0.1091365580186718|0.07904610204991516|0.8140671471748658|0.2669985890388489|0.9025136232376099|-0.3379069268703461|0|0|0|-1|-1|3
2021-04-08 19:56:11.914 +0100|18965.8716765|1.099533081054688|1.047286987304688|1.572052001953125|18965.8517155|0.3735495514319578|0.4216200112206636|-1.01067570582176|2.756389617919922|-1.419461250305176|-2.487725496292114|0.2831094861030579|-1.183600902557373|3.731451749801636|XArbitraryZVertical|-0.499152366066245|0.09201008082164711|0.05934661567649848|0.8595692065194116|0.217424064874649|0.8471910357475281|-0.4847621321678162|0|0|0|-1|-1|3
2021-04-08 19:56:11.934 +0100|18965.8916365|0.7952423095703125|1.206329345703125|0.806182861328125|18965.8716765|0.2799126964638953|0.3134035500147733|-1.014173609005955|0.0732763260602951|-1.523640155792236|-2.103058576583862|0.7535921335220337|-0.5182024836540222|2.746728897094727|XArbitraryZVertical|-0.4940230145749983|0.06817340054084219|0.04540411442708284|0.8655820902268241|0.1628807038068771|0.8490442633628845|-0.5025873184204102|0|0|0|-1|-1|3
2021-04-08 19:56:11.954 +0100|18965.9115975|0.606964111328125|1.008514404296875|0.6489410400390625|18965.8916365|0.2163737092759352|0.2292889989623381|-1.01832302357462|0.2482374757528305|-1.500621676445007|-1.343348741531372|0.8756402730941772|0.3826735019683838|1.570050954818726|XArbitraryZVertical|-0.4921991802677136|0.0470123058824055|0.03822610648066459|0.8683713635857058|0.1192779988050461|0.8512291312217712|-0.5110596418380737|0|0|0|-1|-1|3
2021-04-08 19:56:11.974 +0100|18965.9315585|0.4836578369140625|1.07427978515625|0.239288330078125|18965.9115975|0.1774410406194894|0.1629521216543438|-1.02352416864509|-0.4422537386417389|-1.848516583442688|-0.7103277444839478|0.6258924007415771|0.2488061785697937|1.229928612709045|XArbitraryZVertical|-0.4924572782265997|0.0274331472093918|0.03729709461237762|0.8691043342665391|0.08441898226737976|0.8539471626281738|-0.513466477394104|0|0|0|-1|-1|3
2021-04-08 19:56:11.993 +0100|18965.9515195|0.5206756591796875|1.390350341796875|-0.2187042236328125|18965.9315585|0.1637335516355074|0.1124068975662068|-1.037305065124815|-0.6287537217140198|-2.033881425857544|-0.1869371235370636|0.4444819986820221|0.1231709718704224|0.9695371389389038|XArbitraryZVertical|-0.4972594022191197|0.008150059149355576|0.04315606985569528|0.8664897152157542|0.05704340711236|0.8610368371009827|-0.5053333044052124|0|0|0|-1|-1|3
2021-04-08 19:56:12.014 +0100|18965.9714795|0.2493896484375|1.34173583984375|-0.219573974609375|18965.9515195|0.1671440962489544|0.07399836963623788|-1.038745393487756|0.6665438413619995|-2.095458745956421|0.3297436237335205|0.4636386632919312|0.4012327194213867|0.4836979508399963|XArbitraryZVertical|-0.4969453672124348|-0.009402417289857955|0.05412168972492907|0.8660415699780364|0.03750527650117874|0.8617684245109558|-0.5059137940406799|0|0|0|-1|-1|3
2021-04-08 19:56:12.034 +0100|18965.991440625|-0.1331634521484375|1.153396606445312|-0.3265533447265625|18965.9714795|0.1886756739303002|0.05007539907479704|-1.011976802071798|1.650345206260681|-2.149731159210205|0.8976376056671143|0.4352534115314484|0.5311168432235718|0.2585870623588562|XArbitraryZVertical|-0.4844285964707641|-0.02384010508539764|0.07028888817240329|0.8716766412012338|0.02653816901147366|0.847881555557251|-0.5295211672782898|0|0|0|-1|-1|3
2021-04-08 19:56:12.054 +0100|18966.011401625|-0.1221466064453125|1.033355712890625|-0.48272705078125|18965.991440625|0.223616615766601|0.0372881097759821|-0.981251890174848|1.136233925819397|-2.02929949760437|1.086574912071228|0.000848822295665741|0.4272600412368774|0.2902772426605225|XArbitraryZVertical|-0.4699892885589632|-0.03622162670826807|0.0896674104787268|0.8773585608319775|0.02072673663496971|0.8311940431594849|-0.5555961132049561|0|0|0|-1|-1|3
2021-04-08 19:56:12.074 +0100|18966.031361625|-0.0440521240234375|1.127471923828125|-0.6278839111328125|18966.011401625|0.2624208919953713|0.0300813668232141|-0.9659182103244045|0.312842458486557|-1.913867235183716|1.152263760566711|-0.1842486411333084|0.2460480332374573|0.1562504172325134|XArbitraryZVertical|-0.4621005796940887|-0.04754739956352783|0.108932324650383|0.8788265503353714|0.01710354723036289|0.8225713968276978|-0.5684046149253845|0|0|0|-1|-1|3
2021-04-08 19:56:12.093 +0100|18966.051322625|-0.12677001953125|1.283126831054688|-0.7952117919921875|18966.031361625|0.3030212322408439|0.02602311503202874|-0.9660206519458379|-0.2962938845157623|-1.815129160881042|1.143729329109192|-0.05515425652265549|0.2462491989135742|0.02663803100585938|XArbitraryZVertical|-0.4608268556031432|-0.0587031018020301|0.1276800521233214|0.8762935846286622|0.0147944912314415|0.8226296901702881|-0.568385124206543|0|0|0|-1|-1|3
2021-04-08 19:56:12.113 +0100|18966.071283625|-0.1082763671875|1.226287841796875|-0.895843505859375|18966.051322625|0.3419057097734787|0.02437094096143948|-0.9727111371929921|-0.2904612421989441|-1.552990674972534|1.038242816925049|-0.1102940738201141|0.3939223885536194|-0.1320513486862183|XArbitraryZVertical|-0.4623921778665183|-0.06889485823431288|0.1447708927502492|0.872059890739011|0.013720971532166|0.8264153003692627|-0.5628939270973206|0|0|0|-1|-1|3
2021-04-08 19:56:12.133 +0100|18966.091243625|-0.0285797119140625|1.07830810546875|-0.9881134033203125|18966.071283625|0.3768761435680145|0.02464927353360669|-0.9752829426870564|-0.07946757972240448|-1.332450389862061|0.8983515501022339|-0.1353006213903427|0.4653224349021912|-0.2958944439888|XArbitraryZVertical|-0.4622540082950177|-0.07706810515604579|0.1598054959285708|0.8688175824194354|0.01382521260529757|0.8278606534004211|-0.5607634782791138|0|0|0|-1|-1|3
2021-04-08 19:56:12.153 +0100|18966.111204625|0.13690185546875|1.032867431640625|-1.1085205078125|18966.091243625|0.4055516818023014|0.02338620973264003|-0.9785669450231694|-0.3284535109996796|-1.18605101108551|0.7117267251014709|-0.09528304636478424|0.3263235688209534|-0.3764640092849731|XArbitraryZVertical|-0.4624110436955934|-0.08453563247888848|0.1723649422386067|0.8656327807849689|0.01305327657610178|0.8296982645988464|-0.5580595135688782|0|0|0|-1|-1|3
2021-04-08 19:56:12.173 +0100|18966.131165625|0.197509765625|1.06585693359375|-1.180892944335938|18966.111204625|0.4279056345833021|0.01964568150318746|-0.9869990952630427|-0.4800981283187866|-1.084218740463257|0.520616352558136|0.04080767929553986|0.2199463844299316|-0.4927322864532471|XArbitraryZVertical|-0.4647241844461508|-0.09212199440007028|0.1824337605562737|0.8615468634413587|0.01082793064415455|0.8343756794929504|-0.5510899424552917|0|0|0|-1|-1|3
2021-04-08 19:56:12.193 +0100|18966.151125625|0.1738739013671875|1.054489135742188|-1.185638427734375|18966.131165625|0.4466609335013114|0.01391246596866393|-0.9956430895505818|-0.3265535235404968|-1.051548480987549|0.4765842854976654|0.1840673983097076|0.2054779529571533|-0.5926847457885742|XArbitraryZVertical|-0.4669960171875918|-0.09979613138783296|0.191352702070259|0.8575195596446747|0.007567630149424076|0.839108943939209|-0.5439109206199646|0|0|0|-1|-1|3
2021-04-08 19:56:12.213 +0100|18966.171086625|0.1290435791015625|0.9417724609375|-1.23468017578125|18966.151125625|0.4620256457501173|0.006797544919314279|-0.9974096434172631|0.1469916701316833|-0.9449446201324463|0.3498512804508209|0.182240754365921|0.2156572341918945|-0.6475793123245239|XArbitraryZVertical|-0.4662634055093831|-0.1066044239516606|0.199492823792311|0.8552407749327888|0.003687506541609764|0.8400685787200928|-0.5424678921699524|0|0|0|-1|-1|3
2021-04-08 19:56:12.233 +0100|18966.191047625|0.172637939453125|0.721221923828125|-1.205093383789062|18966.171086625|0.4710085289652541|-0.003124910803651102|-0.9869238518170749|0.9132877588272095|-0.7863147854804993|0.1391212195158005|0.1544782966375351|0.1925219893455505|-0.6668211221694946|XArbitraryZVertical|-0.4602808772090545|-0.1118626500879358|0.2062156700401889|0.8562147058120192|-0.001722633023746312|0.8343341946601868|-0.551256537437439|0|0|0|-1|-1|3
2021-04-08 19:56:12.253 +0100|18966.211007625|0.20562744140625|0.4892578125|-1.074859619140625|18966.191047625|0.4742508017374424|-0.01375704012015322|-0.9622963694139064|1.497942686080933|-0.5422163605690002|0.03370771557092667|0.1489922702312469|0.01013696193695068|-0.6565040946006775|XArbitraryZVertical|-0.4484039453380063|-0.114639758063391|0.2113281152449347|0.8608902987939211|-0.007863789796829224|0.8205063939094543|-0.5715832710266113|0|0|0|-1|-1|3
2021-04-08 19:56:12.273 +0100|18966.230968625|0.163818359375|0.419891357421875|-0.930572509765625|18966.211007625|0.4757836097253443|-0.02103648480025609|-0.931123845106768|1.481948971748352|-0.3275106251239777|-0.0111775565892458|0.2134688794612885|-0.2032457590103149|-0.5637360215187073|XArbitraryZVertical|-0.4340429191330035|-0.1149191683457145|0.2151506880934494|0.8672430741622108|-0.01255644019693136|0.8022913336753845|-0.596800684928894|0|0|0|-1|-1|3
2021-04-08 19:56:12.293 +0100|18966.250929625|0.1446533203125|0.5326690673828125|-0.8428497314453125|18966.230968625|0.4741959054457436|-0.02742625351742761|-0.9069835483761333|0.9245225787162781|-0.2156437486410141|-0.1406224519014359|0.1975751519203186|-0.36259925365448|-0.3694882988929749|XArbitraryZVertical|-0.4229150329368869|-0.1148758898684179|0.2169611603824329|0.8722811275385354|-0.01689586974680424|0.7876487970352173|-0.6158928275108337|0|0|0|-1|-1|3
2021-04-08 19:56:12.313 +0100|18966.270889625|0.06414794921875|0.61798095703125|-0.78369140625|18966.250929625|0.4682997845191679|-0.03527714698238747|-0.8929266780281944|0.550128698348999|-0.1421497762203217|-0.2351133674383163|0.1632321923971176|-0.3146457672119141|-0.2478878498077393|XArbitraryZVertical|-0.416239358573568|-0.1156385898810873|0.2166490446536949|0.8754632499409284|-0.0221189521253109|0.7789105176925659|-0.6267450451850891|0|0|0|-1|-1|3
2021-04-08 19:56:12.333 +0100|18966.290850625|0.0854644775390625|0.625640869140625|-0.82159423828125|18966.270889625|0.4654025073846356|-0.04058865058606342|-0.8840174048863692|0.3930802345275879|-0.1473592817783356|-0.007771373726427555|0.138231173157692|-0.2048711180686951|-0.1692363619804382|XArbitraryZVertical|-0.4119109432625152|-0.1164713327754927|0.2168476555299133|0.8773489602308295|-0.02572816051542759|0.7732923626899719|-0.6335276365280151|0|0|0|-1|-1|3
2021-04-08 19:56:12.353 +0100|18966.310811625|0.0675201416015625|0.451904296875|-0.7256317138671875|18966.290850625|0.4696427769559223|-0.03983798496180377|-0.8713696653048786|0.9579461216926575|-0.07661379873752594|0.2331377267837524|0.09384682774543762|-0.1290411949157715|-0.1653702855110168|XArbitraryZVertical|-0.4061663524725716|-0.1157356777979284|0.2190669446336016|0.8795702664371942|-0.02564007788896561|0.7652114033699036|-0.6432682871818542|0|0|0|-1|-1|3
2021-04-08 19:56:12.373 +0100|18966.330772625|-0.04937744140625|0.1847076416015625|-0.4857635498046875|18966.310811625|0.4794646685734958|-0.03302199015850813|-0.8463909809391021|1.453032612800598|-0.008258549496531487|0.2960387468338013|0.1098920404911041|-0.1855077743530273|-0.1426627635955811|XArbitraryZVertical|-0.3953026436588394|-0.1121219282582391|0.2230526745909341|0.8839751581434874|-0.02187937498092651|0.7488936185836792|-0.6623289585113525|0|0|0|-1|-1|3
2021-04-08 19:56:12.393 +0100|18966.350732625|-0.26116943359375|0.360015869140625|-0.2052001953125|18966.330772625|0.4898377585915801|-0.02541437050921819|-0.8220809821479815|0.8868312835693359|-0.05447201430797577|0.3440485298633575|0.01964747905731201|-0.4284096360206604|0.02447342872619629|XArbitraryZVertical|-0.3847833963601219|-0.1081781468055849|0.2271883035320879|0.8880454859906196|-0.0172976553440094|0.7325639128684998|-0.6804784536361694|0|0|0|-1|-1|3
2021-04-08 19:56:12.413 +0100|18966.370693625|-0.544647216796875|0.610565185546875|-0.064361572265625|18966.350732625|0.5036084080751116|-0.01861887113391447|-0.8128843798147959|0.1547408849000931|-0.3188455998897552|0.5910887718200684|-0.1352427899837494|-0.5143274664878845|0.3511219024658203|XArbitraryZVertical|-0.3807293851062991|-0.1067775209204503|0.2324084453726243|0.8886113933726122|-0.01279799453914165|0.7262729406356812|-0.6872873902320862|0|0|0|-1|-1|3
2021-04-08 19:56:12.433 +0100|18966.390654625|-0.6243438720703125|0.658050537109375|0.0838775634765625|18966.370693625|0.5271821371871753|-0.01155804940924055|-0.8097006280656848|0.3246869444847107|-0.6876839995384216|1.000039339065552|-0.3938838839530945|-0.2112472057342529|0.5535159111022949|XArbitraryZVertical|-0.3788863624898079|-0.1077520611361912|0.2416804064293569|0.8868062671391821|-0.007971585728228092|0.7240807414054871|-0.6896692514419556|0|0|0|-1|-1|3
2021-04-08 19:56:12.453 +0100|18966.410614625|-0.6772003173828125|0.828857421875|0.08990478515625|18966.390654625|0.562042540655239|-0.005578744041903864|-0.8004620905072195|0.5480950474739075|-1.299977660179138|1.468764543533325|-0.6204131841659546|-0.08436101675033569|0.6795195341110229|XArbitraryZVertical|-0.373632996672036|-0.1105268167143094|0.2564624972695037|0.8845390997113804|-0.003884879173710942|0.7176779508590698|-0.6963644027709961|0|0|0|-1|-1|3
2021-04-08 19:56:12.473 +0100|18966.430575625|-0.889678955078125|0.8619842529296875|0.0233154296875|18966.410614625|0.6134331825239689|-0.003413879877164781|-0.7908432395685517|0.4166657030582428|-2.154395818710327|2.068341493606567|-0.6171822547912598|0.03787946701049805|0.8374439477920532|XArbitraryZVertical|-0.3667439933768099|-0.117804153288366|0.2792578173431906|0.8795659645784309|-0.002400793135166168|0.7109465003013611|-0.7032420635223389|0|0|0|-1|-1|3
2021-04-08 19:56:12.493 +0100|18966.450536625|-0.77960205078125|0.84429931640625|-0.0828704833984375|18966.430575625|0.6778641250198357|-0.008405604365411792|-0.7846872878299624|0.233502984046936|-2.84589958190918|2.456663131713867|-0.7656890153884888|0.1584787368774414|0.7682998776435852|XArbitraryZVertical|-0.3593085737176612|-0.1307867948438108|0.308729564745865|0.8709066286112906|-0.005947813857346773|0.7066039443016052|-0.7075843214988708|0|0|0|-1|-1|3
2021-04-08 19:56:12.513 +0100|18966.470496625|-0.2954864501953125|0.8690032958984375|-0.2193756103515625|18966.450536625|0.7467431821435712|-0.02070619791880234|-0.7827485625835956|0.01278014108538628|-3.238193511962891|2.393051862716675|-0.8987269401550293|0.1495979428291321|0.6815287470817566|XArbitraryZVertical|-0.3516678818975553|-0.1480430687619789|0.3408350063191233|0.8592115759644314|-0.01467918697744608|0.7052307724952698|-0.7088258862495422|0|0|0|-1|-1|3
2021-04-08 19:56:12.533 +0100|18966.490457625|0.0732269287109375|1.012557983398438|-0.550048828125|18966.470496625|0.8143974512767236|-0.04174639902127667|-0.7885517213014722|-0.5715799331665039|-3.70312237739563|2.449588537216187|-0.523911714553833|0.1067840456962585|0.5362608432769775|XArbitraryZVertical|-0.3450214266135734|-0.1697956227938583|0.372934966058942|0.8444225039606774|-0.0294173825532198|0.7093331813812256|-0.7042593359947205|0|0|0|-1|-1|3
2021-04-08 19:56:12.553 +0100|18966.510418625|0.2020721435546875|1.073211669921875|-0.9819183349609375|18966.490457625|0.8846845151096991|-0.07062603114924022|-0.8082688759866611|-0.9521428346633911|-4.173069477081299|2.532445907592773|-0.01949241384863853|0.252860426902771|0.3400310277938843|XArbitraryZVertical|-0.3412589731944375|-0.197554293074846|0.4058758799975119|0.8244873856914342|-0.04874447360634804|0.7230924963951111|-0.6890292167663574|0|0|0|-1|-1|3
2021-04-08 19:56:12.572 +0100|18966.530378625|0.1962127685546875|1.009628295898438|-1.45135498046875|18966.510418625|0.9546891166368501|-0.1059144350823921|-0.8274346409250737|-0.4097013175487518|-4.380502700805664|2.450926542282104|0.221768707036972|0.3350005745887756|-0.08512741327285767|XArbitraryZVertical|-0.3343103997644936|-0.2274850138261834|0.4389732456829751|0.8023650727252869|-0.07154541462659836|0.7361976504325867|-0.6729742288589478|0|0|0|-1|-1|3
2021-04-08 19:56:12.592 +0100|18966.550339625|0.27447509765625|0.9346771240234375|-2.029083251953125|18966.530378625|1.032325163590653|-0.1349669776128109|-0.8338200701029848|0.4208893477916718|-4.228569507598877|2.874154329299927|0.3192205727100372|0.2893123626708984|-0.5495590567588806|XArbitraryZVertical|-0.3209498221160489|-0.2530240138452848|0.4739926166682902|0.7799365975067135|-0.09042968600988388|0.7405040264129639|-0.6659401059150696|0|0|0|-1|-1|3
2021-04-08 19:56:12.612 +0100|18966.570300625|0.46820068359375|0.7187652587890625|-2.320037841796875|18966.550339625|1.12552324348396|-0.1459835531344043|-0.8233804742085734|1.49636971950531|-3.764779329299927|3.250993728637695|0.2910800278186798|0.2974518537521362|-1.097335577011108|XArbitraryZVertical|-0.301889845771907|-0.2694527191511988|0.5123258538719775|0.7574827316683576|-0.0988796204328537|0.7334478497505188|-0.6725155115127563|0|0|0|-1|-1|3
2021-04-08 19:56:12.632 +0100|18966.590260625|0.3037872314453125|0.79693603515625|-2.423202514648438|18966.570300625|1.231161353825866|-0.1418111152253802|-0.8003138173848353|1.843108057975769|-3.763774871826172|3.558286428451538|0.5015150308609009|0.125031590461731|-1.511406660079956|XArbitraryZVertical|-0.2795777603078581|-0.277653087551456|0.5530120235162461|0.7341136545224959|-0.09843812137842178|0.7175747156143188|-0.6894900798797607|0|0|0|-1|-1|3
2021-04-08 19:56:12.652 +0100|18966.610221625|0.2050018310546875|0.7832489013671875|-2.464523315429688|18966.590260625|1.346062114253337|-0.1303812627298719|-0.7719200666249248|2.139357089996338|-3.326659202575684|4.170506000518799|0.4387755990028381|-0.01797688007354736|-1.614887118339539|XArbitraryZVertical|-0.2561123510241597|-0.2813557247679221|0.5954521760710648|0.7075891348388028|-0.09316319227218628|0.6975123882293701|-0.7104908227920532|0|0|0|-1|-1|3
2021-04-08 19:56:12.672 +0100|18966.630182625|-0.108734130859375|0.9244537353515625|-2.551239013671875|18966.610221625|1.475435597545629|-0.1068278071030903|-0.7499782001929401|1.317550182342529|-3.425317525863647|4.711843490600586|0.3236393928527832|0.2589142322540283|-1.752081274986267|XArbitraryZVertical|-0.2372357515674554|-0.282759436992207|0.6394404889963602|0.6744496597869288|-0.07801771908998489|0.6816228032112122|-0.7275326251983643|0|0|0|-1|-1|3
2021-04-08 19:56:12.692 +0100|18966.650142625|-0.4411773681640625|0.5474395751953125|-2.520416259765625|18966.630182625|1.618353186109445|-0.0756788668809545|-0.724718216189961|2.299646377563477|-3.074621438980103|5.269849300384521|0.122768759727478|0.2467896938323975|-1.827354669570923|XArbitraryZVertical|-0.2188497017895236|-0.2807723368785291|0.6854930280701679|0.6351151960375573|-0.05660566687583923|0.6629245281219482|-0.7465434074401855|0|0|0|-1|-1|3
2021-04-08 19:56:12.712 +0100|18966.670103625|-0.64593505859375|0.1341552734375|-2.43109130859375|18966.650142625|1.760646094163764|-0.04287970682777346|-0.666705223174305|3.825344085693359|-2.644876480102539|5.327364921569824|-0.2248871326446533|0.1105889081954956|-1.838638067245483|XArbitraryZVertical|-0.1927368740703754|-0.2651074296244716|0.7328050189088045|0.5962948056236685|-0.03368726745247841|0.6184000968933105|-0.7851411104202271|0|0|0|-1|-1|3
2021-04-08 19:56:12.732 +0100|18966.690064625|-0.8684844970703125|-0.411712646484375|-2.366546630859375|18966.670103625|1.891134732650362|-0.01128482741420735|-0.5863385250643477|4.392895698547363|-1.881709218025208|4.902194499969482|-0.4681229591369629|-0.2404483556747437|-1.646404981613159|XArbitraryZVertical|-0.164757086925825|-0.2374773466314183|0.7771753653345009|0.5589797320090178|-0.009399748407304287|0.5533148050308228|-0.8329192399978638|0|0|0|-1|-1|3
2021-04-08 19:56:12.752 +0100|18966.710025625|-1.135787963867188|-1.692138671875|-2.194931030273438|18966.690064625|1.982205753378455|0.009550360447152727|-0.4936002495805186|4.846647262573242|-0.6208528280258179|2.617088079452515|-0.8229995965957642|-0.5295854210853577|-1.533912301063538|XArbitraryZVertical|-0.1376933261085115|-0.2018520261580346|0.8106317024572728|0.5321396129399705|0.00841023214161396|0.4737994372844696|-0.8805926442146301|0|0|0|-1|-1|3
2021-04-08 19:56:12.772 +0100|18966.729985625|-2.585403442382812|-2.801483154296875|-1.873367309570312|18966.710025625|1.998502853866422|0.02177904215137521|-0.3919079966247253|5.20488977432251|1.196781277656555|-1.134694933891296|-0.9629656672477722|-1.330286026000977|-1.361742734909058|XArbitraryZVertical|-0.11429786152466|-0.1579702236567254|0.8237745168131241|0.5323317271108348|0.02012620680034161|0.3819524347782135|-0.9239628314971924|0|0|0|-1|-1|3
2021-04-08 19:56:12.792 +0100|18966.749946625|-4.083587646484375|0.34423828125|-2.070755004882812|18966.729985625|1.92928230791702|0.04169107703016426|-0.3165066601540551|2.412896156311035|3.264461517333984|-5.015919208526611|-1.598765969276428|-2.802200078964233|-0.9724484086036682|XArbitraryZVertical|-0.1066799230431729|-0.1177625920797651|0.809527059043984|0.5651702445764964|0.03960874304175377|0.3112486600875854|-0.94950270652771|0|0|0|-1|-1|3
2021-04-08 19:56:12.812 +0100|18966.769907625|-3.058258056640625|1.207183837890625|-0.026123046875|18966.749946625|1.783073124145997|0.08404174189561457|-0.2747758857235769|3.969377279281616|5.047757148742676|-9.468842506408691|-3.556119203567505|-1.943022727966309|-1.083314895629883|XArbitraryZVertical|-0.1183384899043445|-0.08032119606836981|0.7664119410438306|0.6262247788525072|0.08079382032155991|0.271331250667572|-0.9590890407562256|0|0|0|-1|-1|3
2021-04-08 19:56:12.832 +0100|18966.789867625|-1.9744873046875|1.880081176757812|1.527755737304688|18966.769907625|1.532691419837098|0.1320568500501361|-0.2147084055843602|3.391081571578979|5.308591842651367|-13.62261581420898|-4.078478336334229|0.890560507774353|-0.1257674098014832|XArbitraryZVertical|-0.1225211062363285|-0.02688410612877001|0.6829188087682545|0.7196442324362294|0.1286499500274658|0.2130625396966934|-0.9685316681861877|0|0|0|-1|-1|3
2021-04-08 19:56:12.852 +0100|18966.809828625|-2.248687744140625|1.484649658203125|-0.0736236572265625|18966.789867625|1.251744919685078|0.1726101111213597|-0.2108120259335645|1.612310767173767|4.679606914520264|-12.91627788543701|-2.474256038665771|1.21596348285675|2.032376527786255|XArbitraryZVertical|-0.1351659722066527|0.008067969646451506|0.5730350956493986|0.8082673229311971|0.167951837182045|0.2092540115118027|-0.9633301496505737|0|0|0|-1|-1|3
2021-04-08 19:56:12.872 +0100|18966.829789625|-6.844482421875|-0.6501617431640625|-1.78704833984375|18966.809828625|0.9759137341875589|0.2154756113010449|-0.2175792836472987|2.929125070571899|5.457595825195312|-13.8873462677002|-2.055633306503296|1.973541736602783|2.189774513244629|XArbitraryZVertical|-0.1454617555006148|0.04381120493798332|0.4530359095905617|0.8784532826343611|0.2087709903717041|0.2158666104078293|-0.9538429379463196|0|0|0|-1|-1|3
2021-04-08 19:56:12.892 +0100|18966.849749625|-6.06304931640625|-0.894439697265625|1.17315673828125|18966.829789625|0.7638355413809351|0.3035640868942894|-0.3214090875304395|-8.648471832275391|9.679925918579102|-11.07770919799805|-4.061584949493408|0.3614806830883026|0.7966455817222595|XArbitraryZVertical|-0.2024040633071004|0.0795467515016743|0.3412178326962246|0.9144810087223606|0.2836157381534576|0.3159038126468658|-0.9054098129272461|0|0|0|-1|-1|3
2021-04-08 19:56:12.912 +0100|18966.869710625|-2.663040161132812|3.533218383789062|4.418807983398438|18966.849749625|0.7929804808911678|0.5767225609436946|-0.6687999115484927|-23.52086639404297|14.64066314697266|-2.358051061630249|-7.600583553314209|-2.114169359207153|-0.2341177463531494|XArbitraryZVertical|-0.3939812530068698|0.1262762048760256|0.26363575272638|0.8713951795482817|0.4278080463409424|0.6200448870658875|-0.6576662063598633|0|0|0|-1|-1|3
2021-04-08 19:56:12.932 +0100|18966.889671625|-1.13604736328125|3.623611450195312|0.94854736328125|18966.869710625|1.410491395508499|1.319578572752811|-0.9407987279413206|-22.65576362609863|12.279128074646|5.557727813720703|-4.983583927154541|0.2512520551681519|3.981321811676025|XArbitraryZVertical|-0.6268610463903599|0.1839009340608439|0.2450019251888903|0.7163797255247244|0.5706501007080078|0.8080289363861084|-0.1464513540267944|0|0|0|-1|-1|3
2021-04-08 19:56:12.952 +0100|18966.909631625|2.117813110351562|-0.378936767578125|2.67010498046875|18966.889671625|1.791263216035645|1.851926019312068|-0.8459821583131254|1.265387058258057|10.92362499237061|3.141088962554932|-2.379385948181152|3.858616590499878|2.449389934539795|XArbitraryZVertical|-0.7230883722579567|0.2628963750475825|0.2227936390705211|0.5986584447448442|0.636969268321991|0.7486226558685303|0.1839426010847092|0|0|0|-1|-1|3
2021-04-08 19:56:12.972 +0100|18966.929592625|1.44140625|-0.9293670654296875|2.729934692382812|18966.909631625|1.419739903521356|1.778861169906533|-0.8553912427504067|15.89413452148438|5.143261432647705|4.0441575050354|-0.8910908699035645|0.7858223915100098|1.090674638748169|XArbitraryZVertical|-0.6587563725874022|0.365767791579945|0.129180118605027|0.6446445817075871|0.6417769193649292|0.754827618598938|0.1354920715093613|0|0|0|-1|-1|3
2021-04-08 19:56:12.992 +0100|18966.949553625|0.13470458984375|1.132156372070312|2.729690551757812|18966.929592625|1.056979183899|1.505527200643081|-0.8669938070540271|7.437166213989258|-1.777675151824951|-5.133594512939453|3.727012872695923|-2.551158905029297|3.176897287368774|XArbitraryZVertical|-0.5775631206782595|0.3812050732963901|0.08595996595853013|0.7167387717815232|0.6457435488700867|0.7623870372772217|-0.04220706596970558|0|0|0|-1|-1|3
2021-04-08 19:56:13.012 +0100|18966.969513625|1.330337524414062|1.611175537109375|2.263381958007812|18966.949553625|0.9010468001927883|1.345534328663425|-0.9487435811449217|1.968029618263245|-2.239128828048706|-2.900347471237183|-0.720281720161438|-0.3945773243904114|2.992642402648926|XArbitraryZVertical|-0.5629828622829085|0.3434724542833462|0.04670956527640127|0.7502634449464092|0.5679830312728882|0.8126839995384216|-0.1301539391279221|0|0|0|-1|-1|3
2021-04-08 19:56:13.031 +0100|18966.989474125|0.8315887451171875|1.814422607421875|1.677261352539062|18966.969513625|0.8107958653010067|1.215788705705807|-0.9938259345875331|2.177213191986084|-3.856614112854004|-3.089198350906372|0.07304477691650391|0.9609233140945435|2.761510133743286|XArbitraryZVertical|-0.5576012368738312|0.3070436751568874|0.03437701217483659|0.7704695916360642|0.5114729404449463|0.8381190896034241|-0.1896100789308548|0|0|0|-1|-1|3
2021-04-08 19:56:13.052 +0100|18967.009435125|0.5383758544921875|1.809677124023438|0.8692474365234375|18966.989474125|0.6855791486840391|1.011119317493559|-1.024227432042049|2.27526068687439|-5.32400369644165|-2.323862552642822|1.003587484359741|0.6822325587272644|2.267250061035156|XArbitraryZVertical|-0.5456752339578558|0.2535058088927362|0.03283411095235912|0.7980572662877217|0.440457820892334|0.8543128967285156|-0.2759466767311096|0|0|0|-1|-1|3
