loggingTime(txt)|accelerometerTimestamp_sinceReboot(s)|accelerometerAccelerationX(G)|accelerometerAccelerationY(G)|accelerometerAccelerationZ(G)|motionTimestamp_sinceReboot(s)|motionYaw(rad)|motionRoll(rad)|motionPitch(rad)|motionRotationRateX(rad/s)|motionRotationRateY(rad/s)|motionRotationRateZ(rad/s)|motionUserAccelerationX(G)|motionUserAccelerationY(G)|motionUserAccelerationZ(G)|motionAttitudeReferenceFrame(txt)|motionQuaternionX(R)|motionQuaternionY(R)|motionQuaternionZ(R)|motionQuaternionW(R)|motionGravityX(G)|motionGravityY(G)|motionGravityZ(G)|motionMagneticFieldX(µT)|motionMagneticFieldY(µT)|motionMagneticFieldZ(µT)|motionHeading(°)|motionMagneticFieldCalibrationAccuracy(Z)|label
2021-04-22 21:57:02.607 +0100|140763.212309|0.03466796875|-0.1880340576171875|-1.007843017578125|140763.192348|-0.4621105318048929|0.04089525868890757|0.2351481497642084|0.1085006818175316|-0.01180490292608738|0.1962153911590576|0.006504997611045837|0.02822993695735931|0.01336890459060669|XArbitraryZVertical|0.1188121572063693|-0.00709198391981049|-0.2250416383808178|0.9670520373032142|0.03975873067975044|-0.2329870611429214|-0.9716667532920837|0|0|0|-1|-1|3
2021-04-22 21:57:02.614 +0100|140763.23227|0.105621337890625|-0.281585693359375|-1.00836181640625|140763.212309|-0.4583869688622874|0.04133229929254479|0.2381936455844211|0.1864764094352722|0.1089381352066994|0.1853685975074768|-0.03112158924341202|0.06579746305942535|-0.0358697772026062|XArbitraryZVertical|0.1203453205876081|-0.007006432475677359|-0.2231435529049489|0.9673029966234856|0.04015387967228889|-0.2359476536512375|-0.9709358215332031|0|0|0|-1|-1|3
2021-04-22 21:57:02.615 +0100|140763.252232|0.0957183837890625|-0.2850189208984375|-0.955078125|140763.23227|-0.4551513657030939|0.04261323750582079|0.2406476891633505|0.1752570867538452|0.09283964335918427|0.1434306502342224|0.05104881152510643|-0.02428676187992096|-0.04272902011871338|XArbitraryZVertical|0.1216842461346817|-0.006469804798700466|-0.2214428936604515|0.9675299987166596|0.04137276113033295|-0.2383317053318024|-0.9703021645545959|0|0|0|-1|-1|3
2021-04-22 21:57:02.623 +0100|140763.272193|0.097686767578125|-0.2809600830078125|-0.925689697265625|140763.252232|-0.4526838069461441|0.04393774373084554|0.239919318296128|0.00833257008343935|0.05378864705562592|0.1145037487149239|0.06206990778446198|-0.04791289567947388|0.005896210670471191|XArbitraryZVertical|0.1214859315708312|-0.005596682890516964|-0.2201859004731017|0.967847190560401|0.0426655113697052|-0.2376242578029633|-0.970419704914093|0|0|0|-1|-1|3
2021-04-22 21:57:02.643 +0100|140763.292154|0.122161865234375|-0.2701873779296875|-0.923980712890625|140763.272193|-0.4502561061389755|0.04459460653681041|0.2391603471479496|-0.0853181853890419|0.07103309035301208|0.1264533549547195|0.04738637059926987|-0.04553739726543427|0.03836596012115479|XArbitraryZVertical|0.1211976202306245|-0.005046185015583898|-0.2189893165958516|0.9681577673199286|0.04331096261739731|-0.2368869632482529|-0.9705713391304016|0|0|0|-1|-1|3
2021-04-22 21:57:02.663 +0100|140763.312115|0.1137847900390625|-0.2396087646484375|-0.9376983642578125|140763.292154|-0.4473222906364855|0.04497015781139925|0.237800171510414|-0.05057242512702942|0.03069286234676838|0.1507268249988556|0.07694517821073532|-0.04229670763015747|0.04619318246841431|XArbitraryZVertical|0.1205878691264816|-0.004535025812176633|-0.2175788547476951|0.9685544089018652|0.04368990287184715|-0.2355652749538422|-0.9708759784698486|0|0|0|-1|-1|3
2021-04-22 21:57:02.683 +0100|140763.332076|0.11181640625|-0.2198333740234375|-0.9438934326171875|140763.312115|-0.4445188224430335|0.04503599396502091|0.2378162167552697|0.02344183251261711|0.00919119268655777|0.1263351887464523|0.07164766639471054|-0.01293845474720001|0.03405582904815674|XArbitraryZVertical|0.120608987155259|-0.004335872200749738|-0.2162166294361459|0.9688577107486569|0.04375365003943443|-0.2355808764696121|-0.9708693623542786|0|0|0|-1|-1|3
2021-04-22 21:57:02.703 +0100|140763.352037|0.1065216064453125|-0.2354583740234375|-0.941192626953125|140763.332076|-0.4429286630254489|0.04582797605932697|0.2396541037397985|0.04346251115202904|-0.009872459806501865|0.05556603893637657|0.06851831078529358|0.01445157825946808|0.02495026588439941|XArbitraryZVertical|0.121587041676308|-0.004059062454396607|-0.2153540443447833|0.9689287433965728|0.04450263828039169|-0.2373666316270828|-0.9704002141952515|0|0|0|-1|-1|3
2021-04-22 21:57:02.723 +0100|140763.371998|0.0924530029296875|-0.213134765625|-0.9506683349609375|140763.352037|-0.4422648889362324|0.04657519419377949|0.2410096487299764|-0.01984174363315105|0.005676938686519861|0.04307439550757408|0.05914124846458435|0.008459195494651794|0.02999603748321533|XArbitraryZVertical|0.1223246218654225|-0.003806075891391489|-0.2149539183079618|0.9689257558696218|0.04521270468831062|-0.238683208823204|-0.9700443744659424|0|0|0|-1|-1|3
2021-04-22 21:57:02.743 +0100|140763.391959|0.0854949951171875|-0.1742095947265625|-0.9527740478515625|140763.371998|-0.4416484353916982|0.04799078983832312|0.2411222049795131|-0.07813267409801483|0.01322023570537567|0.03406181186437607|0.05064354464411736|0.009377196431159973|0.01607972383499146|XArbitraryZVertical|0.1225321513960375|-0.003094912353871564|-0.2145658315180122|0.9689880951447644|0.04658455774188042|-0.2387925237417221|-0.9699525833129883|0|0|0|-1|-1|3
2021-04-22 21:57:02.762 +0100|140763.41192|0.06915283203125|-0.1786041259765625|-0.951416015625|140763.391959|-0.4416508714708218|0.04994878207578205|0.2401354566470376|-0.06092784181237221|0.03397073596715927|-0.002001648768782616|0.03728863969445229|0.05746062099933624|0.01791524887084961|XArbitraryZVertical|0.1222647072401376|-0.002037730080451055|-0.2144718493616868|0.9690454927769356|0.04849537089467049|-0.2378342002630234|-0.9700943827629089|0|0|0|-1|-1|3
2021-04-22 21:57:02.782 +0100|140763.431881|0.0712432861328125|-0.187286376953125|-0.9445953369140625|140763.41192|-0.4422686519953572|0.05243160695858685|0.2393675908924278|-0.007937862537801266|0.07300324738025665|-0.02176905050873756|0.02301457896828651|0.0577370673418045|0.01290804147720337|XArbitraryZVertical|0.1221590860999905|-0.0007878376028373732|-0.2146390265500482|0.9690236809999444|0.05091334879398346|-0.2370882928371429|-0.9701530933380127|0|0|0|-1|-1|3
2021-04-22 21:57:02.802 +0100|140763.451842|0.0766754150390625|-0.197967529296875|-0.9553070068359375|140763.431881|-0.4430438437325659|0.05532477587753682|0.2397403171631391|0.04626560211181641|0.08481650054454803|-0.01953181810677052|0.01574204489588737|0.0533231645822525|0.02266287803649902|XArbitraryZVertical|0.1226499945646733|0.0005252245053414115|-0.2148277969666047|0.9689199135504829|0.0537150576710701|-0.2374503761529922|-0.9699134230613708|0|0|0|-1|-1|3
2021-04-22 21:57:02.822 +0100|140763.471803|0.08544921875|-0.19561767578125|-0.9416656494140625|140763.451842|-0.4437973912703371|0.05824044679249485|0.2410174643527278|0.1054003015160561|0.0810723602771759|-0.0268296767026186|0.01558706164360046|0.04488950967788696|0.01499646902084351|XArbitraryZVertical|0.123581435260282|0.001749781075545664|-0.214978957639299|0.9687666140983561|0.05652507394552231|-0.2386908084154129|-0.9694491624832153|0|0|0|-1|-1|3
2021-04-22 21:57:02.842 +0100|140763.491764|0.0780487060546875|-0.1882781982421875|-0.939727783203125|140763.471803|-0.4446024504725476|0.06054681536182121|0.2423881328155074|0.1331107467412949|0.0711883082985878|-0.02176834084093571|0.02681415155529976|0.0476851612329483|0.03125965595245361|XArbitraryZVertical|0.1244931379101452|0.002664736723707665|-0.2151879349075949|0.9686014543401849|0.05874097719788551|-0.2400216311216354|-0.9689887166023254|0|0|0|-1|-1|3
2021-04-22 21:57:02.862 +0100|140763.511725|0.0564117431640625|-0.226287841796875|-0.96063232421875|140763.491764|-0.4452010055877942|0.06220230294779783|0.244247122639469|0.1531898230314255|0.0291354451328516|-0.01254155207425356|0.02082813903689384|0.04912318289279938|0.02920341491699219|XArbitraryZVertical|0.1255708985399784|0.003222170396829867|-0.2153218102050087|0.968430869089554|0.06031720340251923|-0.2418258637189865|-0.9684431552886963|0|0|0|-1|-1|3
2021-04-22 21:57:02.882 +0100|140763.531686|0.063079833984375|-0.2332916259765625|-0.978759765625|140763.511725|-0.4458884434732509|0.06289788000877847|0.2461047626614634|0.141249880194664|0.01494298223406076|-0.03268224000930786|0.0009262710809707642|0.02931883931159973|0.01194185018539429|XArbitraryZVertical|0.126544792286701|0.003308587922542957|-0.215557609428216|0.9682513449260155|0.06096247583627701|-0.2436279505491257|-0.9679509401321411|0|0|0|-1|-1|3
2021-04-22 21:57:02.902 +0100|140763.551647|0.1253814697265625|-0.242401123046875|-1.002593994140625|140763.531686|-0.4464810575069402|0.06381057782364201|0.2476027955422962|0.1231233030557632|0.03259771689772606|0.0005295081064105034|-0.003092378377914429|0.009485453367233276|-0.004546999931335449|XArbitraryZVertical|0.1273681217574587|0.003545567861206963|-0.2157432210866999|0.9681010856470806|0.0618225522339344|-0.2450805753469467|-0.9675295948982239|0|0|0|-1|-1|3
2021-04-22 21:57:02.922 +0100|140763.571608|0.002471923828125|-0.23333740234375|-1.002304077148438|140763.551647|-0.4466563505886645|0.06420092673878058|0.2496784163396727|0.1684786677360535|-0.07540737092494965|0.003908349666744471|0.04644370451569557|0.009681448340415955|-0.0306088924407959|XArbitraryZVertical|0.1284133499943337|0.003491361802379399|-0.2157424932681184|0.9679633397745459|0.0621674545109272|-0.2470923662185669|-0.9669956564903259|0|0|0|-1|-1|3
2021-04-22 21:57:02.942 +0100|140763.591569|-0.0112457275390625|-0.2340240478515625|-0.969024658203125|140763.571608|-0.4480555439254003|0.06386495484594716|0.2517762242615634|0.1558166742324829|0.03110794350504875|-0.07970497012138367|-0.03197931870818138|0.01227821409702301|-0.03910309076309204|XArbitraryZVertical|0.129392619388366|0.003003786960659371|-0.216379671686301|0.967692330059309|0.06180934980511665|-0.2491245716810226|-0.9664970636367798|0|0|0|-1|-1|3
2021-04-22 21:57:02.962 +0100|140763.61153|0.07794189453125|-0.2549591064453125|-0.979583740234375|140763.591569|-0.4505193122926257|0.06657040466800032|0.2534883514668362|0.08425614237785339|0.2072632610797882|-0.1780058741569519|-0.05844543129205704|0.02185529470443726|-0.02045953273773193|XArbitraryZVertical|0.1305169387869534|0.003959967677208226|-0.2173447229519854|0.967321608565076|0.06439545750617981|-0.2507823407649994|-0.9658992886543274|0|0|0|-1|-1|3
2021-04-22 21:57:02.982 +0100|140763.631491|0.1055145263671875|-0.243865966796875|-0.988372802734375|140763.61153|-0.4538715977619124|0.07290825741310487|0.2542219942376311|0.01932318508625031|0.2669539749622345|-0.1149597093462944|-0.02046976238489151|-0.01704639196395874|-0.01814115047454834|XArbitraryZVertical|0.1315705472254781|0.006721922169776053|-0.2185277056397117|0.9668970091442195|0.07050243020057678|-0.2514924705028534|-0.9652880430221558|0|0|0|-1|-1|3
2021-04-22 21:57:03.002 +0100|140763.651452|0.085845947265625|-0.239349365234375|-0.97088623046875|140763.631491|-0.4559676845103913|0.07821034215529057|0.2542596062626749|0.07569208741188049|0.17608542740345|-0.09830581396818161|0.02672107517719269|0.006015568971633911|-0.02142184972763062|XArbitraryZVertical|0.1321772165628806|0.009142368993101621|-0.2191901128686203|0.9666443587838992|0.07561871409416199|-0.2515288889408112|-0.9648911952972412|0|0|0|-1|-1|3
2021-04-22 21:57:03.022 +0100|140763.671413|0.0930328369140625|-0.2464447021484375|-0.9725189208984375|140763.651452|-0.4582277369960152|0.0821945963541123|0.2562723564008071|0.1774459928274155|0.1909583806991577|-0.08839903771877289|0.009735442698001862|0.01225081086158752|-0.01103734970092773|XArbitraryZVertical|0.133596120545427|0.01068652625328517|-0.2199495285403401|0.966260878233787|0.07942075282335281|-0.2534764111042023|-0.9640757441520691|0|0|0|-1|-1|3
2021-04-22 21:57:03.042 +0100|140763.691374|0.0923004150390625|-0.269805908203125|-0.9581756591796875|140763.671413|-0.459563763389604|0.08438718561134333|0.2594905974932131|0.2092268466949463|0.1587397158145905|-0.06691469252109528|0.01620540767908096|0.01908573508262634|-0.0107651948928833|XArbitraryZVertical|0.1353954246208591|0.01128478852253968|-0.2203357135033265|0.9659156565856978|0.08146519958972931|-0.2565882503986359|-0.9630814790725708|0|0|0|-1|-1|3
2021-04-22 21:57:03.062 +0100|140763.711335|0.1018829345703125|-0.277191162109375|-0.9550018310546875|140763.691374|-0.4607453722402925|0.08655239891608835|0.2635493326527723|0.1860595941543579|0.1295853555202484|-0.04733504354953766|0.005925513803958893|-0.006458252668380737|0.000995934009552002|XArbitraryZVertical|0.1375955868329727|0.01178020610737347|-0.2206145212113788|0.9655350874725414|0.08345957100391388|-0.2605089545249939|-0.9618573784828186|0|0|0|-1|-1|3
2021-04-22 21:57:03.082 +0100|140763.731296|0.1301422119140625|-0.2692108154296875|-0.9564666748046875|140763.711335|-0.4618934312942782|0.08924499039380691|0.2658789443170483|0.1113947406411171|0.07935813814401627|-0.02016236633062363|0.004733026027679443|-0.009275704622268677|0.01032298803329468|XArbitraryZVertical|0.1390212374196406|0.01273023014335793|-0.2208979915000863|0.9652539387603413|0.08599483221769333|-0.262757420539856|-0.9610220789909363|0|0|0|-1|-1|3
2021-04-22 21:57:03.102 +0100|140763.751256375|0.0877227783203125|-0.2556915283203125|-0.972564697265625|140763.731296|-0.4620109195285641|0.08949697444731414|0.2670055997534829|0.03444521129131317|-0.1003454253077507|0.008651439100503922|0.04466325044631958|-0.007410615682601929|0.004253268241882324|XArbitraryZVertical|0.1395920119151514|0.01271271275441304|-0.2208957428303506|0.9651723402208993|0.08621048182249069|-0.2638443410396576|-0.9607049226760864|0|0|0|-1|-1|3
2021-04-22 21:57:03.122 +0100|140763.771217375|0.0515289306640625|-0.2360687255859375|-0.9829254150390625|140763.751256375|-0.4617700756006362|0.08680803547737814|0.2668067499487266|0.03748722746968269|-0.1451406925916672|0.03208654746413231|0.01973069459199905|0.0003779232501983643|-0.005063891410827637|XArbitraryZVertical|0.1391978110256527|0.01145492127400694|-0.2209741660986614|0.9652271178649681|0.08363144099712372|-0.2636525332927704|-0.9609854817390442|0|0|0|-1|-1|3
2021-04-22 21:57:03.142 +0100|140763.791178375|0.0965576171875|-0.2956390380859375|-1.005691528320312|140763.771217375|-0.4607995502669796|0.08400506336249822|0.2678266964531065|0.06834428757429123|-0.1052322089672089|0.07182641327381134|-0.02551113069057465|0.03207758069038391|-0.01392132043838501|XArbitraryZVertical|0.1393740591282231|0.01005145138730339|-0.2206644584445869|0.9652880871376812|0.08091489225625992|-0.2646362483501434|-0.9609476923942566|0|0|0|-1|-1|3
2021-04-22 21:57:03.162 +0100|140763.811139375|0.076751708984375|-0.294647216796875|-0.9755401611328125|140763.791178375|-0.4593190601651609|0.0818985124997572|0.2700076472315335|0.111824244260788|-0.1003380194306374|0.08496316522359848|0.007719181478023529|-0.01437333226203918|-0.04518377780914307|XArbitraryZVertical|0.1401848387453508|0.008886109823114323|-0.2200201753124434|0.9653292615834035|0.07884302735328674|-0.2667388021945953|-0.9605385065078735|0|0|0|-1|-1|3
2021-04-22 21:57:03.182 +0100|140763.831100375|0.06109619140625|-0.2849578857421875|-0.957550048828125|140763.811139375|-0.4580982087559942|0.08022362127311494|0.2717733718184767|0.03776692599058151|-0.108112744987011|0.07641574740409851|0.008114725351333618|-0.02684736251831055|-0.018485426902771|XArbitraryZVertical|0.140845737891749|0.007960038866982742|-0.2194869806544104|0.9653625107490162|0.07719625532627106|-0.2684401273727417|-0.9601982235908508|0|0|0|-1|-1|3
2021-04-22 21:57:03.202 +0100|140763.851061375|0.059051513671875|-0.286773681640625|-0.957061767578125|140763.831100375|-0.4568204045772887|0.07866416271134635|0.2721163885230442|-0.0131120178848505|-0.07889940589666367|0.06303220987319946|-0.01360442489385605|-0.01884180307388306|-0.003824889659881592|XArbitraryZVertical|0.1408351118023722|0.007257849078115284|-0.2189681641472355|0.9654873126740101|0.07569153606891632|-0.2687705457210541|-0.9602255821228027|0|0|0|-1|-1|3
2021-04-22 21:57:03.222 +0100|140763.871022375|0.0634307861328125|-0.2739715576171875|-0.9704132080078125|140763.851061375|-0.4555930674406837|0.07677611887363206|0.2707781607268772|-0.07333572208881378|-0.05452440306544304|0.04183105379343033|-0.01229188591241837|-0.01907816529273987|0.0008091926574707031|XArbitraryZVertical|0.1399798425354631|0.006585695302758389|-0.2185536988343393|0.9657104042821264|0.07390597462654114|-0.2674813270568848|-0.9607245326042175|0|0|0|-1|-1|3
2021-04-22 21:57:03.242 +0100|140763.890983375|0.0605010986328125|-0.2498321533203125|-0.9494171142578125|140763.871022375|-0.4545210771980313|0.07604192534557826|0.2689854008955581|-0.06785432249307632|0.009070124477148056|0.05063661932945251|-0.01250783354043961|-0.01342076063156128|-0.00397026538848877|XArbitraryZVertical|0.1390325023695068|0.006510620935429006|-0.2181474591563403|0.9659396354509673|0.07323690503835678|-0.265753448009491|-0.9612551331520081|0|0|0|-1|-1|3
2021-04-22 21:57:03.262 +0100|140763.910944375|0.070770263671875|-0.273101806640625|-0.938018798828125|140763.890983375|-0.453598233319244|0.07663436941994496|0.2687403797484783|-0.01286096591502428|0.04945722967386246|0.02524781599640846|-0.00690247118473053|0.01434284448623657|0.00793766975402832|XArbitraryZVertical|0.1389758853696656|0.006888831562259003|-0.2176687424232855|0.9660532327561767|0.0738113671541214|-0.2655172348022461|-0.9612764716148376|0|0|0|-1|-1|3
2021-04-22 21:57:03.282 +0100|140763.930905375|0.0705718994140625|-0.28204345703125|-0.931854248046875|140763.910944375|-0.4532748467205767|0.07804329689014114|0.2696913033497652|0.04805291816592216|0.105824738740921|0.0120826568454504|-0.00826757401227951|-0.0009757876396179199|0.01557618379592896|XArbitraryZVertical|0.1395861807310019|0.007483654571041554|-0.2173823576402415|0.9660252135055772|0.07514594495296478|-0.2664339244365692|-0.9609193801879883|0|0|0|-1|-1|3
2021-04-22 21:57:03.302 +0100|140763.950866375|0.070068359375|-0.270172119140625|-0.9354705810546875|140763.930905375|-0.4529851087745194|0.07987095053344975|0.2711188271676399|0.04906461760401726|0.1046582758426666|0.02181029506027699|-0.007643386721611023|-0.01598808169364929|0.02729463577270508|XArbitraryZVertical|0.1404713252265116|0.008224247006686307|-0.2170656496609019|0.9659621463088767|0.07687161862850189|-0.2678095698356628|-0.9604003429412842|0|0|0|-1|-1|3
2021-04-22 21:57:03.322 +0100|140763.970827375|0.0690765380859375|-0.2819061279296875|-0.938079833984375|140763.950866375|-0.4525061606277755|0.08111013586303489|0.2721712454568552|0.03053469583392143|0.07208073139190674|0.02140585146844387|-0.008719019591808319|-0.003377556800842285|0.0232856273651123|XArbitraryZVertical|0.1411106943196173|0.008736740287911198|-0.216710689489576|0.9659440797026668|0.07803879678249359|-0.2688233852386475|-0.9600228667259216|0|0|0|-1|-1|3
2021-04-22 21:57:03.353 +0100|140763.990788375|0.0652008056640625|-0.2852020263671875|-0.95013427734375|140763.970827375|-0.4522531681638481|0.08172414331684587|0.2725602502370066|0.03255186975002289|0.02247115224599838|0.003924683667719364|-0.009391471743583679|-0.005322247743606567|0.02472013235092163|XArbitraryZVertical|0.1413634574722708|0.009006932192150163|-0.2165315626606215|0.9659449109090658|0.07861970365047455|-0.2691980600357056|-0.9598705172538757|0|0|0|-1|-1|3
2021-04-22 21:57:03.362 +0100|140764.010749375|0.069000244140625|-0.277740478515625|-0.95477294921875|140763.990788375|-0.4520908351205458|0.08136168494991365|0.2727786889568825|0.003115521045401692|-0.01696807891130447|0.00664891954511404|-0.0105036124587059|-0.01687642931938171|0.01683163642883301|XArbitraryZVertical|0.1414287430791057|0.008818519458009632|-0.2164711829345604|0.9659505125597951|0.07826700061559677|-0.2694084346294403|-0.9598402976989746|0|0|0|-1|-1|3
2021-04-22 21:57:03.382 +0100|140764.030710375|0.069549560546875|-0.2570037841796875|-0.954254150390625|140764.010749375|-0.451988424954255|0.08063412187718003|0.2731338501341238|0.001910906750708818|-0.04484450444579124|0.002654710784554482|-0.01191850751638412|-0.01033934950828552|0.008385300636291504|XArbitraryZVertical|0.1415206310633109|0.008434030273207212|-0.2164608116617635|0.9659429425055808|0.07756092399358749|-0.2697504460811615|-0.9598015546798706|0|0|0|-1|-1|3
2021-04-22 21:57:03.402 +0100|140764.050672375|0.0552825927734375|-0.2629852294921875|-0.9668731689453125|140764.030710375|-0.4518126726032615|0.07931271047115797|0.2732444522965459|-0.02043065056204796|-0.06763263791799545|0.007898120209574699|-0.004223838448524475|0.007330060005187988|0.0072975754737854|XArbitraryZVertical|0.1414301933152722|0.007795691601289724|-0.2164655943175674|0.9659604065378379|0.07629019767045975|-0.2698569297790527|-0.9598734378814697|0|0|0|-1|-1|3
2021-04-22 21:57:03.422 +0100|140764.070633375|0.056427001953125|-0.2550201416015625|-0.9728851318359375|140764.050672375|-0.4515918465382948|0.07798455116793565|0.2733899203268434|0.01556721422821283|-0.04933778941631317|0.01630598679184914|-0.01515287905931473|0.003762245178222656|-0.006984353065490723|XArbitraryZVertical|0.1413556998811251|0.007153322017000725|-0.2164478463625052|0.9659803139325847|0.07501220703125|-0.2699970006942749|-0.9599347710609436|0|0|0|-1|-1|3
2021-04-22 21:57:03.442 +0100|140764.090594375|0.0636749267578125|-0.25|-0.9749298095703125|140764.070633375|-0.4509093796180511|0.07709398429110013|0.2744748343503292|0.05400197207927704|-0.02033559419214725|0.06175380572676659|-0.02063827961683273|0.01264971494674683|-0.01354295015335083|XArbitraryZVertical|0.1417797519029985|0.006648565575584626|-0.2161443985521552|0.9659897256751335|0.07413469254970551|-0.2710414528846741|-0.959708571434021|0|0|0|-1|-1|3
2021-04-22 21:57:03.461 +0100|140764.110555375|0.0619659423828125|-0.25640869140625|-0.9824676513671875|140764.090594375|-0.449355691655151|0.07629153841845675|0.2763796235413996|0.1086375489830971|0.002558270003646612|0.09352540224790573|-0.008659213781356812|0.02263087034225464|-0.0117572546005249|XArbitraryZVertical|0.1426060008097015|0.006156173421891251|-0.215386598496521|0.9660406136848075|0.07332506775856018|-0.2728744745254517|-0.9592512845993042|0|0|0|-1|-1|3
2021-04-22 21:57:03.481 +0100|140764.130516375|0.0607452392578125|-0.2703704833984375|-0.96051025390625|140764.110555375|-0.4476135941788134|0.07590166956470672|0.2795087804817522|0.1869304925203323|-0.0003799954429268837|0.08994372189044952|-0.0107225626707077|0.02377834916114807|-0.0224267840385437|XArbitraryZVertical|0.1440666950082927|0.005740366948785995|-0.2144674496831271|0.9660309405838842|0.07288597524166107|-0.2758835256099701|-0.9584236741065979|0|0|0|-1|-1|3
2021-04-22 21:57:03.501 +0100|140764.150477375|0.0645751953125|-0.2790069580078125|-0.94525146484375|140764.130516375|-0.4460490776356353|0.07545549955036875|0.2834153978961403|0.2021505832672119|0.01684117503464222|0.08718965947628021|-0.01184582710266113|0.009388536214828491|-0.01203227043151855|XArbitraryZVertical|0.1458969553878668|0.005199980373884566|-0.2136121386837692|0.9659487896032988|0.072376549243927|-0.279636412858963|-0.957374095916748|0|0|0|-1|-1|3
2021-04-22 21:57:03.522 +0100|140764.170438375|0.0625762939453125|-0.2825775146484375|-0.9331512451171875|140764.150477375|-0.4442799746102566|0.07484671389353433|0.2865416865894928|0.1326664984226227|0.008459942415356636|0.09659097343683243|-0.007916614413261414|0.002928316593170166|0.007169961929321289|XArbitraryZVertical|0.1473339288292674|0.004686184796465881|-0.212696685391917|0.9659353018373096|0.07172797620296478|-0.2826366126537323|-0.9565414786338806|0|0|0|-1|-1|3
2021-04-22 21:57:03.541 +0100|140764.190399375|0.06512451171875|-0.2859649658203125|-0.941680908203125|140764.170438375|-0.442412554063221|0.07423755809223401|0.287965291400367|0.06710174679756165|0.00628712261095643|0.09239587187767029|-0.008860401809215546|-0.000268787145614624|0.01962858438491821|XArbitraryZVertical|0.1479509768264149|0.004371339270155769|-0.2117917056367947|0.9660413212577147|0.07111536711454391|-0.284001886844635|-0.9561827778816223|0|0|0|-1|-1|3
2021-04-22 21:57:03.561 +0100|140764.210360375|0.0706939697265625|-0.2918548583984375|-0.9331207275390625|140764.190399375|-0.4404240971848002|0.07371232114180482|0.2882911461672056|0.04048874229192734|0.006312262732535601|0.1037292182445526|-0.008626013994216919|0.002332478761672974|0.01772719621658325|XArbitraryZVertical|0.1480482391130681|0.00422863916257073|-0.2108590828394568|0.9662310248713966|0.07060631364583969|-0.2843143045902252|-0.9561277031898499|0|0|0|-1|-1|3
2021-04-22 21:57:03.581 +0100|140764.230321375|0.0646514892578125|-0.299224853515625|-0.9315948486328125|140764.210360375|-0.438353052140759|0.07304271457304233|0.28862573756656|0.02935977466404438|0.01506900228559971|0.09959634393453598|0.0005050748586654663|-0.001115709543228149|0.02462208271026611|XArbitraryZVertical|0.1481348035955134|0.00402154674765035|-0.2098968363599922|0.9664281784715855|0.0699591264128685|-0.284635066986084|-0.9560798406600952|0|0|0|-1|-1|3
2021-04-22 21:57:03.601 +0100|140764.250282375|0.07171630859375|-0.290435791015625|-0.9231719970703125|140764.230321375|-0.4360158038233138|0.07243228699471017|0.2892401792239097|0.02129107899963856|0.007701633963733912|0.1216530948877335|6.376951932907104e-05|-0.01371029019355774|0.02000391483306885|XArbitraryZVertical|0.1483625711029069|0.003832336189003882|-0.2087922090924284|0.9666331972114842|0.0693628266453743|-0.285224050283432|-0.9559476971626282|0|0|0|-1|-1|3
2021-04-22 21:57:03.621 +0100|140764.270243375|0.0853424072265625|-0.31201171875|-0.9377899169921875|140764.250282375|-0.4334275798425664|0.07160101340532483|0.2898194761732026|-0.008827824145555496|-0.008258158341050148|0.1190038695931435|0.002701342105865479|-0.01382651925086975|0.02795290946960449|XArbitraryZVertical|0.1485506136844829|0.003559404821409105|-0.2075837350660988|0.9668656916488445|0.06855631619691849|-0.2857792377471924|-0.9558401107788086|0|0|0|-1|-1|3
2021-04-22 21:57:03.641 +0100|140764.290204375|0.0662841796875|-0.2918243408203125|-0.9301300048828125|140764.270243375|-0.4311500237421408|0.07019456781042606|0.2889754063537697|-0.09533405303955078|-0.06594014912843704|0.1034208238124847|0.01371818780899048|-0.02269211411476135|0.02155953645706177|XArbitraryZVertical|0.1479939735480538|0.003139845024210321|-0.2066142895272484|0.9671601195297901|0.06722880154848099|-0.2849702537059784|-0.9561758637428284|0|0|0|-1|-1|3
2021-04-22 21:57:03.661 +0100|140764.310165375|0.066680908203125|-0.284576416015625|-0.945831298828125|140764.290204375|-0.4285939781848966|0.06827787223055495|0.2867420046291819|-0.146409347653389|-0.05284975469112396|0.1265280991792679|0.00581841915845871|-0.01734158396720886|0.02985703945159912|XArbitraryZVertical|0.1467148817980228|0.002642073941462781|-0.2055907208198079|0.9675744109479468|0.06543924659490585|-0.2828287482261658|-0.9569355249404907|0|0|0|-1|-1|3
2021-04-22 21:57:03.681 +0100|140764.330126375|0.080902099609375|-0.2924041748046875|-0.9451446533203125|140764.310165375|-0.4257485527784521|0.06700410993740051|0.2849978429905136|-0.07975132763385773|-0.009311065077781677|0.1369124799966812|7.695704698562622e-05|-0.004366517066955566|0.0134168267250061|XArbitraryZVertical|0.145738516673322|0.002420725591168164|-0.2043617993544611|0.9679829169762234|0.06425321102142334|-0.2811553776264191|-0.9575088620185852|0|0|0|-1|-1|3
2021-04-22 21:57:03.701 +0100|140764.350087375|0.0746307373046875|-0.2934722900390625|-0.9193115234375|140764.330126375|-0.4228151320293921|0.06612994573690448|0.2847642571040874|-0.0193290002644062|-0.002117760945111513|0.1348496824502945|0.01911339908838272|-0.0005775988101959229|0.01443839073181152|XArbitraryZVertical|0.1455332412958395|0.002236039279587051|-0.2030127314211176|0.9682980205813588|0.06342050433158875|-0.2809312045574188|-0.9576301574707031|0|0|0|-1|-1|3
2021-04-22 21:57:03.721 +0100|140764.370048375|0.0626068115234375|-0.301910400390625|-0.8946685791015625|140764.350087375|-0.4198697306587532|0.06582710906781461|0.2853116266167|-0.006192909553647041|0.02372928149998188|0.1627179682254791|0.0139814093708992|-0.01325115561485291|0.03087502717971802|XArbitraryZVertical|0.1457638211643711|0.002246021594196433|-0.2015917216697046|0.968560134529003|0.06312037259340286|-0.2814565002918243|-0.9574957489967346|0|0|0|-1|-1|3
2021-04-22 21:57:03.741 +0100|140764.390009375|0.0557403564453125|-0.308868408203125|-0.844024658203125|140764.370048375|-0.4161882397479704|0.06614990981907226|0.2864903350839111|0.03726968169212341|0.08305811882019043|0.2030826210975647|0.0001597627997398376|-0.01962763071060181|0.05553203821182251|XArbitraryZVertical|0.1463615599148524|0.002547550329626236|-0.1997487700893447|0.9688510296401848|0.06340747326612473|-0.2825873494148254|-0.9571436047554016|0|0|0|-1|-1|3
2021-04-22 21:57:03.761 +0100|140764.409970375|0.0574188232421875|-0.3584136962890625|-0.7529449462890625|140764.390009375|-0.4115456304728457|0.0672585342282338|0.2884624930586143|0.1283938884735107|0.1584462523460388|0.2464656084775925|-0.007058791816234589|-0.02185627818107605|0.1004507541656494|XArbitraryZVertical|0.1474185153444448|0.003220656573191589|-0.1973571123477668|0.9691788693729846|0.06443096697330475|-0.2844785749912262|-0.956514835357666|0|0|0|-1|-1|3
2021-04-22 21:57:03.781 +0100|140764.429931375|-0.031005859375|-0.2587432861328125|-0.6905059814453125|140764.409970375|-0.4080363641456853|0.06746697111388812|0.2902085497208506|-0.1376871317625046|-0.1902517080307007|0.09466985613107681|-0.01987411826848984|-0.04549711942672729|0.1602277159690857|XArbitraryZVertical|0.14827768246908|0.003401267170198413|-0.1955868795383278|0.9694059890038151|0.0645967572927475|-0.2861520648002625|-0.9560043215751648|0|0|0|-1|-1|3
2021-04-22 21:57:03.801 +0100|140764.449892375|-0.2013092041015625|-0.1924896240234375|-0.55364990234375|140764.429931375|-0.4051052437222424|0.06352583741003903|0.28832199221112|-0.07011649757623672|-0.149434506893158|0.1480170488357544|-0.06418997049331665|-0.03642576932907104|0.2218945026397705|XArbitraryZVertical|0.1469766010516139|0.00189964443129182|-0.194514106644917|0.969824093878536|0.06086268648505211|-0.2843438684940338|-0.9567885398864746|0|0|0|-1|-1|3
2021-04-22 21:57:03.821 +0100|140764.469853375|-0.25677490234375|-0.2076263427734375|-0.453460693359375|140764.449892375|-0.4044023510593845|0.05877086209290849|0.2869475953287661|-0.04307291284203529|-0.2596633732318878|-0.1211930140852928|-0.2035225629806519|0.1063297688961029|0.367490291595459|XArbitraryZVertical|0.1458484896911275|-0.0002152543636170727|-0.1945614885073932|0.9699866951422453|0.05633541196584702|-0.2830259501934052|-0.9574563503265381|0|0|0|-1|-1|3
2021-04-22 21:57:03.842 +0100|140764.489814375|-0.1609344482421875|-0.260894775390625|-0.432769775390625|140764.469853375|-0.40734808416506|0.05709623339466347|0.2876812503493884|0.07962271571159363|-0.0603516660630703|-0.1337919980287552|-0.3322173058986664|0.07773646712303162|0.4864553213119507|XArbitraryZVertical|0.1460389632873817|-0.001316886977122497|-0.1960912328569035|0.9696490044929704|0.05472008511424065|-0.2837295234203339|-0.9573417901992798|0|0|0|-1|-1|3
2021-04-22 21:57:03.861 +0100|140764.509775375|-0.1331939697265625|-0.3111114501953125|-0.3769683837890625|140764.489814375|-0.4119355281126605|0.05583229973847052|0.287864211314405|-0.06071211025118828|-0.2730021476745605|-0.3755875825881958|-0.2337905913591385|0.04454091191291809|0.5206973552703857|XArbitraryZVertical|0.1459987049573891|-0.002283219207040597|-0.1984019050181239|0.9691831788401893|0.05350712686777115|-0.2839049696922302|-0.9573583006858826|0|0|0|-1|-1|3
2021-04-22 21:57:03.881 +0100|140764.529736375|-0.075286865234375|-0.403900146484375|-0.4314422607421875|140764.509775375|-0.4234595873343957|0.04998846780125236|0.2818684144402591|-0.5577620267868042|-0.590093731880188|-0.7151721715927124|-0.1867295950651169|-0.02188217639923096|0.5758382081985474|XArbitraryZVertical|0.1424883498137217|-0.005319055252718727|-0.2045706280893192|0.9684109978687468|0.04799579828977585|-0.2781508266925812|-0.9593375325202942|0|0|0|-1|-1|3
2021-04-22 21:57:03.901 +0100|140764.549697375|-0.043121337890625|-0.3470306396484375|-0.5987701416015625|140764.529736375|-0.4401505251275029|0.03940398994779626|0.2610070830341338|-1.558967590332031|-0.9373194575309753|-1.000211715698242|-0.126424103975296|-0.1254754364490509|0.5478999614715576|XArbitraryZVertical|0.1312342231274144|-0.00934092669439692|-0.2139028039079744|0.9679546593674428|0.03805955126881599|-0.2580536603927612|-0.9653806686401367|0|0|0|-1|-1|3
2021-04-22 21:57:03.921 +0100|140764.569658375|-0.17449951171875|-0.2301788330078125|-0.6560516357421875|140764.549697375|-0.4606414722011345|0.02131694128038191|0.2126419163598241|-3.261106014251709|-1.401783347129822|-1.095866084098816|-0.06446103751659393|-0.1741340011358261|0.4226891398429871|XArbitraryZVertical|0.1057320033712155|-0.01390667866175967|-0.2258865851336128|0.9682989746863691|0.02083523757755756|-0.211043044924736|-0.9772546887397766|0|0|0|-1|-1|3
2021-04-22 21:57:03.941 +0100|140764.589619375|-0.3248443603515625|-0.37225341796875|-0.8128204345703125|140764.569658375|-0.4850375717742704|-0.006804243748377731|0.132555178653651|-4.684860706329346|-1.744992971420288|-1.434683442115784|-0.1237496063113213|-0.1072730123996735|0.335854709148407|XArbitraryZVertical|0.06347536353951844|-0.01920001900851699|-0.239838518107087|0.968545270096001|-0.00674450071528554|-0.1321673393249512|-0.9912045001983643|0|0|0|-1|-1|3
2021-04-22 21:57:03.961 +0100|140764.609580375|-0.4111785888671875|-0.0443572998046875|-0.6884765625|140764.589619375|-0.5200262634505631|-0.03888145597440823|0.02379560917574812|-6.307450294494629|-1.648309946060181|-1.729227185249329|-0.2520643770694733|-0.3015997707843781|0.2636250853538513|XArbitraryZVertical|0.006498024339596971|-0.02184293793470481|-0.2572499477826155|0.966076276542011|-0.03886065632104874|-0.02379336394369602|-0.998961329460144|0|0|0|-1|-1|3
2021-04-22 21:57:03.980 +0100|140764.629542375|-0.26788330078125|0.379669189453125|-0.8087310791015625|140764.609580375|-0.5632273545867339|-0.06992244277465737|-0.1153181442851216|-7.69056224822998|-1.226200342178345|-1.886226654052734|-0.3400081098079681|-0.3269762694835663|0.2806038856506348|XArbitraryZVertical|-0.06502107205678913|-0.01751625373596857|-0.2753397600266266|0.9589857849950377|-0.06940145045518875|0.1150627285242081|-0.9909308552742004|0|0|0|-1|-1|3
2021-04-22 21:57:04.001 +0100|140764.649503375|-0.28594970703125|0.564666748046875|-0.82025146484375|140764.649503375|-0.6914398913447467|-0.1424739562403734|-0.4079339178274928|-7.021424293518066|-0.8906030654907227|-2.551205635070801|-0.1203315407037735|0.1009064018726349|0.06957638263702393|XArbitraryZVertical|-0.2137073947655199|0.002889571237697813|-0.3174436332634726|0.9238779033092194|-0.1303408890962601|0.3967136442661285|-0.9086415767669678|0|0|0|-1|-1|3
2021-04-22 21:57:04.020 +0100|140764.669464375|-0.3680419921875|0.91314697265625|-0.789764404296875||||||||||||||||||||||||3
2021-04-22 21:57:04.040 +0100|140764.689425375|-0.3701171875|1.177261352539062|-0.85784912109375|140764.669464375|-0.7720004847143833|-0.1947474631480851|-0.5265228214797792|-5.725195407867432|-0.6943640112876892|-2.571155548095703|-0.1959890127182007|0.3143036961555481|0.0537375807762146|XArbitraryZVertical|-0.2752825845798257|0.01054558917991489|-0.3383545025868406|0.8997915042288693|-0.1673085391521454|0.5025301575660706|-0.8482165932655334|0|0|0|-1|-1|3
2021-04-22 21:57:04.060 +0100|140764.709386375|-0.364532470703125|1.087158203125|-0.86541748046875|140764.689425375|-0.8565344917052224|-0.2530812876865797|-0.605773065169258|-3.523985862731934|-0.6060996055603027|-2.63730263710022|-0.1642987579107285|0.5703576803207397|-0.04120564460754395|XArbitraryZVertical|-0.3191944984929621|0.01330298938200362|-0.3589775690050585|0.8769681291968857|-0.2058347314596176|0.5693977475166321|-0.7958757877349854|0|0|0|-1|-1|3
2021-04-22 21:57:04.080 +0100|140764.729347375|-0.3465576171875|0.911956787109375|-0.791259765625|140764.709386375|-0.9364017121804985|-0.3121426329910104|-0.639158352693895|-1.609707593917847|-0.6361820101737976|-2.667230606079102|-0.1247860342264175|0.5450815558433533|-0.1182342767715454|XArbitraryZVertical|-0.3435441396822037|0.008367293648940146|-0.3796464591560565|0.8589390026029522|-0.2464766353368759|0.5965201258659363|-0.7638148069381714|0|0|0|-1|-1|3
2021-04-22 21:57:04.100 +0100|140764.74930975|-0.422515869140625|0.8475799560546875|-0.7880096435546875|140764.729347375|-1.007287055705717|-0.3696454030410167|-0.6420381112666648|-0.7405857443809509|-0.8882849812507629|-2.590617418289185|-0.05246850848197937|0.3454918265342712|-0.05303734540939331|XArbitraryZVertical|-0.3558084877658363|-0.003041573280743576|-0.3993790552671956|0.8449186321972728|-0.2893446683883667|0.5988289713859558|-0.746782124042511|0|0|0|-1|-1|3
2021-04-22 21:57:04.120 +0100|140764.76927075|-0.443817138671875|0.8206787109375|-0.7942657470703125|140764.74930975|-1.070760529979575|-0.4271257266095109|-0.6334007111999038|-0.4670747220516205|-1.05595588684082|-2.456171035766602|-0.06658449769020081|0.2621910572052002|-0.05183893442153931|XArbitraryZVertical|-0.3645195279461788|-0.01794798725522234|-0.4170128206728511|0.8324084846231022|-0.3338987529277802|0.5918892025947571|-0.73360675573349|0|0|0|-1|-1|3
2021-04-22 21:57:04.140 +0100|140764.78923175|-0.4675750732421875|0.7398529052734375|-0.8242340087890625|140764.76927075|-1.128034606947637|-0.4825902586406946|-0.6191389763747378|-0.3247945308685303|-1.139690399169922|-2.364744186401367|-0.06899815797805786|0.2518038749694824|-0.06839084625244141|XArbitraryZVertical|-0.3716764112178335|-0.03420669088096889|-0.4328993815516086|0.8205394113148869|-0.3779328465461731|0.5803341865539551|-0.7213730812072754|0|0|0|-1|-1|3
2021-04-22 21:57:04.160 +0100|140764.80919275|-0.580078125|0.7528076171875|-0.819061279296875|140764.78923175|-1.182773537828024|-0.5381695677792918|-0.6043203667454998|-0.6444163918495178|-1.276387095451355|-2.261921167373657|-0.0307621955871582|0.1927680373191833|-0.112092137336731|XArbitraryZVertical|-0.3796537766384569|-0.0507648409401051|-0.4474252679385348|0.8081440618353554|-0.421783983707428|0.5682029724121094|-0.7065718770027161|0|0|0|-1|-1|3
2021-04-22 21:57:04.180 +0100|140764.82915375|-0.68450927734375|0.8623504638671875|-0.8109283447265625|140764.80919275|-1.2394894697061|-0.5965034918584442|-0.5969921048286624|-1.253763794898987|-1.338970065116882|-2.092382907867432|-0.08350980281829834|0.1746131181716919|-0.1472294330596924|XArbitraryZVertical|-0.3919513245825882|-0.06535344484014509|-0.4602893852146973|0.7938745894072249|-0.4645869433879852|0.5621573925018311|-0.6842061877250671|0|0|0|-1|-1|3
2021-04-22 21:57:04.200 +0100|140764.84911475|-0.75701904296875|0.9208984375|-0.8151702880859375|140764.82915375|-1.301117754701243|-0.657445993770559|-0.5965765871614085|-1.657180786132812|-1.300831437110901|-2.080575227737427|-0.1585401296615601|0.2697900533676147|-0.1476185917854309|XArbitraryZVertical|-0.4082202949426145|-0.07709454204709844|-0.4723935893943461|0.7773396477152589|-0.5055385828018188|0.5618137121200562|-0.6548252701759338|0|0|0|-1|-1|3
2021-04-22 21:57:04.220 +0100|140764.86907575|-0.8390350341796875|0.9171295166015625|-0.7814483642578125|140764.84911475|-1.366547560863377|-0.7193613499668338|-0.5972055704404905|-1.837496757507324|-1.2069993019104|-2.054578542709351|-0.1952584385871887|0.3506144285202026|-0.2021635770797729|XArbitraryZVertical|-0.4259255328254965|-0.08703705149846257|-0.4844849524374146|0.7591352985815124|-0.5448548197746277|0.5623339414596558|-0.6220239996910095|0|0|0|-1|-1|3
2021-04-22 21:57:04.240 +0100|140764.88903675|-0.8701019287109375|0.9488067626953125|-0.7150421142578125|140764.86907575|-1.434814135541507|-0.7798858539381225|-0.5986423985402229|-2.122399568557739|-0.9846543669700623|-1.981784701347351|-0.237172544002533|0.3596044182777405|-0.201876699924469|XArbitraryZVertical|-0.4443117732519816|-0.09439566004067985|-0.496580752336884|0.7396513573257294|-0.5809131264686584|0.5635215044021606|-0.587352991104126|0|0|0|-1|-1|3
2021-04-22 21:57:04.260 +0100|140764.90899775|-0.8179473876953125|0.9951934814453125|-0.669891357421875|140764.88903675|-1.507327259834558|-0.8373917688287421|-0.6019800669576568|-2.425444602966309|-0.677122950553894|-1.919257164001465|-0.2600818276405334|0.372078537940979|-0.1795290112495422|XArbitraryZVertical|-0.4632189148281515|-0.09778539861845618|-0.5092049473701359|0.7187327432232921|-0.6123098731040955|0.5662755966186523|-0.5517324805259705|0|0|0|-1|-1|3
2021-04-22 21:57:04.280 +0100|140764.92895875|-0.7694549560546875|1.056747436523438|-0.679412841796875|140764.90899775|-1.582326976339926|-0.8910780851548953|-0.604721562957249|-2.386379241943359|-0.4448727071285248|-1.883186459541321|-0.1940544247627258|0.4120879173278809|-0.1517196893692017|XArbitraryZVertical|-0.4814774074750999|-0.09812256945937682|-0.5224196651336096|0.6968710769213138|-0.6398240923881531|0.5685330629348755|-0.5171029567718506|0|0|0|-1|-1|3
2021-04-22 21:57:04.300 +0100|140764.94891975|-0.7366790771484375|0.9531097412109375|-0.64593505859375|140764.92895875|-1.650807107669145|-0.9375142723364053|-0.6020095974196017|-1.843901515007019|-0.3071650266647339|-1.776583313941956|-0.11319500207901|0.4817190170288086|-0.1892149746417999|XArbitraryZVertical|-0.496449214445508|-0.09828657772118109|-0.5352339924371557|0.676315461587865|-0.6643784642219543|0.5662999153137207|-0.4877558648586273|0|0|0|-1|-1|3
2021-04-22 21:57:04.320 +0100|140764.96888075|-0.6867523193359375|0.693023681640625|-0.6369781494140625|140764.94891975|-1.704218213803766|-0.9721041900987507|-0.5907828394711655|-1.189962863922119|-0.1413909047842026|-1.703948855400085|-0.06035697460174561|0.4443156719207764|-0.1894438862800598|XArbitraryZVertical|-0.5058437469081525|-0.1005054460803355|-0.5471395166752535|0.6592869359251162|-0.6860580444335938|0.5570113658905029|-0.4680415093898773|0|0|0|-1|-1|3
2021-04-22 21:57:04.342 +0100|140764.98884175|-0.6235198974609375|0.585540771484375|-0.6634521484375|140764.96888075|-1.749277488040004|-0.9975695781198041|-0.5764489751827873|-1.300516724586487|0.0886458083987236|-1.552264332771301|0.00304865837097168|0.2103356122970581|-0.1781377792358398|XArbitraryZVertical|-0.5119834522901173|-0.102570002727873|-0.5588344780583555|0.6442488454524288|-0.704389214515686|0.5450502038002014|-0.4547046720981598|0|0|0|-1|-1|3
2021-04-22 21:57:04.360 +0100|140765.00880275|-0.56573486328125|0.6197509765625|-0.7231292724609375|140764.98884175|-1.799589371632259|-1.020941657013894|-0.5692006972700089|-1.908063769340515|0.292050838470459|-1.311546683311462|0.07907283306121826|0.0526999831199646|-0.2114236056804657|XArbitraryZVertical|-0.5195898246822821|-0.09970195249702567|-0.5705679678055006|0.6281227927437771|-0.7181727290153503|0.5389589667320251|-0.440171867609024|0|0|0|-1|-1|3
2021-04-22 21:57:04.380 +0100|140765.02876375|-0.57501220703125|0.56939697265625|-0.746795654296875|140765.00880275|-1.857446879113166|-1.044515189336608|-0.5706735175412986|-2.326333284378052|0.469839870929718|-1.067218422889709|0.1490626335144043|0.07538574934005737|-0.2812111377716064|XArbitraryZVertical|-0.5294404186511161|-0.09127873952254989|-0.581946246173447|0.6104913586485596|-0.7276614904403687|0.5401989817619324|-0.4227220714092255|0|0|0|-1|-1|3
2021-04-22 21:57:04.400 +0100|140765.04872475|-0.611236572265625|0.4410858154296875|-0.659637451171875|140765.02876375|-1.921541191757591|-1.068333899309833|-0.5788156713651085|-2.844153881072998|0.6623296141624451|-0.8762867450714111|0.1697390675544739|0.04355794191360474|-0.3471797108650208|XArbitraryZVertical|-0.5406589091514568|-0.07821635118864376|-0.5928765616501506|0.5916652605760233|-0.7336437702178955|0.54703289270401|-0.4031403064727783|0|0|0|-1|-1|3
2021-04-22 21:57:04.420 +0100|140765.06868575|-0.580535888671875|0.4730987548828125|-0.4814605712890625|140765.04872475|-2.001476632072432|-1.096153201564812|-0.5964571960343803|-3.933199405670166|0.9937853813171387|-0.6777698397636414|0.1258729100227356|-0.09377431869506836|-0.3091630339622498|XArbitraryZVertical|-0.5546369993016622|-0.05765381698842687|-0.6042173895320345|0.5691883268443211|-0.7358744144439697|0.5617149472236633|-0.3781076669692993|0|0|0|-1|-1|3
2021-04-22 21:57:04.440 +0100|140765.08864675|-0.4914093017578125|0.608978271484375|-0.359466552734375|140765.06868575|-2.106986769137015|-1.133873135024777|-0.6265305489976422|-5.114656925201416|1.276523232460022|-0.4219310283660889|0.1413915753364563|-0.1422009468078613|-0.1750849485397339|XArbitraryZVertical|-0.5726205997207916|-0.02672545988864873|-0.6156484614764867|0.540711234239875|-0.7339674830436707|0.5863378047943115|-0.3427827954292297|0|0|0|-1|-1|3
2021-04-22 21:57:04.461 +0100|140765.10860775|-0.3920745849609375|0.6297607421875|-0.2280120849609375|140765.08864675|-2.235233599063189|-1.184438705667657|-0.6643620898559369|-5.67417049407959|1.344086289405823|-0.2197740972042084|0.2102320790290833|-0.0352436900138855|-0.08989393711090088|XArbitraryZVertical|-0.5928866744522385|0.01222350284017762|-0.6254754976677326|0.5070665675896069|-0.7292759418487549|0.6165570020675659|-0.2966719567775726|0|0|0|-1|-1|3
2021-04-22 21:57:04.480 +0100|140765.12856875|-0.3653106689453125|0.627685546875|-0.1055450439453125|140765.10860775|-2.373864874237101|-1.246734591193595|-0.7014747385679626|-5.689402103424072|1.145107388496399|-0.0503263920545578|0.3110288381576538|-0.01016807556152344|-0.02096784114837646|XArbitraryZVertical|-0.6128090512113175|0.05334876490003842|-0.6318793569518053|0.4715375539089388|-0.7241308689117432|0.6453449130058289|-0.2432379573583603|0|0|0|-1|-1|3
2021-04-22 21:57:04.499 +0100|140765.14853075|-0.369842529296875|0.7697296142578125|-0.055877685546875|140765.12856875|-2.515867957971285|-1.320696975919629|-0.7342616181914845|-5.448770523071289|0.8057349920272827|0.1629212647676468|0.3513250350952148|-0.05546164512634277|0.05150848627090454|XArbitraryZVertical|-0.6319754450931406|0.09351002044470734|-0.6336001310258595|0.436364498352033|-0.7192305326461792|0.6700392365455627|-0.1837258189916611|0|0|0|-1|-1|3
2021-04-22 21:57:04.520 +0100|140765.16849175|-0.390899658203125|0.8767547607421875|-0.111663818359375|140765.14853075|-2.653057233223413|-1.400267913898546|-0.761964977256488|-4.913410186767578|0.5963194370269775|0.4300214946269989|0.348926842212677|0.04647129774093628|0.07146163284778595|XArbitraryZVertical|-0.6491383637802065|0.1312664955741131|-0.6309072410863091|0.4041591628212894|-0.7129870653152466|0.6903443932533264|-0.122776985168457|0|0|0|-1|-1|3
2021-04-22 21:57:04.540 +0100|140765.18845275|-0.4385833740234375|0.85504150390625|-0.146087646484375|140765.16849175|-2.773934550336256|-1.474589930635704|-0.7837670833938584|-3.926750898361206|0.4086059629917145|0.5396763682365417|0.3185545802116394|0.1495308876037598|-0.02437330037355423|XArbitraryZVertical|-0.6625372822697956|0.1643999201158346|-0.625706256003117|0.3775035682869461|-0.7049843072891235|0.7059524655342102|-0.06803403049707413|0|0|0|-1|-1|3
2021-04-22 21:57:04.560 +0100|140765.20841375|-0.5390625|0.8978729248046875|-0.1184234619140625|140765.18845275|-2.869662788297183|-1.536297855887485|-0.7991320510977042|-2.954520225524902|0.2392358481884003|0.565220057964325|0.2766560912132263|0.1450494527816772|-0.118251621723175|XArbitraryZVertical|-0.6720913886705081|0.1904393613523817|-0.619795244759803|0.3576033720170808|-0.6969145536422729|0.7167510986328125|-0.02405202947556973|0|0|0|-1|-1|3
2021-04-22 21:57:04.579 +0100|140765.22837475|-0.6062469482421875|0.9142303466796875|-0.161041259765625|140765.20841375|-2.946281570012433|-1.58757107437746|-0.8118552886229771|-2.459743738174438|0.1742817163467407|0.6708958745002747|0.1788243651390076|0.1537218689918518|-0.1265029907226562|XArbitraryZVertical|-0.6789440031202378|0.2116756275837361|-0.613653040789522|0.3430138262550029|-0.6880567669868469|0.7255651354789734|0.01154306158423424|0|0|0|-1|-1|3
2021-04-22 21:57:04.608 +0100|140765.24833575|-0.592376708984375|0.8703765869140625|-0.2371978759765625|140765.22837475|-3.01148385915999|-1.631723504542357|-0.8240062046735871|-1.941521048545837|0.1684291660785675|0.70704185962677|0.08369588851928711|0.1754586696624756|-0.1905773878097534|XArbitraryZVertical|-0.683798027549688|0.2304364906805329|-0.6076126332774213|0.3318529805512453|-0.678026556968689|0.7338730692863464|0.04136143624782562|0|0|0|-1|-1|3
2021-04-22 21:57:04.619 +0100|140765.26829675|-0.6243438720703125|0.842559814453125|-0.2610626220703125|140765.24833575|-3.060808104670313|-1.665766375838249|-0.83440306929843|-1.303586840629578|0.04469752311706543|0.5929349660873413|0.07585000991821289|0.1519717574119568|-0.3005657196044922|XArbitraryZVertical|-0.6868686622435666|0.2450620906866786|-0.6024337967336728|0.3243912454844591|-0.6685938239097595|0.7408957481384277|0.06368797272443771|0|0|0|-1|-1|3
2021-04-22 21:57:04.639 +0100|140765.28825775|-0.610382080078125|0.8330078125|-0.3057403564453125|140765.26829675|-3.094122966296649|-1.690027802664681|-0.8443143629829152|-0.7879390716552734|0.03478305414319038|0.6266759037971497|0.0389525294303894|0.0936853289604187|-0.3202987909317017|XArbitraryZVertical|-0.688574870756443|0.2556761587893113|-0.5980072736343447|0.3207519407998643|-0.6595283150672913|0.747515857219696|0.07901129871606827|0|0|0|-1|-1|3
2021-04-22 21:57:04.659 +0100|140765.30821875|-0.594573974609375|0.74383544921875|-0.3162078857421875|140765.28825775|-3.109364274951913|-1.700867136068879|-0.854996644784544|-0.05717218667268753|0.02062408998608589|0.5410898923873901|0.03319960832595825|0.08843302726745605|-0.3841568231582642|XArbitraryZVertical|-0.6882479514456172|0.2624350056847786|-0.5951932725026886|0.3212284277356262|-0.6506779193878174|0.7545686960220337|0.0851147472858429|0|0|0|-1|-1|3
2021-04-22 21:57:04.679 +0100|140765.32817975|-0.5791778564453125|0.6332855224609375|-0.304779052734375|140765.30821875|-3.101132615263599|-1.694455944611986|-0.8656906422810182|0.6966650485992432|-0.001554396003484726|0.450192004442215|0.04605782032012939|0.009132146835327148|-0.4000253677368164|XArbitraryZVertical|-0.6858093175347121|0.2638869910324497|-0.5945232750778032|0.3264530916991327|-0.6431657671928406|0.7615430355072021|0.079941526055336|0|0|0|-1|-1|3
2021-04-22 21:57:04.699 +0100|140765.34814075|-0.5568389892578125|0.6137237548828125|-0.3031005859375|140765.32817975|-3.07387943287333|-1.673823883384062|-0.8753307316046477|1.154773950576782|-0.04051148891448975|0.2884308099746704|0.05252110958099365|-0.111704409122467|-0.3629100322723389|XArbitraryZVertical|-0.6818089579289645|0.2609315687329565|-0.5956290704218159|0.3350781750543905|-0.637345552444458|0.7677554488182068|0.06589747965335846|0|0|0|-1|-1|3
2021-04-22 21:57:04.719 +0100|140765.36810175|-0.57122802734375|0.671966552734375|-0.3114166259765625|140765.34814075|-3.030762610424559|-1.642542522394412|-0.8816753239179134|1.663676381111145|-0.1653909981250763|0.1155360788106918|0.07424032688140869|-0.1616524457931519|-0.3471715450286865|XArbitraryZVertical|-0.6771131070642044|0.2535912532315642|-0.5979105805695166|0.345994959740342|-0.6342235803604126|0.7718052268028259|0.04558136686682701|0|0|0|-1|-1|3
2021-04-22 21:57:04.739 +0100|140765.38806275|-0.6223602294921875|0.7197113037109375|-0.261474609375|140765.36810175|-2.967192857611693|-1.598200576376805|-0.8846779738645252|2.435882568359375|-0.3249442875385284|-0.0140719823539257|0.07093751430511475|-0.1188653707504272|-0.3275556564331055|XArbitraryZVertical|-0.6712813889879168|0.2409585868925915|-0.6011204202720222|0.3605200182316166|-0.6333011388778687|0.7737110257148743|0.01735948771238327|0|0|0|-1|-1|3
2021-04-22 21:57:04.759 +0100|140765.40802375|-0.703643798828125|0.71661376953125|-0.1381072998046875|140765.38806275|-2.875930881533687|-1.53602744263135|-0.8828735991377356|3.363196849822998|-0.5240384936332703|-0.1419838666915894|0.02781397104263306|-0.0619807243347168|-0.2536396980285645|XArbitraryZVertical|-0.6632795133919608|0.2214148610222816|-0.605301710020071|0.3803230862375437|-0.6345500946044922|0.7725666165351868|-0.02207149378955364|0|0|0|-1|-1|3
2021-04-22 21:57:04.779 +0100|140765.42798475|-0.7870941162109375|0.6631011962890625|-0.056793212890625|140765.40802375|-2.760359103319589|-1.458901148468293|-0.873592443672412|3.976128339767456|-0.6498891115188599|-0.2410857826471329|-0.04261881113052368|-0.03872054815292358|-0.09773820638656616|XArbitraryZVertical|-0.6527050950479751|0.1952647529794115|-0.6098901838406569|0.4048232462417448|-0.6380614638328552|0.7666404843330383|-0.0716954693198204|0|0|0|-1|-1|3
2021-04-22 21:57:04.799 +0100|140765.44794575|-0.8459014892578125|0.747650146484375|-0.1244659423828125|140765.42798475|-2.641622208870613|-1.382721998268071|-0.855441641416343|3.818449735641479|-0.8029119372367859|-0.413972795009613|-0.1282796859741211|-0.09024953842163086|0.05552103370428085|XArbitraryZVertical|-0.6411688382207723|0.166096060794358|-0.613762082294242|0.4296635259674302|-0.6443194150924683|0.7548606395721436|-0.12262924015522|0|0|0|-1|-1|3
2021-04-22 21:57:04.819 +0100|140765.46790675|-0.926025390625|0.86297607421875|-0.1196441650390625|140765.44794575|-2.537416997804389|-1.32380627209708|-0.829519787032691|3.616178512573242|-1.111744523048401|-0.6322490572929382|-0.1743942499160767|-0.01954454183578491|0.06492592394351959|XArbitraryZVertical|-0.6316073265524914|0.1361245025005096|-0.6155643319304341|0.4512458936908924|-0.6547386646270752|0.7376071810722351|-0.1650846153497696|0|0|0|-1|-1|3
2021-04-22 21:57:04.839 +0100|140765.48786775|-0.94805908203125|0.9333953857421875|-0.1284942626953125|140765.46790675|-2.439574527447869|-1.278173055603507|-0.7966774846600218|3.761118650436401|-1.40219783782959|-0.6830765604972839|-0.2286579012870789|0.1210368275642395|0.07364079356193542|XArbitraryZVertical|-0.6232932855434902|0.1033175954456278|-0.6151388799102104|0.4716302828126361|-0.6693684458732605|0.7150373458862305|-0.2016619145870209|0|0|0|-1|-1|3
2021-04-22 21:57:04.859 +0100|140765.50782875|-0.876220703125|0.767791748046875|-0.0034332275390625|140765.48786775|-2.341308555695003|-1.238147167155384|-0.7607073663285367|3.9971022605896|-1.486644864082336|-0.6000529527664185|-0.2716595530509949|0.2448761463165283|0.09240028262138367|XArbitraryZVertical|-0.6140279180511373|0.06857410030025428|-0.6125561963642864|0.492993070349461|-0.684640109539032|0.6894339919090271|-0.2365346103906631|0|0|0|-1|-1|3
2021-04-22 21:57:04.879 +0100|140765.52778975|-0.8321685791015625|0.6659088134765625|-0.0706787109375|140765.50782875|-2.247304679390009|-1.204701406812609|-0.7244050760342214|3.713301658630371|-1.551662564277649|-0.4035473167896271|-0.2021320462226868|0.1606277823448181|0.2285324335098267|XArbitraryZVertical|-0.6039787566178032|0.034178488905758|-0.6079813496112106|0.5141987616790628|-0.6992665529251099|0.6626900434494019|-0.2680829763412476|0|0|0|-1|-1|3
2021-04-22 21:57:04.899 +0100|140765.54775075|-0.7886810302734375|0.541656494140625|-0.2255706787109375|140765.52778975|-2.16236930343442|-1.182226350273427|-0.6916025539239804|3.683409214019775|-1.699142694473267|-0.3274713754653931|-0.1219724416732788|0.04814010858535767|0.2685422897338867|XArbitraryZVertical|-0.5950553873612101|0.001805203923659066|-0.6005613019370221|0.5340713401750377|-0.7128062844276428|0.6377723217010498|-0.2918116450309753|0|0|0|-1|-1|3
2021-04-22 21:57:04.919 +0100|140765.56771175|-0.6754913330078125|0.2986602783203125|-0.3118743896484375|140765.54775075|-2.072399605950277|-1.158760206702025|-0.6538355397940563|4.248568534851074|-1.550989627838135|-0.3968078196048737|-0.08317667245864868|-0.03183525800704956|0.1450750827789307|XArbitraryZVertical|-0.5830728834902903|-0.03295107497654018|-0.5923325746186462|0.5550518350848518|-0.7273252606391907|0.6082353591918945|-0.3178804814815521|0|0|0|-1|-1|3
2021-04-22 21:57:04.939 +0100|140765.58767375|-0.6727752685546875|0.02557373046875|-0.3029022216796875|140765.56771175|-1.977519912022914|-1.130575041263995|-0.6127756342316648|4.175476551055908|-1.249157905578613|-0.1781474649906158|0.04323548078536987|-0.2090520858764648|0.02981948852539062|XArbitraryZVertical|-0.5666339737424448|-0.06799349922634472|-0.5837278304984475|0.5775506936247727|-0.7400594353675842|0.5751402974128723|-0.3486056625843048|0|0|0|-1|-1|3
2021-04-22 21:57:04.959 +0100|140765.60763475|-0.7361907958984375|0.3218841552734375|-0.223907470703125|140765.58767375|-1.90639358751685|-1.114292685059176|-0.5830167870795681|2.153833150863647|-1.12243115901947|0.08267080038785934|0.09323793649673462|-0.4776542782783508|0.03027051687240601|XArbitraryZVertical|-0.5541576854100427|-0.09440800550443074|-0.5747816013094098|0.5946618222660801|-0.7493209838867188|0.5505448579788208|-0.3679927885532379|0|0|0|-1|-1|3
2021-04-22 21:57:04.978 +0100|140765.62759575|-0.6275482177734375|0.68170166015625|-0.158416748046875|140765.60763475|-1.888549053562195|-1.124737659973508|-0.5811540026221403|-0.615830659866333|-0.8759419322013855|0.3929629623889923|0.02005314826965332|-0.346017062664032|0.129509449005127|XArbitraryZVertical|-0.5559326066012793|-0.103174390993401|-0.5670177702271717|0.5989865229204988|-0.7540474534034729|0.5489888787269592|-0.3605879545211792|0|0|0|-1|-1|3
2021-04-22 21:57:04.998 +0100|140765.64755675|-0.6150360107421875|0.6183624267578125|-0.206512451171875|140765.62759575|-1.917958900176096|-1.157753070319671|-0.602225845867766|-2.392597436904907|-0.8368687033653259|0.4839229881763458|0.09516716003417969|0.04771798849105835|0.1644782721996307|XArbitraryZVertical|-0.5702874932459775|-0.09685329955892422|-0.5612133734420368|0.5919723691668602|-0.7547748684883118|0.5664781332015991|-0.3307832181453705|0|0|0|-1|-1|3
2021-04-22 21:57:05.018 +0100|140765.66751775|-0.5972900390625|0.5244293212890625|-0.00860595703125|140765.64755675|-1.986734780200244|-1.213826637796733|-0.6347045056853223|-4.026802539825439|-0.727647602558136|0.4017104208469391|0.1424381732940674|0.09773355722427368|0.04803064465522766|XArbitraryZVertical|-0.5939231810156181|-0.08101780665839982|-0.5567177937735924|0.5751145310940192|-0.754484236240387|0.5929396152496338|-0.2813827395439148|0|0|0|-1|-1|3
2021-04-22 21:57:05.039 +0100|140765.68747875|-0.621429443359375|0.778564453125|0.323150634765625|140765.66751775|-2.102511914314278|-1.298397084652011|-0.6725344600977543|-5.928755283355713|-0.7118245959281921|0.3976097702980042|0.1576070785522461|-0.1142280101776123|0.1589902192354202|XArbitraryZVertical|-0.6258805799739502|-0.05517864346955831|-0.553694623442793|0.5464898684531477|-0.7534025907516479|0.6229705810546875|-0.2104576379060745|0|0|0|-1|-1|3
2021-04-22 21:57:05.058 +0100|140765.70743975|-0.657806396484375|1.232009887695312|0.24853515625|140765.68747875|-2.270938865150026|-1.419861643198186|-0.709674527131371|-7.366401672363281|-0.6714445948600769|0.4613021016120911|0.1281992197036743|0.02916795015335083|0.3508166670799255|XArbitraryZVertical|-0.6652935853959758|-0.0188144559093679|-0.5493353080697458|0.5052339410063542|-0.7499499320983887|0.6515868902206421|-0.1140609234571457|0|0|0|-1|-1|3
2021-04-22 21:57:05.078 +0100|140765.72740075|-0.919769287109375|1.302886962890625|-0.0594329833984375|140765.70743975|-2.464312311800199|-1.561965784593515|-0.7311945332806712|-6.847017288208008|-0.7614988088607788|0.5754669308662415|0.1198970675468445|0.4573010206222534|0.3034331798553467|XArbitraryZVertical|-0.7044636486111678|0.02108035756606933|-0.5420058363766623|0.4577297510227538|-0.7443485856056213|0.6677592992782593|-0.006573172751814127|0|0|0|-1|-1|3
2021-04-22 21:57:05.098 +0100|140765.74736175|-1.00518798828125|1.02947998046875|-0.1341400146484375|140765.72740075|-2.611596730826497|-1.674640552855962|-0.7379332122020745|-3.842882633209229|-0.6437405943870544|0.5648902058601379|-0.1213490962982178|0.6801748275756836|-0.01803719997406006|XArbitraryZVertical|-0.7319077520933222|0.05154780215626074|-0.5324382117760786|0.4220942965773541|-0.7358752489089966|0.6727601885795593|0.07669226825237274|0|0|0|-1|-1|3
2021-04-22 21:57:05.118 +0100|140765.767322125|-1.0118408203125|0.60626220703125|-0.0321197509765625|140765.74736175|-2.676645806550829|-1.727536041778159|-0.7414120535288692|-1.149892210960388|-0.3217501938343048|0.3747586607933044|-0.3061785697937012|0.4385761022567749|-0.2420018911361694|XArbitraryZVertical|-0.7438023667467475|0.06573189578170789|-0.5257096747499848|0.4075129605553843|-0.7284749746322632|0.6753299832344055|0.1151252835988998|0|0|0|-1|-1|3
2021-04-22 21:57:05.138 +0100|140765.787283125|-1.18896484375|0.17022705078125|0.161529541015625|140765.767322125|-2.695612515522521|-1.748391823033045|-0.7453615516693927|-0.480013519525528|-0.4924584031105042|0.3054002225399017|-0.2564219236373901|0.03413349390029907|-0.2140939384698868|XArbitraryZVertical|-0.74835171138678|0.06985432940840901|-0.5210115184680558|0.4045208347294533|-0.7232846617698669|0.6782375574111938|0.1298198252916336|0|0|0|-1|-1|3
2021-04-22 21:57:05.158 +0100|140765.807244125|-1.302932739257812|0.2257232666015625|0.4000701904296875|140765.787283125|-2.720434350292271|-1.777136277083896|-0.747674278655466|-1.535711407661438|-0.7195525765419006|0.3022257089614868|-0.4230302572250366|-0.4082532525062561|-0.05866385996341705|XArbitraryZVertical|-0.7547312195761292|0.07414029899343866|-0.5147609318634206|0.3998815334518832|-0.7177176475524902|0.6799352169036865|0.1502320021390915|0|0|0|-1|-1|3
2021-04-22 21:57:05.178 +0100|140765.827205125|-1.18499755859375|0.781463623046875|0.3899993896484375|140765.807244125|-2.784441331043475|-1.835594672755294|-0.7414962816302246|-3.036212682723999|-0.7911987900733948|0.1710104197263718|-0.5944438576698303|-0.5390250682830811|0.1566972583532333|XArbitraryZVertical|-0.7676290975029153|0.08513213211936481|-0.5061689430640156|0.3837853675574696|-0.711755096912384|0.6753920912742615|0.1930038183927536|0|0|0|-1|-1|3
2021-04-22 21:57:05.198 +0100|140765.847166125|-1.049835205078125|1.111099243164062|0.500396728515625|140765.827205125|-2.865674078143207|-1.907249337695078|-0.7253900907235318|-2.870077610015869|-0.956074059009552|0.1332518607378006|-0.5107079148292542|-0.01538741588592529|0.1707303076982498|XArbitraryZVertical|-0.7834573622936063|0.09852439165590043|-0.4961491366280839|0.3610035583253326|-0.7062880992889404|0.6634273529052734|0.2470249831676483|0|0|0|-1|-1|3
2021-04-22 21:57:05.218 +0100|140765.867127125|-0.8303985595703125|0.9388275146484375|0.6440277099609375|140765.847166125|-2.92288289425333|-1.964680979610087|-0.7126090652424287|-1.509176254272461|-1.016846776008606|0.1378972232341766|-0.3927289843559265|0.441312313079834|0.2149055600166321|XArbitraryZVertical|-0.7960298180229488|0.1073833839376979|-0.4854414445607818|0.3451839763523015|-0.6987176537513733|0.6538101434707642|0.2903893291950226|0|0|0|-1|-1|3
2021-04-22 21:57:05.238 +0100|140765.887088125|-0.55108642578125|0.723297119140625|0.608062744140625|140765.867127125|-2.939112980719118|-1.995559195041784|-0.7084147465858712|0.176786482334137|-0.9935084581375122|-0.02545140311121941|-0.2012620568275452|0.3375581502914429|0.3009264171123505|XArbitraryZVertical|-0.8030769965709215|0.1074353850901196|-0.4764532885267048|0.3413463926959406|-0.6919119954109192|0.6506307721138|0.3129500448703766|0|0|0|-1|-1|3
2021-04-22 21:57:05.258 +0100|140765.907049125|-0.287445068359375|0.640777587890625|0.5899505615234375|140765.887088125|-2.915599031736065|-1.999176157191324|-0.7145385917365855|1.583586931228638|-0.8997097611427307|-0.1372469067573547|0.06682181358337402|0.1240423917770386|0.333824098110199|XArbitraryZVertical|-0.8044211627910469|0.09900189814204624|-0.4701067536247232|0.3494351247744482|-0.6871381402015686|0.6552689671516418|0.313789576292038|0|0|0|-1|-1|3
2021-04-22 21:57:05.278 +0100|140765.927010125|-0.14459228515625|0.6195526123046875|0.492462158203125|140765.907049125|-2.870371642326904|-1.986422309631548|-0.7287808864829074|1.896485209465027|-0.84160977602005|0.06995518505573273|0.3368487954139709|-0.01848524808883667|0.3208992481231689|XArbitraryZVertical|-0.8018959077062477|0.08697021009803024|-0.46510377299506|0.3647981839955133|-0.6824764609336853|0.6659606695175171|0.301201730966568|0|0|0|-1|-1|3
2021-04-22 21:57:05.298 +0100|140765.946971125|-0.003082275390625|0.65655517578125|0.2246856689453125|140765.927010125|-2.828129697379787|-1.974006781766983|-0.7453267548557855|1.538923621177673|-0.7143803834915161|0.2024354785680771|0.4874268174171448|-0.09477758407592773|0.204135537147522|XArbitraryZVertical|-0.7989073842231749|0.07692873787827725|-0.4596475288563905|0.380201617402119|-0.6759347319602966|0.6782119870185852|0.2883420884609222|0|0|0|-1|-1|3
2021-04-22 21:57:05.318 +0100|140765.966932125|0.0083160400390625|0.5817413330078125|0.127899169921875|140765.946971125|-2.794868406837903|-1.964882736694108|-0.7607605108076831|1.480191826820374|-0.636061429977417|0.2293558567762375|0.6517469882965088|-0.02303040027618408|0.00100359320640564|XArbitraryZVertical|-0.7963621941391641|0.06973105515196441|-0.4543255938624669|0.3931071125500837|-0.6687918901443481|0.689472496509552|0.2781103253364563|0|0|0|-1|-1|3
2021-04-22 21:57:05.338 +0100|140765.986893125|-0.041900634765625|0.4686431884765625|0.083251953125|140765.966932125|-2.752827164751589|-1.946805311537122|-0.7774453416815139|1.934998273849487|-0.4447425305843353|0.1980981528759003|0.6789071559906006|-0.09495526552200317|-0.1160231530666351|XArbitraryZVertical|-0.7918899045403139|0.06138101218793356|-0.4501918081643565|0.4080078074375866|-0.6629168391227722|0.7014609575271606|0.2617144882678986|0|0|0|-1|-1|3
2021-04-22 21:57:05.357 +0100|140766.006854125|-0.0810394287109375|0.5181884765625|0.1580352783203125|140765.986893125|-2.701141311168321|-1.915775945189146|-0.7954896685560094|2.062641382217407|-0.1171360686421394|0.1870967298746109|0.6299789547920227|-0.2288708090782166|-0.1470872163772583|XArbitraryZVertical|-0.7845853747792801|0.05269716163831022|-0.4483217352180403|0.4250371484825424|-0.6586968302726746|0.7142063975334167|0.2367023974657059|0|0|0|-1|-1|3
2021-04-22 21:57:05.378 +0100|140766.026816125|-0.2382659912109375|0.6134796142578125|0.25927734375|140766.006854125|-2.646931487795662|-1.875916262006597|-0.8121274508572989|1.986503720283508|0.1769714653491974|0.2148860096931458|0.5896511077880859|-0.2326652407646179|-0.07560917735099792|XArbitraryZVertical|-0.7754322279776056|0.04515003613418919|-0.4488322168834001|0.4418328268246917|-0.6561803817749023|0.7257524132728577|0.2066673338413239|0|0|0|-1|-1|3
2021-04-22 21:57:05.398 +0100|140766.046777125|-0.4283294677734375|0.7606353759765625|0.202911376953125|140766.026816125|-2.600589481657128|-1.836807042837982|-0.8265366849283289|1.425632357597351|0.3446877598762512|0.2524229884147644|0.466801643371582|-0.1451667547225952|0.06074570119380951|XArbitraryZVertical|-0.7664227227883141|0.04048252782603314|-0.450487664833163|0.4560902640128186|-0.6536005735397339|0.7355896234512329|0.1780852526426315|0|0|0|-1|-1|3
2021-04-22 21:57:05.418 +0100|140766.066738125|-0.6506195068359375|0.7498779296875|0.115020751953125|140766.046777125|-2.570583674452326|-1.80618694003059|-0.8365447436824583|0.7778928279876709|0.5416545867919922|0.2482929676771164|0.267230749130249|-0.01136082410812378|0.1026904433965683|XArbitraryZVertical|-0.7593382129518634|0.03922829198237224|-0.4530708972343507|0.4653960629143755|-0.6515547037124634|0.742332398891449|0.1562667638063431|0|0|0|-1|-1|3
2021-04-22 21:57:05.438 +0100|140766.086699125|-0.5100860595703125|0.7565460205078125|0.4478759765625|140766.066738125|-2.568239470309912|-1.79046955552559|-0.844870867908908|-0.4272823333740234|0.9767425060272217|0.4480487704277039|0.04504567384719849|-0.0239328145980835|-0.08323824405670166|XArbitraryZVertical|-0.7552044374928496|0.04465311874516244|-0.4566212559669851|0.4681555321294963|-0.6478756070137024|0.7478854060173035|0.1446552872657776|0|0|0|-1|-1|3
2021-04-22 21:57:05.457 +0100|140766.106660125|-0.33355712890625|0.7430267333984375|0.5430450439453125|140766.086699125|-2.601192083413757|-1.791977682084522|-0.8517407282903171|-1.667115449905396|1.373579025268555|0.6858689785003662|0.1029547452926636|-0.002520442008972168|0.2028650939464569|XArbitraryZVertical|-0.7541743826175374|0.05892170068027857|-0.4621996470326428|0.4627317999828036|-0.6426283717155457|0.7524281144142151|0.1445015370845795|0|0|0|-1|-1|3
2021-04-22 21:57:05.478 +0100|140766.126621125|-0.378387451171875|0.8604278564453125|0.533660888671875|140766.106660125|-2.673745791578383|-1.8175294443301|-0.85595184249024|-2.820114850997925|1.423628449440002|0.8994902968406677|0.2812930941581726|-0.03112035989761353|0.3710153102874756|XArbitraryZVertical|-0.7571993943578919|0.08184077851763057|-0.4681663967556908|0.4480754944881002|-0.6356489062309265|0.7551952004432678|0.160097673535347|0|0|0|-1|-1|3
2021-04-22 21:57:05.497 +0100|140766.146582125|-0.295074462890625|0.933135986328125|0.316314697265625|140766.126621125|-2.772153681043681|-1.863896855196365|-0.8608597302273812|-3.120935678482056|1.429263710975647|1.276529431343079|0.2498884797096252|0.06050491333007812|0.3387082815170288|XArbitraryZVertical|-0.7628446775646645|0.1105696152385105|-0.4711402512553569|0.4288000097502488|-0.6239891648292542|0.7584031820297241|0.188315287232399|0|0|0|-1|-1|3
2021-04-22 21:57:05.517 +0100|140766.166543125|-0.1965179443359375|0.86016845703125|0.2164764404296875|140766.146582125|-2.868736522576459|-1.90787029588642|-0.8688788469706926|-2.39060640335083|1.53010094165802|1.405638217926025|0.2834654450416565|0.1806381940841675|0.1482257544994354|XArbitraryZVertical|-0.7661644518419072|0.1405863147634508|-0.4731703470831383|0.4115062734548006|-0.6093482971191406|0.763605535030365|0.2135449647903442|0|0|0|-1|-1|3
2021-04-22 21:57:05.537 +0100|140766.186504125|-0.1591796875|0.734954833984375|0.1582489013671875|140766.166543125|-2.934579700740314|-1.927588948618141|-0.8852775716477945|-1.017792820930481|1.559229254722595|1.594253659248352|0.3860050439834595|0.102083683013916|0.0233924388885498|XArbitraryZVertical|-0.7634740916365361|0.166326709673333|-0.4763261085510965|0.4031827920129478|-0.5932051539421082|0.7740907669067383|0.2211145311594009|0|0|0|-1|-1|3
2021-04-22 21:57:05.557 +0100|140766.206465125|-0.2331695556640625|0.677734375|0.3771820068359375|140766.186504125|-2.966692283079309|-1.91907412609526|-0.912532173063645|-0.05032403767108917|1.764456629753113|1.635899662971497|0.3998909592628479|-0.01351356506347656|-0.07059235870838165|XArbitraryZVertical|-0.7544283051743834|0.1876858942985028|-0.4817097031922237|0.4044354382771682|-0.5750172138214111|0.7910553216934204|0.208776131272316|0|0|0|-1|-1|3
2021-04-22 21:57:05.577 +0100|140766.226426125|-0.5196990966796875|0.815155029296875|0.4160308837890625|140766.206465125|-2.991381597910521|-1.905203751648611|-0.9424281019373058|-0.6156406402587891|1.616014003753662|1.629569172859192|0.3699288964271545|-0.1375252604484558|0.1428091526031494|XArbitraryZVertical|-0.743808815179115|0.2078784221856949|-0.4871876130316268|0.4076559640777636|-0.5552631020545959|0.8089877963066101|0.1929299831390381|0|0|0|-1|-1|3
2021-04-22 21:57:05.597 +0100|140766.246387125|-0.679351806640625|1.104827880859375|0.487823486328125|140766.226426125|-3.047618045894237|-1.919807711593757|-0.9636116565228623|-1.651992917060852|1.52449631690979|1.476431131362915|0.08993071317672729|-0.06756532192230225|0.2073222696781158|XArbitraryZVertical|-0.7375688381205026|0.2314060770473295|-0.4899107204274359|0.4030274271680798|-0.5361597537994385|0.8212575912475586|0.1951131224632263|0|0|0|-1|-1|3
2021-04-22 21:57:05.617 +0100|140766.266348125|-0.7399749755859375|1.191253662109375|0.52197265625|140766.246387125|-3.122511746474065|-1.951853528449697|-0.9780646358200427|-1.628053069114685|1.471398234367371|1.386980175971985|-0.1370959877967834|0.2151833772659302|0.2625052034854889|XArbitraryZVertical|-0.7336223528357023|0.256273185030684|-0.4909808131258923|0.3937770833593592|-0.518559992313385|0.8294177651405334|0.2077554017305374|0|0|0|-1|-1|3
2021-04-22 21:57:05.637 +0100|140766.286309125|-0.7832489013671875|1.078765869140625|0.5391387939453125|140766.266348125|3.097778397674969|-1.975210606666268|-0.9918290963096246|-1.063735842704773|1.42314887046814|1.214383244514465|-0.2233121395111084|0.3619309067726135|0.2991837561130524|XArbitraryZVertical|-0.7282392771235587|0.278057507703197|-0.4929353396580691|0.3864797325640191|-0.5030225515365601|0.8370282053947449|0.2152968496084213|0|0|0|-1|-1|3
2021-04-22 21:57:05.657 +0100|140766.306270125|-0.7735443115234375|1.051681518554688|0.467376708984375|140766.286309125|3.048772700672715|-1.989729370085726|-1.005528675775188|-0.8928822875022888|1.22114086151123|1.107322573661804|-0.2865583002567291|0.2499146461486816|0.3333624601364136|XArbitraryZVertical|-0.7219353005867988|0.2962351698937777|-0.4954569866653591|0.3815450608222726|-0.4893216490745544|0.8444452881813049|0.2178917080163956|0|0|0|-1|-1|3
2021-04-22 21:57:05.677 +0100|140766.326231125|-0.798675537109375|0.934722900390625|0.4028778076171875|140766.306270125|3.002342295801924|-2.006652725489613|-1.018568548716463|-0.7698577046394348|1.015539765357971|1.103874325752258|-0.3038784861564636|0.212896466255188|0.2648242712020874|XArbitraryZVertical|-0.7162331188483347|0.3126447085064861|-0.4967535616537996|0.3774910829587111|-0.4755415320396423|0.8513579964637756|0.2214731872081757|0|0|0|-1|-1|3
2021-04-22 21:57:05.697 +0100|140766.346192125|-0.82342529296875|0.8154754638671875|0.3504180908203125|140766.326231125|2.96008846786654|-2.024843339994229|-1.030370857750249|-0.7718867659568787|0.7636057138442993|0.8551383018493652|-0.328522801399231|0.1219563484191895|0.1881395876407623|XArbitraryZVertical|-0.7113388958787039|0.3268465947800653|-0.4970130268879219|0.3743615223874004|-0.462371826171875|0.8574898838996887|0.2256634384393692|0|0|0|-1|-1|3
2021-04-22 21:57:05.717 +0100|140766.366153125|-0.895660400390625|0.892303466796875|0.267852783203125|140766.346192125|2.91420337360632|-2.051309634518651|-1.034040661218487|-1.218993306159973|0.5369653701782227|0.5557278394699097|-0.3659992814064026|-0.03721368312835693|0.1379185914993286|XArbitraryZVertical|-0.7094176525659703|0.3389817232962956|-0.4958029866727146|0.3687784550997484|-0.4534444808959961|0.8593721985816956|0.236364021897316|0|0|0|-1|-1|3
2021-04-22 21:57:05.737 +0100|140766.386114125|-0.9416656494140625|1.060516357421875|0.1488800048828125|140766.366153125|2.855484124044973|-2.093806964045936|-1.028146593168451|-1.639851212501526|0.2685827910900116|0.3949411809444427|-0.4228211343288422|0.008081912994384766|0.03606566786766052|XArbitraryZVertical|-0.7111909994410426|0.3509666090274117|-0.49184825777921|0.3593259184480599|-0.4473733007907867|0.8563433289527893|0.257940411567688|0|0|0|-1|-1|3
2021-04-22 21:57:05.757 +0100|140766.406075125|-0.9127655029296875|1.127365112304688|0.012969970703125|140766.386114125|2.796395383936203|-2.139654198677097|-1.017702057242346|-1.451985478401184|0.1843610256910324|0.3192688822746277|-0.5037118196487427|0.1604644060134888|-0.1054857969284058|XArbitraryZVertical|-0.7144256561187003|0.3620551327501091|-0.4865828111050667|0.3489260886761317|-0.442593514919281|0.8509030938148499|0.2829758822917938|0|0|0|-1|-1|3
2021-04-22 21:57:05.777 +0100|140766.426037125|-0.8709869384765625|1.019012451171875|-0.03070068359375|140766.406075125|2.755090638748399|-2.172698965615301|-1.009038048343155|-0.8279241919517517|0.0178193561732769|0.1335934549570084|-0.4842624664306641|0.288216769695282|-0.2618430554866791|XArbitraryZVertical|-0.7170210474386594|0.3697085919918607|-0.4822570320666832|0.3415037074077472|-0.439063161611557|0.846319854259491|0.3016072511672974|0|0|0|-1|-1|3
2021-04-22 21:57:05.797 +0100|140766.445998125|-0.8384246826171875|1.026397705078125|-0.07611083984375|140766.426037125|2.736328662600806|-2.18910046515022|-1.002118522194609|-0.4795245826244354|-0.07168523222208023|-0.1191372349858284|-0.443277508020401|0.1956551074981689|-0.3370877504348755|XArbitraryZVertical|-0.7192092477437985|0.3725793504761744|-0.479778099203033|0.3372474105659861|-0.4388188421726227|0.8426137566566467|0.312154620885849|0|0|0|-1|-1|3
2021-04-22 21:57:05.817 +0100|140766.465959125|-0.777496337890625|1.127578735351562|-0.16094970703125|140766.445998125|2.729732127126752|-2.197817010245898|-0.9931672064092221|-0.3050080537796021|-0.2601708173751831|-0.4011675119400024|-0.404875248670578|0.1742947101593018|-0.3841472566127777|XArbitraryZVertical|-0.722297652639414|0.3721241814602275|-0.4779911321107455|0.3336681749179444|-0.4421717524528503|0.8377596139907837|0.3203805983066559|0|0|0|-1|-1|3
2021-04-22 21:57:05.837 +0100|140766.485920125|-0.668975830078125|1.192596435546875|-0.2965240478515625|140766.465959125|2.739327256702045|-2.197017622666244|-0.9834843153643645|0.2502025365829468|-0.4438648521900177|-0.6831619739532471|-0.3519553244113922|0.26796954870224|-0.4552290737628937|XArbitraryZVertical|-0.7262752156185968|0.3672975298725476|-0.4769395307392144|0.3318822768802587|-0.4489796459674835|0.8324331641197205|0.3247663378715515|0|0|0|-1|-1|3
2021-04-22 21:57:05.857 +0100|140766.505881125|-0.5474700927734375|1.146041870117188|-0.4880523681640625|140766.485920125|2.775845181977598|-2.177032752293353|-0.9789474866789387|1.185468077659607|-0.5892387628555298|-0.8573197722434998|-0.2321962416172028|0.3554528951644897|-0.5705329179763794|XArbitraryZVertical|-0.7292191228832454|0.3566206695659356|-0.4782649218402148|0.335147768545854|-0.4584785997867584|0.8299106359481812|0.3178776502609253|0|0|0|-1|-1|3
2021-04-22 21:57:05.877 +0100|140766.525842125|-0.3717803955078125|1.035385131835938|-0.6659698486328125|140766.505881125|2.845422868858434|-2.131804322171464|-0.9808109234697855|2.155614137649536|-0.6667794585227966|-1.155324578285217|-0.1178269982337952|0.3343799114227295|-0.7465922832489014|XArbitraryZVertical|-0.7300095658564728|0.3392433908411773|-0.4828554786262007|0.3447473593933642|-0.471071720123291|0.8309488296508789|0.2960000932216644|0|0|0|-1|-1|3
2021-04-22 21:57:05.897 +0100|140766.545803125|-0.2557830810546875|0.9215545654296875|-0.694244384765625|140766.525842125|2.95013898670452|-2.059345935128223|-0.9847672288406109|3.071969747543335|-0.7987548112869263|-1.3928142786026|0.0806725025177002|0.2317062616348267|-0.8859944343566895|XArbitraryZVertical|-0.7285787624460998|0.3145800200018372|-0.4905602065395932|0.3599490714859397|-0.4883579313755035|0.8331433534622192|0.259575217962265|0|0|0|-1|-1|3
2021-04-22 21:57:05.917 +0100|140766.565764125|-0.2382659912109375|0.8504486083984375|-0.5480499267578125|140766.545803125|3.08686523678588|-1.961885465318368|-0.9893011852814423|3.934008121490479|-0.8613893985748291|-1.38250207901001|0.2326687574386597|0.1114091873168945|-0.9116055965423584|XArbitraryZVertical|-0.7239128043029563|0.2839730526339436|-0.5001761906455267|0.3809638531357217|-0.5078009366989136|0.8356423377990723|0.2093808799982071|0|0|0|-1|-1|3
2021-04-22 21:57:05.937 +0100|140766.585725125|-0.2360687255859375|0.6768035888671875|-0.3986968994140625|140766.565764125|-3.031231798597265|-1.840521986865492|-0.9929166735441771|4.78120756149292|-0.7803578972816467|-1.203633189201355|0.2911926507949829|0.04039812088012695|-0.7293130159378052|XArbitraryZVertical|-0.7145360981915063|0.2494332208638313|-0.5107852212627084|0.4078234571780037|-0.5264995098114014|0.8376227617263794|0.1455575376749039|0|0|0|-1|-1|3
2021-04-22 21:57:05.957 +0100|140766.605686125|-0.15692138671875|0.478607177734375|-0.31597900390625|140766.585725125|-2.838882997295535|-1.693589577705233|-0.9902654701803529|5.465563774108887|-0.6858128905296326|-1.150330662727356|0.295954704284668|-0.112920880317688|-0.4919989109039307|XArbitraryZVertical|-0.6991096999780523|0.2117431299155389|-0.5225044062992822|0.4397723083989521|-0.5443382859230042|0.8361716270446777|0.06717905402183533|0|0|0|-1|-1|3
2021-04-22 21:57:05.977 +0100|140766.625647125|-0.1347808837890625|0.386474609375|-0.305328369140625|140766.605686125|-2.633091250385744|-1.538292853957382|-0.9724734160642248|5.84244441986084|-0.9918094873428345|-1.107967019081116|0.3869948387145996|-0.3058962821960449|-0.3041898012161255|XArbitraryZVertical|-0.6795916102593678|0.1703024951812878|-0.53305820732206|0.474343057151853|-0.562960147857666|0.8262814283370972|-0.0183046068996191|0|0|0|-1|-1|3
2021-04-22 21:57:05.996 +0100|140766.645608125|-0.176361083984375|0.2484130859375|-0.2028656005859375|140766.625647125|-2.4296847011621|-1.396769429965248|-0.9384556923780758|6.160079956054688|-1.461813569068909|-1.043613195419312|0.4485768675804138|-0.4027924537658691|-0.2178374528884888|XArbitraryZVertical|-0.6582279049358876|0.1247687497048234|-0.5389594732447948|0.5105797850417537|-0.5821075439453125|0.8066463470458984|-0.1023375689983368|0|0|0|-1|-1|3
2021-04-22 21:57:06.017 +0100|140766.665569125|-0.2615509033203125|0.2874908447265625|-0.1750946044921875|140766.665569125|-2.081243946836383|-1.197201074821594|-0.8334367183776756|5.730712413787842|-2.106597900390625|-0.9504530429840088|0.3903014063835144|-0.4744387865066528|0.06300646066665649|XArbitraryZVertical|-0.6136212289372465|0.02791809496047221|-0.5363859794285263|0.5787744814678203|-0.6259590983390808|0.7402463555335999|-0.2453791350126266|0|0|0|-1|-1|3
2021-04-22 21:57:06.036 +0100|140766.685530125|-0.4869232177734375|0.4545440673828125|-0.175323486328125||||||||||||||||||||||||3
2021-04-22 21:57:06.056 +0100|140766.705491125|-0.6445465087890625|0.6984405517578125|-0.34429931640625|140766.685530125|-1.942481495792391|-1.142633943868126|-0.7722256188934872|5.540740489959717|-2.403803110122681|-0.8877349495887756|0.2333887219429016|-0.3006676435470581|0.1342858076095581|XArbitraryZVertical|-0.5923152131547115|-0.02113076942167681|-0.5284397915672187|0.6078385051860269|-0.6516940593719482|0.6977313160896301|-0.2974323630332947|0|0|0|-1|-1|3
2021-04-22 21:57:06.076 +0100|140766.725452125|-0.62213134765625|0.8104248046875|-0.616119384765625|140766.705491125|-1.817006691745341|-1.10668813548012|-0.7113370038218874|5.460328578948975|-2.479474306106567|-0.5641139149665833|0.04946339130401611|-0.01455718278884888|0.06247627735137939|XArbitraryZVertical|-0.5706653548596123|-0.06931929481546037|-0.5163842629899303|0.6347309334650313|-0.677363395690918|0.6528471112251282|-0.3390717804431915|0|0|0|-1|-1|3
2021-04-22 21:57:06.096 +0100|140766.745413125|-0.5730133056640625|0.84161376953125|-0.7973785400390625|140766.725452125|-1.69705169129559|-1.080495571236177|-0.6561462277839467|5.367061614990234|-2.501897573471069|-0.02861612476408482|0.06446605920791626|0.1824121475219727|-0.1668364703655243|XArbitraryZVertical|-0.5480146731595089|-0.1145633157607973|-0.4995661265014572|0.6610514241723248|-0.6990036368370056|0.6100678443908691|-0.3731103241443634|0|0|0|-1|-1|3
2021-04-22 21:57:06.116 +0100|140766.76537425|-0.5151519775390625|0.69537353515625|-0.826507568359375|140766.745413125|-1.576059579208365|-1.059790176711398|-0.6086195619494202|5.553589820861816|-2.558608770370483|0.5452362298965454|0.1356421113014221|0.2754930853843689|-0.362065464258194|XArbitraryZVertical|-0.5242126686985901|-0.1567844545912443|-0.4768229800686009|0.6879386421937207|-0.7156294584274292|0.5717354416847229|-0.401239424943924|0|0|0|-1|-1|3
2021-04-22 21:57:06.136 +0100|140766.78533625|-0.2751617431640625|0.5705413818359375|-0.9098052978515625|140766.76537425|-1.449239958628067|-1.039087346972064|-0.5661625425772|5.672307014465332|-2.370423793792725|1.014996290206909|0.188202977180481|0.2152045965194702|-0.3887224197387695|XArbitraryZVertical|-0.4975380141322139|-0.196233554477937|-0.4486506921808511|0.7160035455015147|-0.7274494171142578|0.5363973379135132|-0.4278966188430786|0|0|0|-1|-1|3
2021-04-22 21:57:06.156 +0100|140766.80529725|-0.016571044921875|0.5771026611328125|-1.031524658203125|140766.78533625|-1.323460205783292|-1.017654010351486|-0.5308751506204201|5.31843090057373|-2.077848434448242|1.521148324012756|0.3793806433677673|0.06890684366226196|-0.4183126389980316|XArbitraryZVertical|-0.4696061079666063|-0.23009279996994|-0.4170218270077665|0.7433843613461548|-0.7337667942047119|0.5062882304191589|-0.453054815530777|0|0|0|-1|-1|3
2021-04-22 21:57:06.176 +0100|140766.82525825|0.2328033447265625|0.357025146484375|-1.019454956054688|140766.80529725|-1.19937379755297|-0.9973638410794888|-0.5040410568063246|5.288488388061523|-2.057701826095581|1.913531899452209|0.6719901561737061|0.09485176205635071|-0.5473031401634216|XArbitraryZVertical|-0.4421810911234738|-0.2587486565544847|-0.3815406234338033|0.7693841239788439|-0.7355743050575256|0.4829679727554321|-0.4750500321388245|0|0|0|-1|-1|3
2021-04-22 21:57:06.196 +0100|140766.84521925|0.3355865478515625|0.1585845947265625|-1.153182983398438|140766.82525825|-1.076019172948647|-0.9798103364464552|-0.4794379747517247|5.094871997833252|-1.972907781600952|2.017257690429688|0.8952915668487549|-0.01381659507751465|-0.5262073874473572|XArbitraryZVertical|-0.4141302089499956|-0.2851594900500204|-0.3432873380257065|0.7933058967907944|-0.7367687225341797|0.4612805843353271|-0.494360476732254|0|0|0|-1|-1|3
2021-04-22 21:57:06.216 +0100|140766.86518025|-0.0528411865234375|0.2020416259765625|-1.431808471679688|140766.84521925|-0.9617443644472886|-0.9656752275298538|-0.4588741435768549|4.525914669036865|-1.823054790496826|2.010032176971436|1.098711967468262|-0.2894659340381622|-0.5838418006896973|XArbitraryZVertical|-0.3877186768112591|-0.3076804058550872|-0.3053194840473229|0.8135030405001947|-0.737354040145874|0.4429390132427216|-0.5100139975547791|0|0|0|-1|-1|3
2021-04-22 21:57:06.236 +0100|140766.88514125|-0.494476318359375|0.0573883056640625|-1.688873291015625|140766.86518025|-0.8566376609241652|-0.9554584407546283|-0.4370263994212563|4.583622932434082|-1.671984434127808|1.564622759819031|0.798348605632782|-0.2097917795181274|-0.829555332660675|XArbitraryZVertical|-0.3615363583164188|-0.3283292632144585|-0.2694066917579593|0.8300070010041956|-0.739831805229187|0.423247218132019|-0.5229827165603638|0|0|0|-1|-1|3
2021-04-22 21:57:06.256 +0100|140766.90510225|-0.91900634765625|-0.198516845703125|-1.80828857421875|140766.88514125|-0.7574994500570283|-0.9440565095789204|-0.4028036227006039|4.759713172912598|-1.208160638809204|0.8859374523162842|0.3655423521995544|-0.2846379280090332|-1.084410071372986|XArbitraryZVertical|-0.3302694510355075|-0.3480499797545996|-0.2381566910833617|0.8444316863650658|-0.745120644569397|0.3919991254806519|-0.5395665764808655|0|0|0|-1|-1|3
2021-04-22 21:57:06.276 +0100|140766.92506325|-1.246627807617188|-0.5760955810546875|-1.866561889648438|140766.90510225|-0.6698881675731945|-0.9294842951145429|-0.3543128635893221|4.636884212493896|-0.5583915710449219|-0.04618002846837044|-0.06373947858810425|-0.4672763347625732|-1.225822687149048|XArbitraryZVertical|-0.2938071871300674|-0.3648748862086915|-0.2146564926183945|0.8570102109149721|-0.7515382766723633|0.3469460010528564|-0.5610873103141785|0|0|0|-1|-1|3
2021-04-22 21:57:06.296 +0100|140766.94502425|-1.648422241210938|-0.7317962646484375|-1.962127685546875|140766.92506325|-0.6039116262167427|-0.9110367790134651|-0.290326633779155|4.204370975494385|0.3073732554912567|-1.26029896736145|-0.4164204001426697|-0.7730811238288879|-1.251025438308716|XArbitraryZVertical|-0.2534800953745187|-0.3769744754213907|-0.2034972732532868|0.867310231366782|-0.7570726275444031|0.2862651944160461|-0.5872761607170105|0|0|0|-1|-1|3
2021-04-22 21:57:06.316 +0100|140766.96498525|-2.234237670898438|-0.9726409912109375|-1.911865234375|140766.94502425|-0.5645439989377125|-0.887085889023651|-0.2137163490886476|3.535839557647705|1.061660408973694|-2.397293090820312|-0.7695487141609192|-0.9288895130157471|-1.289815902709961|XArbitraryZVertical|-0.2113730383356006|-0.3829751693852231|-0.2061923970342287|0.8752920796041611|-0.7575972676277161|0.2120931595563889|-0.6173028945922852|0|0|0|-1|-1|3
2021-04-22 21:57:06.336 +0100|140766.98494625|-3.317184448242188|-1.563720703125|-1.614120483398438|140766.96498525|-0.5573559484211511|-0.8567152816231389|-0.1260094801811929|2.554183721542358|1.837303638458252|-3.986400127410889|-1.290351271629333|-1.014820694923401|-1.265002489089966|XArbitraryZVertical|-0.1691019431826166|-0.3828044312333201|-0.2245897906454849|0.8800141562755577|-0.7497037649154663|0.1256762742996216|-0.6497306227684021|0|0|0|-1|-1|3
2021-04-22 21:57:06.356 +0100|140767.00490725|-4.491470336914062|-1.924468994140625|-0.7281494140625|140766.98494625|-0.6024819112569607|-0.8117852479547291|-0.03568660215077404|-0.1474392265081406|3.050409317016602|-5.796295166015625|-2.298047542572021|-1.431781530380249|-1.040351986885071|XArbitraryZVertical|-0.1327867380930526|-0.3721352035287225|-0.2658272603346648|0.8793287438264255|-0.7250550389289856|0.03567902743816376|-0.6877661347389221|0|0|0|-1|-1|3
2021-04-22 21:57:06.376 +0100|140767.02486825|-5.1419677734375|-0.9392547607421875|1.039230346679688|140767.00490725|-0.7305431558452623|-0.7389030103794595|0.01793435856194263|-5.428219318389893|4.176655769348145|-6.861291885375977|-3.509752511978149|-1.928584218025208|-0.3020021915435791|XArbitraryZVertical|-0.1211718877649698|-0.3402541824329949|-0.3361119169638034|0.8698122053742808|-0.6733691096305847|-0.01793339662253857|-0.7390889525413513|0|0|0|-1|-1|3
2021-04-22 21:57:06.396 +0100|140767.04482925|-3.947662353515625|0.5446014404296875|2.3963623046875|140767.02486825|-0.933760163221744|-0.6381093703803162|-0.02616278186289175|-10.53286647796631|5.965522289276123|-5.705429553985596|-4.601151466369629|-1.32295835018158|1.403321504592896|XArbitraryZVertical|-0.1522626688343586|-0.2744846347634344|-0.4236862972210431|0.8496848122428186|-0.5954740643501282|0.02615979686379433|-0.802948534488678|0|0|0|-1|-1|3
2021-04-22 21:57:06.416 +0100|140767.06479025|-2.553115844726562|1.363937377929688|1.800399780273438|140767.04482925|-1.135416811006583|-0.5183159729573013|-0.1770100990086685|-12.69248676300049|7.880697727203369|-2.525085926055908|-3.791071653366089|-0.002991542220115662|3.115183591842651|XArbitraryZVertical|-0.2092912936961311|-0.1692818145776197|-0.4986129731169449|0.8239697743512914|-0.4876769185066223|0.1760871857404709|-0.8550816178321838|0|0|0|-1|-1|3
2021-04-22 21:57:06.436 +0100|140767.08475125|-1.823974609375|-0.67620849609375|1.128189086914062|140767.06479025|-1.278823264486814|-0.3893931335374337|-0.4094312181287634|-14.38633060455322|8.638018608093262|0.1097334921360016|-2.511034727096558|0.9894854426383972|3.276088714599609|XArbitraryZVertical|-0.273083030356928|-0.03299152892186649|-0.541664039747894|0.794315690243942|-0.3482498824596405|0.3980876207351685|-0.8486744165420532|0|0|0|-1|-1|3
2021-04-22 21:57:06.456 +0100|140767.10471225|-2.127700805664062|-0.0163421630859375|3.529022216796875|140767.08475125|-1.3706928016444|-0.2851520174371998|-0.7092361169407028|-17.17013359069824|6.147980213165283|2.160608530044556|-1.634828448295593|-0.7433870434761047|1.593984603881836|XArbitraryZVertical|-0.3504402269472153|0.1143835801422296|-0.5493378358518382|0.7498908286638827|-0.2134697586297989|0.6512542963027954|-0.7282161116600037|0|0|0|-1|-1|3
2021-04-22 21:57:06.475 +0100|140767.12467425|-1.080047607421875|3.199661254882812|1.260787963867188|140767.10471225|-1.416786376705131|-0.2153214286402465|-1.101204219713202|-20.93743133544922|5.226139545440674|5.015678882598877|-2.020227193832397|-1.808333158493042|3.47919750213623|XArbitraryZVertical|-0.4546005810624311|0.2688899285595758|-0.5085561769703653|0.6800053725158508|-0.09668667614459991|0.8917529582977295|-0.4420730471611023|0|0|0|-1|-1|3
2021-04-22 21:57:06.495 +0100|140767.14463525|-0.5948944091796875|1.75933837890625|-0.175201416015625|140767.12467425|-0.9709438634834117|0.3268003513697121|-1.473164344221528|-14.90332221984863|4.137020587921143|4.744019031524658|-1.482388496398926|1.854615926742554|2.125354290008545|XArbitraryZVertical|-0.5299970479864099|0.4158649237816302|-0.4377087141626302|0.5954583925259691|0.03129186481237411|0.9952377676963806|-0.09231898933649063|0|0|0|-1|-1|3
2021-04-22 21:57:06.515 +0100|140767.16459625|-1.376052856445312|0.4930267333984375|0.1685638427734375|140767.14463525|1.02866036892425|2.367574039036073|-1.401778908571677|-6.487039089202881|1.013824224472046|4.557298183441162|-0.4945390224456787|1.306333541870117|-0.108863353729248|XArbitraryZVertical|-0.5600839222172029|0.4964392917968301|-0.3780335017538|0.5449265142378554|0.1175848916172981|0.9857505559921265|0.1202919408679008|0|0|0|-1|-1|3
2021-04-22 21:57:06.535 +0100|140767.18455725|-0.6362457275390625|0.08697509765625|0.55047607421875|140767.16459625|1.010322735085453|2.374947546370082|-1.28891955555581|-1.841904044151306|1.50926661491394|3.236979007720947|-1.669956088066101|-0.16562819480896|-0.1309755146503448|XArbitraryZVertical|-0.5554279750845953|0.5400654456081253|-0.3428802440232743|0.5312835981002391|0.1929652690887451|0.9605351090431213|0.2003418356180191|0|0|0|-1|-1|3
2021-04-22 21:57:06.556 +0100|140767.20451825|-0.5523681640625|-0.1464385986328125|0.9961395263671875|140767.18455725|0.903684124717669|2.304864666011919|-1.248336758450031|1.174712300300598|1.495331764221191|2.003293991088867|-0.9982861876487732|-0.8275782465934753|0.219243049621582|XArbitraryZVertical|-0.5373449119636928|0.5633877261921656|-0.3364878301908933|0.5297459880608049|0.2352847307920456|0.9484588503837585|0.2122905701398849|0|0|0|-1|-1|3
2021-04-22 21:57:06.575 +0100|140767.22447925|-0.4617462158203125|-0.1990203857421875|1.116806030273438|140767.20451825|0.7418861503531448|2.177191767919515|-1.250751185426112|2.618632078170776|1.109878301620483|0.9875614047050476|-0.8057900667190552|-1.048463940620422|0.7357091903686523|XArbitraryZVertical|-0.5133842898583385|0.571039510488301|-0.3470909695672849|0.5384036026788963|0.2585173547267914|0.9492211937904358|0.1792991012334824|0|0|0|-1|-1|3
2021-04-22 21:57:06.595 +0100|140767.24444025|-0.25103759765625|-0.019134521484375|1.109161376953125|140767.22447925|0.5850980671027589|2.048531737967761|-1.26876683050843|2.284988880157471|0.9886252880096436|-0.01303361542522907|-0.7762869000434875|-1.157828688621521|0.9697281122207642|XArbitraryZVertical|-0.4933912910577852|0.5700406733105108|-0.3641091795749965|0.5468486077306401|0.2641552984714508|0.954734742641449|0.1367626637220383|0|0|0|-1|-1|3
2021-04-22 21:57:06.615 +0100|140767.26440125|-0.0883636474609375|0.13153076171875|1.052581787109375|140767.24444025|0.4727703590464057|1.959773204728152|-1.293424644448566|1.735909581184387|0.8914534449577332|-0.8786906003952026|-0.5541558861732483|-1.042161345481873|1.016223549842834|XArbitraryZVertical|-0.481571899502805|0.5656963089820826|-0.3823506501919123|0.5494400377600552|0.2533737421035767|0.961778461933136|0.1038476154208183|0|0|0|-1|-1|3
2021-04-22 21:57:06.635 +0100|140767.28436225|0.058685302734375|0.24749755859375|0.943939208984375|140767.26440125|0.3860183598872087|1.892260549005444|-1.329464405880966|1.625800609588623|0.7377551794052124|-1.706432700157166|-0.3534948825836182|-0.859081506729126|0.9837826490402222|XArbitraryZVertical|-0.4765133247198647|0.5573969863228855|-0.4027775485325565|0.5477355005222831|0.2267545014619827|0.971020519733429|0.07551269978284836|0|0|0|-1|-1|3
2021-04-22 21:57:06.655 +0100|140767.30432325|0.1270294189453125|0.4830474853515625|0.8060760498046875|140767.28436225|0.3045337425645586|1.825581138435412|-1.377204711948314|1.416029810905457|0.5518578290939331|-2.336983203887939|-0.1619599163532257|-0.7764700055122375|0.9297218322753906|XArbitraryZVertical|-0.4767765576183668|0.5449112283055394|-0.4253441331033152|0.5429902100632824|0.1861747056245804|0.9813196063041687|0.04848826676607132|0|0|0|-1|-1|3
2021-04-22 21:57:06.675 +0100|140767.32428425|0.0972747802734375|0.715179443359375|0.6753082275390625|140767.30432325|0.2104317850102002|1.74223543057887|-1.432854408748153|1.315027952194214|0.4060071110725403|-2.74330735206604|-0.01390942931175232|-0.570334792137146|0.8206877708435059|XArbitraryZVertical|-0.4811482189016657|0.5293635005773845|-0.4486200909221475|0.5357339654130135|0.1354904919862747|0.9905011057853699|0.02345864847302437|0|0|0|-1|-1|3
2021-04-22 21:57:06.695 +0100|140767.34424525|0.10687255859375|0.9172210693359375|0.5915679931640625|140767.32428425|0.0039260363611337|1.54442831325225|-1.491847490018306|1.327777028083801|0.3766933679580688|-2.920135021209717|0.02625913172960281|-0.341855525970459|0.7098731994628906|XArbitraryZVertical|-0.4871682309582623|0.5114952725761075|-0.472474955514822|0.5270743390290354|0.07884249091148376|0.9968851804733276|-0.002079401863738894|0|0|0|-1|-1|3
2021-04-22 21:57:06.715 +0100|140767.36420625|0.1572113037109375|1.024765014648438|0.49151611328125|140767.34424525|-0.9077718399953452|0.6418423478843346|-1.536248750824182|1.213220238685608|0.4247793853282928|-2.893568992614746|0.07966068387031555|-0.1291791796684265|0.6259351968765259|XArbitraryZVertical|-0.4930860081031987|0.4929824226321152|-0.4962211223951301|0.5172999246657066|0.02068015560507774|0.9994032979011536|-0.0276690386235714|0|0|0|-1|-1|3
2021-04-22 21:57:06.735 +0100|140767.38416725|0.2686004638671875|1.186859130859375|0.343841552734375|140767.36420625|-2.192941047146728|-0.6343909001458303|-1.510109504513491|0.9266111254692078|0.3628062903881073|-2.810800552368164|0.1744816899299622|-0.002187371253967285|0.5587695240974426|XArbitraryZVertical|-0.4994635359246349|0.4755105901895237|-0.5178897958540751|0.506178047601868|-0.03594809398055077|0.9981591105461121|-0.04885170981287956|0|0|0|-1|-1|3
2021-04-22 21:57:06.755 +0100|140767.40412825|0.310211181640625|1.323089599609375|0.229888916015625|140767.38416725|-2.498612055035715|-0.9333173083368398|-1.459272253297771|0.8590810298919678|0.1963751018047333|-2.582798719406128|0.3333155810832977|0.1525135636329651|0.4634093046188354|XArbitraryZVertical|-0.5062951185463201|0.4588528008285009|-0.5368426765461889|0.4948932782583991|-0.08943531662225723|0.9937876462936401|-0.06623872369527817|0|0|0|-1|-1|3
2021-04-22 21:57:06.775 +0100|140767.42408925|0.16766357421875|1.32867431640625|0.162933349609375|140767.40412825|-2.584547860763802|-1.016141393706972|-1.408388184048837|0.994030237197876|0.03319277241826057|-2.269155979156494|0.4474515020847321|0.3126128911972046|0.3249334096908569|XArbitraryZVertical|-0.511998351452677|0.4419039245340648|-0.5536093333275798|0.4858965704674443|-0.1374549269676208|0.9868407845497131|-0.08515721559524536|0|0|0|-1|-1|3
2021-04-22 21:57:06.795 +0100|140767.44405025|0.0789337158203125|1.372711181640625|0.038238525390625|140767.42408925|-2.619683317406318|-1.051384028280955|-1.363863121010422|0.6533317565917969|-0.05650478228926659|-1.907861828804016|0.3952954709529877|0.3554865121841431|0.2906283140182495|XArbitraryZVertical|-0.5170556749494797|0.4262174285434105|-0.5671922304330316|0.4788374000515685|-0.1783622354269028|0.9786655902862549|-0.1019842624664307|0|0|0|-1|-1|3
2021-04-22 21:57:06.815 +0100|140767.46401225|0.15875244140625|1.500259399414062|-0.1259765625|140767.44405025|-2.667500296060584|-1.098369664160143|-1.328613267925958|0.1391072422266006|0.002563490532338619|-1.728809595108032|0.2841864228248596|0.3767325282096863|0.1740110516548157|XArbitraryZVertical|-0.522982531062768|0.4146368436902924|-0.5772135974045178|0.4705211592223899|-0.2135544419288635|0.9708167314529419|-0.1091311201453209|0|0|0|-1|-1|3
2021-04-22 21:57:06.835 +0100|140767.48397325|0.2107086181640625|1.525955200195312|-0.321136474609375|140767.46401225|-2.721656656178857|-1.151852662238689|-1.298715096998263|-0.05151055753231049|-0.1282797902822495|-1.555597543716431|0.3868379592895508|0.5089389085769653|0.03023451566696167|XArbitraryZVertical|-0.5299429212689012|0.4055858616777489|-0.5846834273415497|0.4613091307207917|-0.2454967647790909|0.9632136821746826|-0.1093212217092514|0|0|0|-1|-1|3
2021-04-22 21:57:06.855 +0100|140767.50393425|0.244476318359375|1.415130615234375|-0.3492431640625|140767.48397325|-2.763499655480135|-1.195849523808775|-1.271982889288734|0.01343292370438576|-0.2720260918140411|-1.373574495315552|0.471153736114502|0.5746172070503235|-0.1733018755912781|XArbitraryZVertical|-0.5370538247537694|0.3970737927636789|-0.5902290759362688|0.4533600280879793|-0.2739347815513611|0.9556864500045776|-0.1078111827373505|0|0|0|-1|-1|3
2021-04-22 21:57:06.875 +0100|140767.52389525|0.1854400634765625|1.3760986328125|-0.3959503173828125|140767.50393425|-2.787163231602485|-1.225631011471112|-1.248268026065274|0.1289701759815216|-0.4666560888290405|-1.070045709609985|0.5444709062576294|0.4984011054039001|-0.2449575662612915|XArbitraryZVertical|-0.5437008811853312|0.388286299795992|-0.5941565295230149|0.447885411191239|-0.2982713282108307|0.9484370946884155|-0.1072462052106857|0|0|0|-1|-1|3
2021-04-22 21:57:06.895 +0100|140767.54385625|0.22607421875|1.272491455078125|-0.553497314453125|140767.52389525|-2.800080668171974|-1.24791850125453|-1.23054447998211|0.09361333400011063|-0.5198321342468262|-0.8041747212409973|0.5075042247772217|0.4375324249267578|-0.270239531993866|XArbitraryZVertical|-0.549769675184245|0.3805368631348637|-0.5958016727733622|0.4449332791870488|-0.3164803683757782|0.9426706433296204|-0.1058899983763695|0|0|0|-1|-1|3
2021-04-22 21:57:06.915 +0100|140767.56381725|0.240386962890625|1.193649291992188|-0.6976470947265625|140767.54385625|-2.800372971437937|-1.259082415084661|-1.214712273824693|0.4467938244342804|-0.5792453289031982|-0.7275329232215881|0.5485878586769104|0.3731095790863037|-0.4191480278968811|XArbitraryZVertical|-0.5547781577314432|0.3725104339916824|-0.597055713899563|0.4438262019793283|-0.3318071663379669|0.9372691512107849|-0.1069143414497375|0|0|0|-1|-1|3
2021-04-22 21:57:06.935 +0100|140767.58377825|0.2729644775390625|1.07891845703125|-0.59942626953125|140767.56381725|-2.787380721887185|-1.258435792837479|-1.199329168914316|0.474627673625946|-0.5386115312576294|-0.603094220161438|0.5799300670623779|0.282925546169281|-0.56861412525177|XArbitraryZVertical|-0.5586209349789623|0.3635508861683615|-0.5984707710965635|0.4445292021563889|-0.3454186320304871|0.9317957758903503|-0.1115468069911003|0|0|0|-1|-1|3
2021-04-22 21:57:06.955 +0100|140767.60373925|0.2287445068359375|0.8562774658203125|-0.359100341796875|140767.58377825|-2.76490307062518|-1.249601534147436|-1.184655101356739|0.7086374163627625|-0.6883728504180908|-0.5557746887207031|0.6411685943603516|0.1793280243873596|-0.5309741497039795|XArbitraryZVertical|-0.5614890453937357|0.3539506067467142|-0.5998629692518779|0.4467812077988432|-0.3573560118675232|0.9263692498207092|-0.1188980415463448|0|0|0|-1|-1|3
2021-04-22 21:57:06.975 +0100|140767.62370025|0.1735687255859375|0.7020263671875|-0.129547119140625|140767.60373925|-2.742095502527333|-1.243722125889118|-1.169974275992708|0.5675384402275085|-0.8628367185592651|-0.5602235794067383|0.6030715703964233|-0.009348690509796143|-0.294920027256012|XArbitraryZVertical|-0.5650805620501393|0.3435220176042318|-0.6003415335043742|0.4497407322246036|-0.3694909811019897|0.92074054479599|-0.1253531575202942|0|0|0|-1|-1|3
2021-04-22 21:57:06.995 +0100|140767.64366125|0.0710906982421875|0.6551055908203125|-0.2902984619140625|140767.62370025|-2.729881898719677|-1.252817320630897|-1.155624931557027|0.3461582064628601|-1.177131175994873|-0.671486496925354|0.5804986953735352|-0.1768882274627686|-0.04488475620746613|XArbitraryZVertical|-0.5711478115055155|0.3327722915602617|-0.5988419497818733|0.452151943850984|-0.3831272721290588|0.9150472283363342|-0.1261055618524551|0|0|0|-1|-1|3
2021-04-22 21:57:07.014 +0100|140767.66362225|0.1551971435546875|0.5084381103515625|-0.4808807373046875|140767.64366125|-2.728673121025318|-1.278973660322988|-1.13962089139573|0.3795804679393768|-1.534829139709473|-0.9165459275245667|0.4888759255409241|-0.258527398109436|-0.09367286413908005|XArbitraryZVertical|-0.5805597499005856|0.3206714734731448|-0.5952786929410946|0.4536116446750106|-0.4002690613269806|0.9084751009941101|-0.1202403679490089|0|0|0|-1|-1|3
2021-04-22 21:57:07.034 +0100|140767.68358325|0.158966064453125|0.368316650390625|-0.2045745849609375|140767.66362225|-2.707175783322014|-1.293060781419798|-1.111893144411148|1.160002112388611|-1.848840832710266|-1.475295186042786|0.5515235662460327|-0.3281340599060059|-0.3918542265892029|XArbitraryZVertical|-0.5904518975986308|0.3010659724879579|-0.5935293521672806|0.4565620904300431|-0.4259904325008392|0.8965389132499695|-0.1214516758918762|0|0|0|-1|-1|3
2021-04-22 21:57:07.054 +0100|140767.70354425|0.142669677734375|0.63592529296875|-0.208770751953125|140767.68358325|-2.679748793846724|-1.309787804067379|-1.074457065055815|0.9598534107208252|-2.211121559143066|-1.711267709732056|0.635998547077179|-0.5182329416275024|-0.1519988775253296|XArbitraryZVertical|-0.6022809590447646|0.2753424042972236|-0.5919603752868307|0.4593770854575773|-0.4600809514522552|0.8793317079544067|-0.1228884160518646|0|0|0|-1|-1|3
2021-04-22 21:57:07.074 +0100|140767.72350525|0.188995361328125|0.803192138671875|-0.0632781982421875|140767.70354425|-2.654845212112339|-1.334522161188647|-1.036861671451262|1.472180247306824|-2.483889818191528|-1.675450563430786|0.6206539273262024|-0.3015007972717285|-0.09423375129699707|XArbitraryZVertical|-0.6154779806502337|0.248237428321199|-0.5882990397015047|0.462027589853482|-0.4947851300239563|0.8608112931251526|-0.1191300675272942|0|0|0|-1|-1|3
2021-04-22 21:57:07.094 +0100|140767.74346625|0.1774444580078125|0.7652130126953125|0.0878143310546875|140767.72350525|-2.583630979138138|-1.330066609686341|-0.991915847354237|3.23291015625|-3.123714923858643|-1.791905283927917|0.7280727624893188|-0.04857820272445679|0.02806055545806885|XArbitraryZVertical|-0.6248691044635629|0.2105295270370093|-0.5844618251467328|0.4728852028455702|-0.5313116908073425|0.8370756506919861|-0.1304318457841873|0|0|0|-1|-1|3
2021-04-22 21:57:07.114 +0100|140767.763426875|0.0807952880859375|0.8133392333984375|0.212799072265625|140767.74346625|-2.46596888763234|-1.301615360991099|-0.9384948521473276|4.531299591064453|-3.775269269943237|-1.664419889450073|0.7413656711578369|-0.02380257844924927|0.1926339864730835|XArbitraryZVertical|-0.6290448248642844|0.1603631458647114|-0.5786947113692369|0.4936586666338322|-0.5697205066680908|0.8066694736480713|-0.1571725457906723|0|0|0|-1|-1|3
2021-04-22 21:57:07.134 +0100|140767.783387875|-0.18536376953125|1.080612182617188|0.1114349365234375|140767.763426875|-2.336095351258488|-1.282687851532909|-0.883724743263933|4.54576587677002|-4.606711864471436|-1.356894373893738|0.7360925078392029|0.002130746841430664|0.3910382986068726|XArbitraryZVertical|-0.6318426542977431|0.1032642137101847|-0.5661035431612863|0.5192671564318473|-0.6081333160400391|0.7731067538261414|-0.1802227199077606|0|0|0|-1|-1|3
2021-04-22 21:57:07.154 +0100|140767.803349875|-0.541748046875|1.258514404296875|-0.081634521484375|140767.783387875|-2.212534238113664|-1.287715725292363|-0.8362626009559743|4.565299034118652|-5.224255561828613|-0.9302958846092224|0.5277350544929504|0.2706276774406433|0.3204637765884399|XArbitraryZVertical|-0.6359310158722603|0.04458163250004448|-0.5442344844350849|0.5453560286754249|-0.6435654759407043|0.7421433329582214|-0.1872084438800812|0|0|0|-1|-1|3
2021-04-22 21:57:07.174 +0100|140767.823310875|-0.854949951171875|1.314483642578125|-0.3726806640625|140767.803349875|-2.087237085438547|-1.303408176975924|-0.7972211078783737|4.833415985107422|-5.407686233520508|-0.4886784255504608|0.2287996411323547|0.5052242279052734|0.1603594571352005|XArbitraryZVertical|-0.6383464478531473|-0.01453313796981242|-0.5147991388766601|0.5720878898045141|-0.6738688945770264|0.7154172658920288|-0.1846051961183548|0|0|0|-1|-1|3
2021-04-22 21:57:07.194 +0100|140767.843271875|-1.038726806640625|1.374496459960938|-0.69354248046875|140767.823310875|-1.953828086367082|-1.316106287096475|-0.7660565311768039|5.072550773620605|-5.247158050537109|-0.07635018229484558|-0.09034782648086548|0.6234273314476013|-0.1163474172353745|XArbitraryZVertical|-0.6355945410834121|-0.07236908952351655|-0.4802972537800413|0.6000807711947841|-0.6974032521247864|0.6932987570762634|-0.1815645843744278|0|0|0|-1|-1|3
2021-04-22 21:57:07.214 +0100|140767.863232875|-1.154571533203125|1.4991455078125|-0.9781341552734375|140767.843271875|-1.819048377132859|-1.325001129764058|-0.7453575126924101|4.978771686553955|-4.897889137268066|0.507866382598877|-0.3011271357536316|0.6757688522338867|-0.4278193712234497|XArbitraryZVertical|-0.6284195892192976|-0.1252385100812418|-0.4420048189355366|0.6277228096137346|-0.7127591371536255|0.6782345771789551|-0.1788082718849182|0|0|0|-1|-1|3
2021-04-22 21:57:07.234 +0100|140767.883193875|-1.366973876953125|1.568084716796875|-1.19769287109375|140767.863232875|-1.684066878870131|-1.328574311319146|-0.7370909014410369|4.958141803741455|-4.556581497192383|1.130191802978516|-0.3957515954971313|0.7998628616333008|-0.7339295744895935|XArbitraryZVertical|-0.6179225239225412|-0.1713831861711956|-0.4000205446236178|0.6548154042403048|-0.718812108039856|0.6721367835998535|-0.1775991171598434|0|0|0|-1|-1|3
2021-04-22 21:57:07.254 +0100|140767.903154875|-1.5712890625|1.428085327148438|-1.362991333007812|140767.883193875|-1.542353493771356|-1.319129285931968|-0.7405873993502926|5.170520305633545|-4.00150728225708|1.740236520767212|-0.5958474278450012|0.891196072101593|-0.9612551331520081|XArbitraryZVertical|-0.6032206106428829|-0.2103043667763952|-0.3544430479986585|0.6828375873005028|-0.7148221731185913|0.6747215986251831|-0.1837939321994781|0|0|0|-1|-1|3
2021-04-22 21:57:07.274 +0100|140767.923115875|-1.67779541015625|1.256744384765625|-1.490768432617188|140767.903154875|-1.390094875942561|-1.288554226215568|-0.7504886271113554|5.329326152801514|-3.276305675506592|2.107329368591309|-0.8214315176010132|0.8005627393722534|-1.132277250289917|XArbitraryZVertical|-0.5829390769057671|-0.2415309113699773|-0.3073475739658509|0.7123077812499983|-0.7024185061454773|0.68199622631073|-0.2036897093057632|0|0|0|-1|-1|3
2021-04-22 21:57:07.294 +0100|140767.943076875|-1.760177612304688|1.105667114257812|-1.697891235351562|140767.923115875|-1.234642986766235|-1.239645378361168|-0.7608293862551891|5.137175559997559|-2.517271041870117|2.249449491500854|-0.9727705717086792|0.5940468907356262|-1.212546110153198|XArbitraryZVertical|-0.5586648389206634|-0.264863980449296|-0.2616128888955161|0.741147447991666|-0.6849143505096436|0.689522385597229|-0.2354813367128372|0|0|0|-1|-1|3
2021-04-22 21:57:07.314 +0100|140767.963037875|-1.785247802734375|1.037887573242188|-1.916030883789062|140767.943076875|-1.083438291227606|-1.178352956697037|-0.7658629236896408|4.912375450134277|-1.803736686706543|2.034099578857422|-1.074230909347534|0.4560869932174683|-1.368898630142212|XArbitraryZVertical|-0.5319288183220853|-0.2814617375425673|-0.2197327466942597|0.7678207419773324|-0.6659886837005615|0.6931592226028442|-0.2756620347499847|0|0|0|-1|-1|3
2021-04-22 21:57:07.334 +0100|140767.982998875|-1.790176391601562|1.230514526367188|-2.324920654296875|140767.963037875|-0.9434194510128067|-1.109110260554402|-0.7611810875449472|4.480274200439453|-0.9352233409881592|1.731443524360657|-1.132619857788086|0.3328823447227478|-1.528231143951416|XArbitraryZVertical|-0.5034661649878925|-0.291994958956712|-0.1844261837436156|0.7919897567586003|-0.6482186913490295|0.6897770762443542|-0.3225215375423431|0|0|0|-1|-1|3
2021-04-22 21:57:07.354 +0100|140768.002959875|-1.72021484375|1.073272705078125|-2.550521850585938|140767.982998875|-0.8160422693001026|-1.029902737218929|-0.7452495177526091|4.61345911026001|0.1937699317932129|1.258271098136902|-1.159680247306824|0.5125494003295898|-1.829015493392944|XArbitraryZVertical|-0.4728451849299515|-0.2953163969667987|-0.1570589219356663|0.8151921403402794|-0.630008339881897|0.6781551837921143|-0.3784113228321075|0|0|0|-1|-1|3
2021-04-22 21:57:07.374 +0100|140768.022920875|-1.464309692382812|0.095916748046875|-2.340408325195312|140768.002959875|-0.6956640802905563|-0.932092597929056|-0.7044777109965272|5.115016460418701|1.69047486782074|0.2497922480106354|-1.133386731147766|0.5219658017158508|-2.07977032661438|XArbitraryZVertical|-0.4335133309975556|-0.2914549250371973|-0.1400679581730323|0.8411309412893897|-0.6117461919784546|0.6476359367370605|-0.4542404413223267|0|0|0|-1|-1|3
2021-04-22 21:57:07.394 +0100|140768.042881875|-1.84686279296875|-1.902542114257812|-1.580551147460938|140768.022920875|-0.6069603762080299|-0.823490434769009|-0.6320572391224879|4.686019897460938|3.735559940338135|-1.590820550918579|-0.916363000869751|-0.1399844288825989|-1.885702610015869|XArbitraryZVertical|-0.3854805134175347|-0.2778905517172669|-0.1416055826254151|0.8684064427820878|-0.5918163061141968|0.5908058285713196|-0.548363208770752|0|0|0|-1|-1|3
2021-04-22 21:57:07.414 +0100|140768.062842875|-3.990646362304688|-2.739028930664062|-0.1910858154296875|140768.042881875|-0.5964237488417578|-0.716128825732629|-0.5395154305961446|2.170874118804932|6.400327682495117|-4.422369956970215|-1.046640872955322|-1.850572824478149|-1.157453298568726|XArbitraryZVertical|-0.3378254156496265|-0.2495448578774626|-0.175950238356981|0.8903049304554834|-0.5632229447364807|0.5137203335762024|-0.647202730178833|0|0|0|-1|-1|3
2021-04-22 21:57:07.434 +0100|140768.082803875|-4.30255126953125|-0.1624908447265625|1.65643310546875|140768.062842875|-0.712371883728439|-0.6105253696296978|-0.4878901671772752|-5.228995800018311|10.0733585357666|-6.586538791656494|-3.042649984359741|-3.480512142181396|0.06659924983978271|XArbitraryZVertical|-0.3176043266458016|-0.1930107035899095|-0.2546992192498151|0.8927501464913362|-0.5064077973365784|0.4687632620334625|-0.7237487435340881|0|0|0|-1|-1|3
2021-04-22 21:57:07.454 +0100|140768.102764875|-7.222732543945312|0.3477325439453125|4.81903076171875|140768.082803875|-0.9420508699058676|-0.4926680111465255|-0.559138052150097|-10.16931533813477|12.26100444793701|-6.170222282409668|-3.698813199996948|-1.207686424255371|1.863490700721741|XArbitraryZVertical|-0.3448324403057171|-0.08741700931383202|-0.3630532704690714|0.8611860483486582|-0.4009497165679932|0.5304557085037231|-0.7468976974487305|0|0|0|-1|-1|3
2021-04-22 21:57:07.474 +0100|140768.122726875|-4.347213745117188|-4.458419799804688|5.721893310546875|140768.102764875|-1.128680313550529|-0.3237912065457461|-0.7117302057296416|-10.03166389465332|16.56205177307129|-3.038614273071289|-6.448057651519775|-0.1390610933303833|4.737049579620361|XArbitraryZVertical|-0.3713412027360973|0.05624635374101476|-0.4473404907911811|0.8116825837589737|-0.2409235388040543|0.653144896030426|-0.7178841233253479|0|0|0|-1|-1|3
2021-04-22 21:57:07.494 +0100|140768.142687875|-2.456329345703125|0.6549835205078125|5.46575927734375|140768.122726875|-1.391833188387905|-0.1977641867142434|-1.002063321828631|-25.57525253295898|14.32808399200439|-3.999966621398926|-4.96941089630127|-4.137460231781006|5.977805137634277|XArbitraryZVertical|-0.4223468506606252|0.2399778725640365|-0.5231522865149703|0.7002468041946871|-0.1058159619569778|0.8425840139389038|-0.5280675292015076|0|0|0|-1|-1|3
2021-04-22 21:57:07.513 +0100|140768.162648875|-0.3454742431640625|3.432144165039062|-0.835723876953125|140768.142687875|2.001722495031216|-2.802085413064042|-1.500568597348481|-32.92346572875977|10.95673561096191|2.64782190322876|-3.050423622131348|-2.562812089920044|6.58466625213623|XArbitraryZVertical|-0.5448654152589418|0.4860091295981882|-0.46666636966862|0.4991386852947759|-0.02336881496012211|0.9975350499153137|0.06616638600826263|0|0|0|-1|-1|3
2021-04-22 21:57:07.533 +0100|140768.182609875|-1.348602294921875|0.9419097900390625|-0.0157012939453125|140768.162648875|1.476996316646386|3.135130038062486|-1.018990292586874|-14.71148014068604|5.748717308044434|5.327795505523682|-0.1475232541561127|2.775755882263184|-0.2127228975296021|XArbitraryZVertical|-0.588840678908099|0.6444954730902046|-0.358770784131023|0.3304177705717819|0.003387850476428866|0.8515791296958923|0.5242155194282532|0|0|0|-1|-1|3
2021-04-22 21:57:07.553 +0100|140768.202570875|-0.4427337646484375|0.6199798583984375|1.115707397460938|140768.182609875|1.342364510870404|3.120135347410569|-0.9152035670720131|2.471274852752686|3.49078106880188|1.799767851829529|-1.339435815811157|0.7437825202941895|-1.153358697891235|XArbitraryZVertical|-0.5616060936639323|0.6995307815480386|-0.3399605638217933|0.2822805428037686|0.01308000925928354|0.7926867008209229|0.6094894409179688|0|0|0|-1|-1|3
2021-04-22 21:57:07.573 +0100|140768.222531875|-0.8456573486328125|0.63311767578125|1.48590087890625|140768.202570875|1.340818862036686|-3.121131211483247|-1.019443477759716|7.34168529510498|0.6341427564620972|-0.8636209964752197|-0.683161199092865|-0.3967989683151245|0.5264394283294678|XArbitraryZVertical|-0.5383866758233715|0.6870264452946558|-0.3878577155955042|0.2961436680035853|-0.0107177896425128|0.8518166542053223|0.5237311124801636|0|0|0|-1|-1|3
2021-04-22 21:57:07.593 +0100|140768.242492875|-1.20025634765625|-0.37652587890625|1.391525268554688|140768.222531875|1.408312570471107|-3.075913982019391|-1.205372894890785|10.81516456604004|-1.756161212921143|-1.464085459709167|-0.5823826789855957|-0.144207775592804|1.031043767929077|XArbitraryZVertical|-0.5188581519496303|0.6395886304885896|-0.4493132581385461|0.3461651604508003|-0.02345309220254421|0.9339725375175476|0.3565748035907745|0|0|0|-1|-1|3
2021-04-22 21:57:07.613 +0100|140768.262453875|-1.119094848632812|-0.11865234375|0.9690399169921875|140768.242492875|1.694151838553186|-2.836175647480874|-1.407195145798784|9.488574981689453|-1.872494339942932|-2.037776231765747|-1.141806840896606|-1.184187173843384|1.28687846660614|XArbitraryZVertical|-0.4995753653335239|0.572793543996365|-0.5103377905295549|0.4023524717637718|-0.04897458106279373|0.9866471290588379|0.1553359776735306|0|0|0|-1|-1|3
2021-04-22 21:57:07.633 +0100|140768.282414875|-0.83892822265625|0.5224609375|0.7281341552734375|140768.262453875|2.947370659849452|-1.622055304745487|-1.48432735460317|6.032735347747803|-1.344727754592896|-1.875157833099365|-1.065361976623535|-1.280412912368774|1.067214488983154|XArbitraryZVertical|-0.4866738156328441|0.5151321057592916|-0.5527374254190648|0.4384849622910788|-0.08625029772520065|0.996263861656189|0.004424978513270617|0|0|0|-1|-1|3
2021-04-22 21:57:07.653 +0100|140768.302375875|-0.57763671875|0.89251708984375|0.5935211181640625|140768.282414875|-2.633810096171946|-0.9470273322133221|-1.421195917356544|3.648685693740845|-0.9984468817710876|-1.539849281311035|-0.8091093301773071|-0.5861819386482239|0.865146815776825|XArbitraryZVertical|-0.4803766483821691|0.4750898065157781|-0.5782362074005923|0.4573520161242381|-0.1209757775068283|0.9888306856155396|-0.08705589920282364|0|0|0|-1|-1|3
2021-04-22 21:57:07.673 +0100|140768.322336875|-0.542724609375|1.098587036132812|0.5076904296875|140768.302375875|-2.474556831765309|-0.8082530037049894|-1.359906190230063|2.619279146194458|-0.8221838474273682|-1.384935736656189|-0.4662216603755951|-0.1704872846603394|0.7696586847305298|XArbitraryZVertical|-0.4781713443719016|0.4461536587558346|-0.5946290605014601|0.4676703370822463|-0.1513634920120239|0.9778449535369873|-0.1445981562137604|0|0|0|-1|-1|3
2021-04-22 21:57:07.693 +0100|140768.342297875|-0.3955230712890625|1.042648315429688|0.5109710693359375|140768.322336875|-2.414589197167892|-0.7641897547933117|-1.30428693678143|2.386335134506226|-0.5738591551780701|-1.606955170631409|-0.3672328889369965|0.1113535761833191|0.7112380266189575|XArbitraryZVertical|-0.4772023712111189|0.4209632839615798|-0.6088248517240682|0.4737091513261995|-0.1822369992733002|0.9646960496902466|-0.1901356279850006|0|0|0|-1|-1|3
