loggingTime(txt)|accelerometerTimestamp_sinceReboot(s)|accelerometerAccelerationX(G)|accelerometerAccelerationY(G)|accelerometerAccelerationZ(G)|motionTimestamp_sinceReboot(s)|motionYaw(rad)|motionRoll(rad)|motionPitch(rad)|motionRotationRateX(rad/s)|motionRotationRateY(rad/s)|motionRotationRateZ(rad/s)|motionUserAccelerationX(G)|motionUserAccelerationY(G)|motionUserAccelerationZ(G)|motionAttitudeReferenceFrame(txt)|motionQuaternionX(R)|motionQuaternionY(R)|motionQuaternionZ(R)|motionQuaternionW(R)|motionGravityX(G)|motionGravityY(G)|motionGravityZ(G)|motionMagneticFieldX(µT)|motionMagneticFieldY(µT)|motionMagneticFieldZ(µT)|motionHeading(°)|motionMagneticFieldCalibrationAccuracy(Z)|label
2021-04-22 21:22:53.130 +0100|139258.895492375|-0.039642333984375|0.2355499267578125|-1.000518798828125|139258.890502375|0.7723016744755277|-0.04344126521118453|-0.2894191634268057|0.001496575539931655|0.1546114236116409|-0.2440451979637146|-0.08742186427116394|-0.009805530309677124|0.03799605369567871|XArbitraryZVertical|-0.1254606845056297|-0.07420784851642763|0.3755023587592024|0.9152873284704169|-0.04162143915891647|0.2853955924510956|-0.9575056433677673|0|0|0|-1|-1|3
2021-04-22 21:22:53.157 +0100|139258.915453375|-0.0745086669921875|0.3115386962890625|-0.9405670166015625|139258.910463375|0.7697333562494154|-0.04314758795616716|-0.2886703495788579|0.04204067215323448|0.04157679527997971|-0.06190478429198265|0.04791100323200226|-0.06806299090385437|-0.03929316997528076|XArbitraryZVertical|-0.1252670819996233|-0.07377421422799538|0.3743210645854392|0.9158326148017889|-0.04134944826364517|0.2846778333187103|-0.9577310681343079|0|0|0|-1|-1|3
2021-04-22 21:22:53.157 +0100|139258.935413375|-0.0781402587890625|0.2797088623046875|-0.9411163330078125|139258.930423375|0.7679135009572511|-0.04048108357876119|-0.2878950785528727|-0.01109023950994015|0.2521460652351379|-0.1502978503704071|-0.05572348833084106|0.01896873116493225|0.02808099985122681|XArbitraryZVertical|-0.1254759651641646|-0.07229601612162093|0.3733337819066696|0.9163247897481924|-0.03880443051457405|0.2839345633983612|-0.9580581188201904|0|0|0|-1|-1|3
2021-04-22 21:22:53.158 +0100|139258.955374375|-0.01171875|0.2648162841796875|-0.9451751708984375|139258.950384375|0.7647201054560752|-0.0364501051639828|-0.2881829333150026|-0.06445737183094025|0.2017072886228561|-0.1469097882509232|-0.01840522140264511|-0.008757829666137695|0.01388096809387207|XArbitraryZVertical|-0.1264727571707741|-0.07030018215431576|0.3716110413551312|0.9170429994787724|-0.0349392332136631|0.2842105627059937|-0.9581250548362732|0|0|0|-1|-1|3
2021-04-22 21:22:53.178 +0100|139258.975334375|-0.0426025390625|0.2611846923828125|-0.9264068603515625|139258.970344375|0.7613553908475811|-0.0342694759868784|-0.2899816281755389|-0.1601999849081039|0.1782342940568924|-0.1595975309610367|0.01154652610421181|-0.02889928221702576|0.01817268133163452|XArbitraryZVertical|-0.1278212249113895|-0.06941528127695981|0.3698955106148272|0.9176168461306095|-0.03283226862549782|0.2859346270561218|-0.9576864838600159|0|0|0|-1|-1|3
2021-04-22 21:22:53.198 +0100|139258.995295375|-0.0363616943359375|0.265625|-0.9427947998046875|139258.990305375|0.7574894517606047|-0.03244825573165406|-0.2940006784069618|-0.292076587677002|0.1536119282245636|-0.1737519502639771|-0.01100245118141174|-0.02701085805892944|0.0272216796875|XArbitraryZVertical|-0.1301390773892612|-0.06906242284492603|0.3679263009008971|0.918109277112115|-0.03105052374303341|0.2897835373878479|-0.9565883874893188|0|0|0|-1|-1|3
2021-04-22 21:22:53.218 +0100|139259.015255375|-0.0548095703125|0.3038177490234375|-0.93768310546875|139259.010265375|0.7533576998701093|-0.03154753280608014|-0.3005464401239528|-0.350881814956665|0.1393107026815414|-0.1891013532876968|-0.009040646255016327|-0.02390062808990479|0.01054710149765015|XArbitraryZVertical|-0.1334586141195298|-0.06956295095465062|0.3658393389953134|0.9184287965594164|-0.03012841194868088|0.2960422039031982|-0.9546995759010315|0|0|0|-1|-1|3
2021-04-22 21:22:53.238 +0100|139259.035216375|-0.033843994140625|0.324615478515625|-0.9633331298828125|139259.030226375|0.7486429081636043|-0.03054092000642761|-0.3076338551253456|-0.3671183884143829|0.1599245369434357|-0.1894060969352722|-0.03174922615289688|0.001533210277557373|0.01252985000610352|XArbitraryZVertical|-0.1370681424103249|-0.07005844822160523|0.3634594808416434|0.9188043498894529|-0.02910258248448372|0.3028044402599335|-0.9526082873344421|0|0|0|-1|-1|3
2021-04-22 21:22:53.258 +0100|139259.055176375|-0.02935791015625|0.31866455078125|-0.969757080078125|139259.050186375|0.7446487657864355|-0.02876084351060861|-0.3142620872366323|-0.3873962759971619|0.1190374493598938|-0.1793303042650223|-0.005106702446937561|0.01980474591255188|-0.01379996538162231|XArbitraryZVertical|-0.1405817597457794|-0.07015019648954625|0.3613587494566198|0.919095080578473|-0.02734850347042084|0.3091147840023041|-0.9506314396858215|0|0|0|-1|-1|3
2021-04-22 21:22:53.278 +0100|139259.075137375|-0.032745361328125|0.3224334716796875|-0.952789306640625|139259.070147375|0.7406840165002249|-0.02830796331469256|-0.3211089501707555|-0.3821030557155609|0.08512379229068756|-0.1581633239984512|-0.002484969794750214|-0.004567533731460571|-0.01961821317672729|XArbitraryZVertical|-0.1439555769704682|-0.07087928705367902|0.3593528180189382|0.9193033164928713|-0.02685744315385818|0.315619021654129|-0.9485058188438416|0|0|0|-1|-1|3
2021-04-22 21:22:53.298 +0100|139259.095097375|-0.0291748046875|0.325958251953125|-0.9518585205078125|139259.090107375|0.7374273989279611|-0.02808203849916267|-0.3274989941511572|-0.3546777069568634|0.05896830558776855|-0.1257445812225342|-0.007562950253486633|0.008311688899993896|-0.003016531467437744|XArbitraryZVertical|-0.1470547348183972|-0.07167043546200928|0.3576945584186874|0.9193981777721931|-0.02658597938716412|0.3216759562492371|-0.9464765191078186|0|0|0|-1|-1|3
2021-04-22 21:22:53.318 +0100|139259.115058375|-0.0411376953125|0.32171630859375|-0.949127197265625|139259.110068375|0.7344960372222812|-0.02876274221730776|-0.3335412585339694|-0.3080002665519714|0.02117037586867809|-0.1158451661467552|-0.001451410353183746|-0.003995329141616821|-0.01096117496490479|XArbitraryZVertical|-0.1498218727682932|-0.07283108890922708|0.3562582653514503|0.9194178733627205|-0.0271738488227129|0.3273911774158478|-0.9444980621337891|0|0|0|-1|-1|3
2021-04-22 21:22:53.338 +0100|139259.135018375|-0.0589752197265625|0.3291168212890625|-0.923919677734375|139259.130028375|0.7315782847746505|-0.02929928779357719|-0.3394108705269905|-0.3100152313709259|0.05579860508441925|-0.1390924155712128|-0.02051741443574429|-0.01292324066162109|-0.004276454448699951|XArbitraryZVertical|-0.1525369778763328|-0.07388731400980757|0.3548206014487824|0.9194431122662327|-0.02762383967638016|0.3329316377639771|-0.9425462484359741|0|0|0|-1|-1|3
2021-04-22 21:22:53.358 +0100|139259.154979375|-0.0421600341796875|0.3603668212890625|-0.9084014892578125|139259.149989375|0.727830551599327|-0.02887230554036667|-0.3451494959887719|-0.3288094103336334|0.1174279898405075|-0.2065388411283493|-0.02790296822786331|0.002712905406951904|0.02890515327453613|XArbitraryZVertical|-0.1553950103883886|-0.07440458944911109|0.3529286937396842|0.9196509290548904|-0.02716578356921673|0.3383373618125916|-0.940632700920105|0|0|0|-1|-1|3
2021-04-22 21:22:53.378 +0100|139259.174940375|-0.0044097900390625|0.3363189697265625|-0.9445037841796875|139259.169949375|0.7225634825972789|-0.02780282367847577|-0.3513110686297513|-0.3334557116031647|0.1624126732349396|-0.2471612095832825|-0.01116041839122772|0.009479165077209473|0.022849440574646|XArbitraryZVertical|-0.1586185006285526|-0.07456827524255288|0.3502731058960906|0.9201025435139267|-0.02610133029520512|0.3441290855407715|-0.9385594725608826|0|0|0|-1|-1|3
2021-04-22 21:22:53.398 +0100|139259.19490025|0.00152587890625|0.3354034423828125|-0.9521942138671875|139259.189910375|0.7174559699058866|-0.02684046504552062|-0.3575122593448283|-0.3361729383468628|0.1180265098810196|-0.2086846381425858|0.02907732129096985|-0.01156491041183472|-0.01312112808227539|XArbitraryZVertical|-0.161835880378507|-0.07478433845348063|0.3476922613329697|0.9205035521723473|-0.02514033205807209|0.3499448895454407|-0.9364328980445862|0|0|0|-1|-1|3
2021-04-22 21:22:53.418 +0100|139259.21486125|-0.0016021728515625|0.355010986328125|-0.960357666015625|139259.20987025|0.7132092518983016|-0.02641634687303808|-0.3629959960571398|-0.2880832552909851|0.09395318478345871|-0.1627397984266281|0.02586725540459156|-0.01716965436935425|-0.01670616865158081|XArbitraryZVertical|-0.1645974748687874|-0.07518071158541441|0.3455644993731695|0.9207827203557157|-0.02469211257994175|0.3550765812397003|-0.9345110654830933|0|0|0|-1|-1|3
2021-04-22 21:22:53.438 +0100|139259.23482125|-0.01824951171875|0.3531036376953125|-0.955413818359375|139259.22983125|0.709668065602162|-0.026690261755259|-0.3678310928013802|-0.2512756884098053|0.06678617000579834|-0.1305440366268158|0.02003463357686996|-0.002947717905044556|-0.0293043851852417|XArbitraryZVertical|-0.166914279639428|-0.07583574519424466|0.3438333450302317|0.9209599570790225|-0.02490197867155075|0.3595924377441406|-0.9327771067619324|0|0|0|-1|-1|3
2021-04-22 21:22:53.458 +0100|139259.25478225|-0.03948974609375|0.3751983642578125|-0.9240875244140625|139259.24979225|0.7068655087070471|-0.02680261771222533|-0.3723778275254775|-0.2080680578947067|0.05946141481399536|-0.1101725399494171|0.001388080418109894|-0.009566962718963623|-0.02023953199386597|XArbitraryZVertical|-0.169099314810183|-0.07642161977872228|0.3424351700713282|0.9210339522093425|-0.02496270835399628|0.3638313114643097|-0.9311302900314331|0|0|0|-1|-1|3
2021-04-22 21:22:53.478 +0100|139259.27474225|-0.0608978271484375|0.364990234375|-0.9060821533203125|139259.26975225|0.7044913757954077|-0.02615162760300643|-0.3757588628376812|-0.204297199845314|0.05831209570169449|-0.1184034869074821|-0.0215282142162323|0.009823054075241089|0.01060020923614502|XArbitraryZVertical|-0.1708613458392162|-0.0764900730839428|0.3411984650201788|0.9211620059890663|-0.02432424016296864|0.3669785559177399|-0.9299113154411316|0|0|0|-1|-1|3
2021-04-22 21:22:53.498 +0100|139259.29470325|-0.08935546875|0.3218231201171875|-0.9050140380859375|139259.28971325|0.7016571995603695|-0.02535990195733448|-0.3797929364153237|-0.2935287058353424|0.08497017621994019|-0.1628723293542862|-0.04247432202100754|-0.01788285374641418|0.02318501472473145|XArbitraryZVertical|-0.1729660886251206|-0.07655933033466555|0.3397184838916834|0.9213104490873186|-0.02355026639997959|0.3707281649112701|-0.9284427762031555|0|0|0|-1|-1|3
2021-04-22 21:22:53.517 +0100|139259.31466325|-0.1499786376953125|0.250457763671875|-0.9151153564453125|139259.30967325|0.6964328728693939|-0.0246480298007063|-0.3877816549117595|-0.6144086122512817|0.1589840054512024|-0.3407476842403412|-0.07909765094518661|-0.06967824697494507|0.02361392974853516|XArbitraryZVertical|-0.176974177096862|-0.07710803998036357|0.3370345785394121|0.9214891339210332|-0.02281560748815536|0.3781357109546661|-0.9254689812660217|0|0|0|-1|-1|3
2021-04-22 21:22:53.538 +0100|139259.33462425|-0.1763916015625|0.1761627197265625|-0.9586029052734375|139259.32963425|0.685712397572071|-0.02349633535931381|-0.4044822033330736|-1.16028892993927|0.3547382056713104|-0.6070911288261414|-0.1389391869306564|-0.1781029105186462|-0.003966391086578369|XArbitraryZVertical|-0.1852926061365962|-0.07836054898777364|0.3315263969466643|0.9217464895069972|-0.0215983409434557|0.3935427963733673|-0.9190525412559509|0|0|0|-1|-1|3
2021-04-22 21:22:53.558 +0100|139259.35458425|-0.1898040771484375|0.2660369873046875|-0.9510345458984375|139259.34959425|0.6689277826226576|-0.0210079672737861|-0.433259457951857|-1.73333203792572|0.5862323045730591|-0.8585198521614075|-0.1522142589092255|-0.2389525771141052|-0.0523144006729126|XArbitraryZVertical|-0.1996501650079934|-0.0802425265875447|0.3227053224337149|0.9217170883604948|-0.01906547509133816|0.4198313057422638|-0.9074019193649292|0|0|0|-1|-1|3
2021-04-22 21:22:53.578 +0100|139259.37454525|-0.9759674072265625|-0.222686767578125|-0.6309356689453125|139259.36955525|0.6297074048412212|-0.01884661291804598|-0.4739802609101015|-3.024904727935791|2.841768980026245|-2.85184383392334|-0.2259992659091949|-0.1403292417526245|-0.02774196863174438|XArbitraryZVertical|-0.2203901566136505|-0.08141166452592841|0.3031117842674323|0.9235387357252128|-0.0167679451406002|0.4564313590526581|-0.8896006345748901|0|0|0|-1|-1|3
2021-04-22 21:22:53.609 +0100|139259.39450525|0.038330078125|0.3502655029296875|-1.019760131835938|139259.38951525|0.579462428993358|0.01949587091590418|-0.5465121190113685|-4.054885387420654|2.377244472503662|-1.880798578262329|-0.474464476108551|-0.6203565001487732|0.03154885768890381|XArbitraryZVertical|-0.2612894460223398|-0.06810128221524535|0.2725605380212539|0.9234722539857072|0.0166550949215889|0.5197105407714844|-0.8541800975799561|0|0|0|-1|-1|3
2021-04-22 21:22:53.621 +0100|139259.41446625|-0.4265594482421875|0.484100341796875|-0.7347412109375|139259.40947625|0.5520712733855808|0.0332978132699704|-0.6344120165113976|-4.505289554595947|1.137480497360229|-0.8850598931312561|-0.04552105069160461|-0.2167264819145203|-0.1616391539573669|XArbitraryZVertical|-0.3043745655253818|-0.06977932034570905|0.2539143684939058|0.9154314485828808|0.02681378275156021|0.5927040576934814|-0.8049739599227905|0|0|0|-1|-1|3
2021-04-22 21:22:53.637 +0100|139259.43442625|-0.4084014892578125|0.6103668212890625|-0.5750885009765625|139259.42943625|0.5327351160228875|0.05298479924173334|-0.7296760074900667|-5.03370189666748|2.145214319229126|-1.011330246925354|-0.5272841453552246|-0.1446241140365601|0.1021332740783691|XArbitraryZVertical|-0.3506079395308256|-0.07001343517888439|0.2366992281856219|0.9034078318230796|0.03947588428854942|0.6666281819343567|-0.7443443536758423|0|0|0|-1|-1|3
2021-04-22 21:22:53.657 +0100|139259.45438725|-0.1072998046875|0.717529296875|-0.4835357666015625|139259.44939725|0.512417232645914|0.09074637179589871|-0.838440919327521|-5.838404655456543|2.750992298126221|-1.116499185562134|-0.4016716480255127|-0.08497035503387451|0.1061498522758484|XArbitraryZVertical|-0.4038552187750717|-0.06296834269073155|0.2133723676079531|0.8873603025763653|0.06059187278151512|0.7436015605926514|-0.6658719182014465|0|0|0|-1|-1|3
2021-04-22 21:22:53.677 +0100|139259.47434725|-0.06884765625|0.7561798095703125|-0.316680908203125|139259.46935725|0.5090739906010453|0.1403921909806383|-0.9626152748522214|-6.460824489593506|2.560766696929932|-0.5134883522987366|-0.1553625166416168|-0.1151825785636902|0.1125994920730591|XArbitraryZVertical|-0.462573631676872|-0.05611270589783779|0.1912174431968037|0.8638940554070256|0.07995342463254929|0.8206886649131775|-0.5657539963722229|0|0|0|-1|-1|3
2021-04-22 21:22:53.697 +0100|139259.49430825|-0.0031280517578125|0.846893310546875|-0.280487060546875|139259.48931825|0.5475909596292068|0.2247493679044809|-1.098978616203762|-7.433220386505127|2.508914947509766|-0.03709655255079269|-0.1644332706928253|-0.109752357006073|0.148017406463623|XArbitraryZVertical|-0.5254845922365372|-0.04825110497269883|0.1727467055081789|0.8316829585680396|0.101292222738266|0.890743613243103|-0.4430755376815796|0|0|0|-1|-1|3
2021-04-22 21:22:53.717 +0100|139259.51426925|0.146453857421875|1.013412475585938|0.08154296875|139259.50927825|0.677051069600096|0.3931772978152435|-1.25080411168797|-8.436150550842285|2.357154846191406|0.1597825139760971|-0.09593395888805389|-0.07335245609283447|0.05336061120033264|XArbitraryZVertical|-0.5941508656749163|-0.04130443798008941|0.1561961467696869|0.7879603758072001|0.1205156296491623|0.9492378830909729|-0.2905573844909668|0|0|0|-1|-1|3
2021-04-22 21:22:53.737 +0100|139259.53422925|0.3809661865234375|1.314697265625|0.6987457275390625|139259.52923925|1.103953688509827|0.8561755954436734|-1.391066280223562|-8.795836448669434|2.276764154434204|0.2237827181816101|0.06029897928237915|0.1052501201629639|0.3738346099853516|XArbitraryZVertical|-0.6635111119591507|-0.03432145621306007|0.1397310162738715|0.7342005469929974|0.1350284963846207|0.9838919639587402|-0.1171500831842422|0|0|0|-1|-1|3
2021-04-22 21:22:53.757 +0100|139259.55419025|0.5286865234375|1.732925415039062|0.6407928466796875|139259.54919925|2.029915102897041|1.808501332980438|-1.428385227807286|-6.375078678131104|1.263137578964233|-0.4131870865821838|0.2929377555847168|0.3843604326248169|0.8209810256958008|XArbitraryZVertical|-0.7181724326589829|-0.03063899206812594|0.1252086659299405|0.6838219393471057|0.1379395872354507|0.9898766875267029|0.03342078253626823|0|0|0|-1|-1|3
2021-04-22 21:22:53.777 +0100|139259.57415025|0.6056365966796875|1.472412109375|0.6492156982421875|139259.56916025|2.558148114955883|2.340271985897176|-1.390579052956925|-3.000777721405029|-0.3219574093818665|0.3741791546344757|0.4712590575218201|0.6718196272850037|0.2744605541229248|XArbitraryZVertical|-0.7490415004729978|-0.03594671311322246|0.117186725221454|0.6510852972251473|0.1287466883659363|0.9838047623634338|0.1247106716036797|0|0|0|-1|-1|3
2021-04-22 21:22:53.797 +0100|139259.59411125|0.326812744140625|1.193374633789062|-0.0704345703125|139259.58912025|2.755114216858922|2.52764560644303|-1.324309627348481|-3.908669710159302|0.04983813315629959|0.2698317170143127|0.3392906188964844|0.5230526924133301|0.3721553087234497|XArbitraryZVertical|-0.7734855535434896|-0.03794960357910857|0.1213311939994222|0.6209338356663342|0.1405674666166306|0.9697756171226501|0.1994401514530182|0|0|0|-1|-1|3
2021-04-22 21:22:53.817 +0100|139259.61407125|0.50726318359375|1.259109497070312|0.0919647216796875|139259.60908125|2.839460437262497|2.615561163208099|-1.275179201335092|-1.795230388641357|0.2997004985809326|0.7183108925819397|0.2401343286037445|0.1734586954116821|-0.3948424756526947|XArbitraryZVertical|-0.790354108996098|-0.03623449067496479|0.1200331331482991|0.5996830075883124|0.1462789475917816|0.9566225409507751|0.2519451081752777|0|0|0|-1|-1|3
2021-04-22 21:22:53.837 +0100|139259.63403225|0.463592529296875|1.171340942382812|0.3754119873046875|139259.62904225|2.828040773125205|2.607561972818028|-1.246206954312948|-0.5157326459884644|0.05568616837263107|0.9760013222694397|0.3293358683586121|0.3189874291419983|-0.06108847260475159|XArbitraryZVertical|-0.7977279802512393|-0.02978643714533425|0.1237555311089314|0.5894298019342468|0.1623324751853943|0.9477817416191101|0.2745143175125122|0|0|0|-1|-1|3
2021-04-22 21:22:53.857 +0100|139259.65399225|0.3884429931640625|0.9940948486328125|0.357177734375|139259.64900225|2.7788455153729|2.561443874367577|-1.23244982562255|0.2154803872108459|0.03462392091751099|1.118520498275757|0.2670437097549438|0.2018213868141174|0.1100933253765106|XArbitraryZVertical|-0.7989649361143574|-0.02154521318845803|0.1296882030931555|0.5868320589969935|0.1819458156824112|0.9433047771453857|0.2776183187961578|0|0|0|-1|-1|3
2021-04-22 21:22:53.877 +0100|139259.67395325|0.348541259765625|0.8472442626953125|0.267913818359375|139259.66896325|2.704330711594331|2.49181003610687|-1.226520139694944|0.6099163293838501|0.06125835329294205|1.271313190460205|0.1696081459522247|0.006693065166473389|0.05456942319869995|XArbitraryZVertical|-0.7963924222288865|-0.0112501462808626|0.1365252527611416|0.5890614431203914|0.2042012959718704|0.94132000207901|0.2687349021434784|0|0|0|-1|-1|3
2021-04-22 21:22:53.897 +0100|139259.69391325|0.36541748046875|0.972991943359375|0.3074798583984375|139259.68892325|2.61449358462491|2.409936498843167|-1.221569574846346|0.9981561899185181|0.1463596671819687|1.40898609161377|0.113007441163063|-0.09127950668334961|0.02537009119987488|XArbitraryZVertical|-0.7920216193300591|0.001213082934599263|0.1434091324046904|0.5934089982218761|0.2286059707403183|0.9396376013755798|0.2545994222164154|0|0|0|-1|-1|3
2021-04-22 21:22:53.917 +0100|139259.71387425|0.413177490234375|0.97705078125|0.2723541259765625|139259.70888425|2.501125044465323|2.305475955085081|-1.219648806992573|1.632968783378601|0.02829108200967312|1.442667126655579|0.1274897456169128|0.07203835248947144|0.07025912404060364|XArbitraryZVertical|-0.784259759169279|0.01512688537175634|0.1511277592808882|0.6015550243247831|0.2552461624145508|0.9389786124229431|0.2305843830108643|0|0|0|-1|-1|3
2021-04-22 21:22:53.937 +0100|139259.73383425|0.3940277099609375|0.8534698486328125|0.226837158203125|139259.72884425|2.365862926456773|2.176050721505275|-1.220333045329446|1.969521522521973|-0.239771842956543|1.368987202644348|0.1393029391765594|-0.01916980743408203|0.06458781659603119|XArbitraryZVertical|-0.7725756029312392|0.02829087297456509|0.1602547142714727|0.6137142059481615|0.282342791557312|0.939213752746582|0.1953468769788742|0|0|0|-1|-1|3
2021-04-22 21:22:53.957 +0100|139259.75379525|0.2996063232421875|0.72039794921875|0.17901611328125|139259.74880525|2.242807254303145|2.053319360677426|-1.21849855566276|1.549323797225952|-0.3980020582675934|0.9418275952339172|0.06283938884735107|-0.08351022005081177|0.09568822383880615|XArbitraryZVertical|-0.7606665507015195|0.03797517185855977|0.1696927835921955|0.6254189548584977|0.3056600391864777|0.9385823607444763|0.1601114273071289|0|0|0|-1|-1|3
2021-04-22 21:22:53.977 +0100|139259.77375525|0.2927398681640625|0.44476318359375|0.2401885986328125|139259.76876525|2.18265454166606|1.990393458057414|-1.212003654365466|-0.2757173776626587|-0.3194676041603088|0.5866307616233826|-0.03546646237373352|-0.2475855946540833|0.0371997058391571|XArbitraryZVertical|-0.7547710364989687|0.04298151176784414|0.1765429268180584|0.6303220245806876|0.3206833600997925|0.9363214373588562|0.1430534571409225|0|0|0|-1|-1|3
2021-04-22 21:22:53.997 +0100|139259.79371625|0.460113525390625|0.669097900390625|0.1178741455078125|139259.78872625|2.208484284447899|2.013844705910395|-1.195052611317104|-1.18474280834198|0.1682005822658539|0.6363322734832764|-0.0144723653793335|-0.5683420300483704|0.06596662104129791|XArbitraryZVertical|-0.7593188033136871|0.04575089466915195|0.1807468264913227|0.6234361746081489|0.3315344452857971|0.930234968662262|0.1573163717985153|0|0|0|-1|-1|3
2021-04-22 21:22:54.017 +0100|139259.81367625|0.4046630859375|1.123916625976562|-0.1364898681640625|139259.80868625|2.245445483013317|2.049766605622701|-1.176602847899958|-0.6822118759155273|-0.1789323538541794|0.4517376720905304|0.1365410685539246|-0.04278296232223511|-0.1090989261865616|XArbitraryZVertical|-0.7656142330978101|0.0483294083964487|0.1838000350368309|0.6145866111754985|0.3408450484275818|0.9233066439628601|0.1770017743110657|0|0|0|-1|-1|3
2021-04-22 21:22:54.037 +0100|139259.83363725|0.1318817138671875|0.5615692138671875|0.6851959228515625|139259.82864725|2.239294998192597|2.041090242564441|-1.166333034945507|0.4431783556938171|0.05140268802642822|0.5283470153808594|-0.02994158864021301|0.1193522214889526|-0.3036144971847534|XArbitraryZVertical|-0.765867725518742|0.05108327128329581|0.188154445225991|0.6127277568467028|0.3508031070232391|0.9193137288093567|0.178325742483139|0|0|0|-1|-1|3
2021-04-22 21:22:54.057 +0100|139259.85359825|-0.118011474609375|0.5522918701171875|-0.2672576904296875|139259.84860725|2.217586021278937|2.014643016005083|-1.161789914368734|-0.4362823665142059|0.3054731488227844|0.3462239503860474|-0.3067046403884888|-0.4350792169570923|0.4270775318145752|XArbitraryZVertical|-0.7632945056808189|0.05263700360950654|0.1929081107235293|0.6143268595472892|0.3591640591621399|0.9175164103507996|0.1707783192396164|0|0|0|-1|-1|3
2021-04-22 21:22:54.077 +0100|139259.87355825|0.2991943359375|0.904541015625|-0.1031341552734375|139259.86856825|2.26677388263209|2.075924998491165|-1.149747993814797|-1.403295397758484|0.9295803308486938|-0.1540594696998596|-0.4174735546112061|-0.3386099934577942|-0.338624119758606|XArbitraryZVertical|-0.7718514084789488|0.05602497934263233|0.1877958565950432|0.6048466567737247|0.3576740324497223|0.9126609563827515|0.1977867931127548|0|0|0|-1|-1|3
2021-04-22 21:22:54.105 +0100|139259.89351925|0.210845947265625|1.109405517578125|0.1401824951171875|139259.88852825|2.304558411229628|2.12292828166185|-1.144646099016918|0.2710477411746979|0.4620248973369598|-0.07856827229261398|-0.0453207790851593|0.08533155918121338|-0.2596132755279541|XArbitraryZVertical|-0.7779191759698502|0.05699586586618818|0.1823508793582006|0.5986164044220127|0.3519458174705505|0.9105638861656189|0.2168135493993759|0|0|0|-1|-1|3
2021-04-22 21:22:54.117 +0100|139259.91347925|0.22271728515625|1.20233154296875|0.1680145263671875|139259.90848925|2.246454680868287|2.078292100107194|-1.158851161221153|2.312051057815552|0.3794721662998199|-0.05920815840363503|-0.1492307782173157|0.2381669282913208|-0.005743116140365601|XArbitraryZVertical|-0.770363848932794|0.06191206029879578|0.1781704702286848|0.6090664367334973|0.3499293029308319|0.9163437485694885|0.1945871263742447|0|0|0|-1|-1|3
2021-04-22 21:22:54.136 +0100|139259.93344025|0.3136138916015625|1.2127685546875|0.250457763671875|139259.92845025|2.108999565865609|1.959038701025807|-1.186688728235788|3.535868644714355|0.3394996225833893|0.07171337306499481|-0.1095388829708099|0.2643189430236816|0.02978777885437012|XArbitraryZVertical|-0.7524647141310356|0.06875029781604557|0.1727415686426902|0.6318470911811284|0.3468432128429413|0.9271332025527954|0.1418595016002655|0|0|0|-1|-1|3
2021-04-22 21:22:54.156 +0100|139259.95340025|0.2053070068359375|1.135299682617188|0.1549835205078125|139259.94841025|1.910255693212669|1.777654554322641|-1.207633890679048|4.153190135955811|0.1808680593967438|-0.02480712905526161|-0.05945166945457458|0.2970946431159973|0.1564114093780518|XArbitraryZVertical|-0.728401771125217|0.07688154931309098|0.1690356495350475|0.6595052237409478|0.3476592898368835|0.934778094291687|0.07295982539653778|0|0|0|-1|-1|3
2021-04-22 21:22:54.176 +0100|139259.97336125|0.1878509521484375|1.301193237304688|-0.02117919921875|139259.96837125|1.647363988723216|1.53738330043238|-1.215047515939305|5.024836540222168|0.4743564426898956|0.04446657001972198|-0.1506500840187073|0.1850508451461792|0.11075758934021|XArbitraryZVertical|-0.6975974600854812|0.08683379091242141|0.1633362914877683|0.6921987396398965|0.3480984568595886|0.9373859763145447|-0.01163535285741091|0|0|0|-1|-1|3
2021-04-22 21:22:54.197 +0100|139259.99332125|0.2461700439453125|1.101165771484375|-0.07080078125|139259.98833125|1.368121871241737|1.289242770523545|-1.199074667022683|4.970635414123535|0.7185305953025818|-0.05492038279771805|-0.1318318545818329|0.3747848868370056|0.05949361622333527|XArbitraryZVertical|-0.6630598628138853|0.09945637605479968|0.1542575145221279|0.7257166555620046|0.348918229341507|0.9317033886909485|-0.100920096039772|0|0|0|-1|-1|3
2021-04-22 21:22:54.216 +0100|139260.01328225|0.224334716796875|0.9349517822265625|0.0390625|139260.00829225|1.137577966677604|1.092379852640033|-1.166312551056263|4.323229312896729|0.9275727272033691|-0.1651730239391327|-0.1097510457038879|0.109656035900116|0.1564137935638428|XArbitraryZVertical|-0.629995328423851|0.1118795032961678|0.1431853427701756|0.7550410644889921|0.3493594229221344|0.919305682182312|-0.1811777204275131|0|0|0|-1|-1|3
2021-04-22 21:22:54.236 +0100|139260.03324225|0.247222900390625|0.884490966796875|0.021453857421875|139260.02825225|0.9653870632167754|0.9557128362599678|-1.127065650093466|3.764787912368774|1.168391942977905|-0.1353340744972229|-0.1270892024040222|0.02689796686172485|0.3132926225662231|XArbitraryZVertical|-0.6005977262821037|0.1241776740763187|0.1308506835407693|0.7789355124518561|0.3506300449371338|0.9031563401222229|-0.2477245479822159|0|0|0|-1|-1|3
2021-04-22 21:22:54.256 +0100|139260.05320325|0.394866943359375|0.9047393798828125|-0.0923919677734375|139260.04821325|0.8308597512066799|0.8619751098110898|-1.081321850542632|3.998561382293701|1.305889010429382|-0.007179843727499247|-0.07775503396987915|-0.002101600170135498|0.278353363275528|XArbitraryZVertical|-0.5724153902997567|0.1389858780087277|0.1176404927052542|0.7994900309168621|0.3569141030311584|0.882580041885376|-0.3060470819473267|0|0|0|-1|-1|3
2021-04-22 21:22:54.276 +0100|139260.07316325|0.2801055908203125|0.7881927490234375|-0.0354461669921875|139260.06817325|0.7043033613828735|0.7724195195667639|-1.026034972972941|4.064560413360596|0.9292289018630981|-0.2044314742088318|0.02490413188934326|0.04221063852310181|0.2915534377098083|XArbitraryZVertical|-0.5399544646620178|0.1512294954786044|0.1048487835653021|0.8213317050356492|0.361646294593811|0.8552510142326355|-0.3711576461791992|0|0|0|-1|-1|3
2021-04-22 21:22:54.296 +0100|139260.09312425|0.35284423828125|0.400146484375|-0.0245819091796875|139260.08813425|0.6156738529061209|0.7192177208363151|-0.978310358958677|2.381341457366943|1.110965013504028|-0.08564207702875137|-0.09078934788703918|-0.1287486553192139|0.3908649086952209|XArbitraryZVertical|-0.5132717764739432|0.1627713076786838|0.09277534179148227|0.8375264178851888|0.367888480424881|0.8295550346374512|-0.4201151728630066|0|0|0|-1|-1|3
2021-04-22 21:22:54.316 +0100|139260.11308525|0.2461700439453125|0.2176971435546875|-0.045928955078125|139260.10809425|0.5902491806036861|0.7204982119261339|-0.9698766473376843|-0.8385758399963379|1.15127694606781|-0.6013329029083252|-0.01577529311180115|-0.5010084509849548|0.4101318717002869|XArbitraryZVertical|-0.5080794248136919|0.1714996989606413|0.08358795433443549|0.8399145411014434|0.3730288147926331|0.8248159885406494|-0.4248863160610199|0|0|0|-1|-1|3
2021-04-22 21:22:54.336 +0100|139260.13304525|0.1936492919921875|0.379425048828125|0.1792449951171875|139260.12805525|0.6316240515201396|0.7840035822307275|-1.019020332588619|-4.287389755249023|1.781758427619934|-0.9700207710266113|-0.1603711843490601|-0.6223919987678528|0.3644388020038605|XArbitraryZVertical|-0.5320453585048832|0.177021413057822|0.07344774661579613|0.8247403368107608|0.3701484501361847|0.851594865322113|-0.3711823225021362|0|0|0|-1|-1|3
2021-04-22 21:22:54.356 +0100|139260.15300625|0.1630859375|1.05255126953125|-0.30352783203125|139260.14801525|0.7810717193960233|0.9573554922124311|-1.103567230848598|-5.671682834625244|2.21085524559021|-0.975855827331543|-0.1517543196678162|-0.3927733898162842|0.4830675423145294|XArbitraryZVertical|-0.5795771727511598|0.1855857341042414|0.06447729158700607|0.7908799228394975|0.3682911992073059|0.8928197622299194|-0.2592964768409729|0|0|0|-1|-1|3
2021-04-22 21:22:54.376 +0100|139260.17296625|0.31365966796875|2.022994995117188|0.078094482421875|139260.16797625|0.8491607287777423|1.062044314820232|-1.147027460535961|-0.2482121586799622|1.858607888221741|-0.322943389415741|-0.2885506153106689|0.4868312478065491|-0.4081076085567474|XArbitraryZVertical|-0.6015598912740512|0.1948864337745904|0.04799918257452919|0.7732018515131118|0.3591218590736389|0.9115456938743591|-0.2002899497747421|0|0|0|-1|-1|3
2021-04-22 21:22:54.396 +0100|139260.19292725|0.250274658203125|0.936370849609375|0.1160736083984375|139260.18793625|0.8401298238626748|1.082713020577243|-1.15148602229536|0.1464352309703827|1.327155470848083|-0.7321905493736267|-0.01684913039207458|0.9496065974235535|0.417526513338089|XArbitraryZVertical|-0.6023112671427572|0.2043586514036088|0.0369935944551797|0.7707724614070197|0.3595913648605347|0.9133699536323547|-0.1909173578023911|0|0|0|-1|-1|3
2021-04-22 21:22:54.416 +0100|139260.21288725|0.151702880859375|0.32232666015625|0.5258941650390625|139260.20789725|0.8514643687721946|1.118833908947404|-1.178559850629179|-1.95155918598175|1.412548422813416|-1.29992151260376|-0.1076847910881042|-0.2057483196258545|0.3678416609764099|XArbitraryZVertical|-0.6112019451679982|0.2072688507350351|0.02238612825528324|0.7635253508695004|0.3438749313354492|0.9240564703941345|-0.1669436097145081|0|0|0|-1|-1|3
2021-04-22 21:22:54.436 +0100|139260.23284825|0.1519775390625|0.955291748046875|0.16558837890625|139260.22785825|0.971590015625996|1.27191224673969|-1.227413909466951|-3.767796754837036|2.651354551315308|-1.786607384681702|-0.1923694014549255|-0.5954447388648987|0.5907740592956543|XArbitraryZVertical|-0.636426609482711|0.2130578657140318|0.00460571347703845|0.7413139513371356|0.3217479288578033|0.9416213035583496|-0.09913503378629684|0|0|0|-1|-1|3
2021-04-22 21:22:54.456 +0100|139260.25280825|0.3998260498046875|1.23382568359375|0.1996917724609375|139260.24781825|1.175000744430522|1.518681705261496|-1.276276425150799|-3.025072574615479|2.480577707290649|-1.698207378387451|-0.06175348162651062|0.1530593633651733|0.1706547737121582|XArbitraryZVertical|-0.6661096741661173|0.2207654528521629|-0.0184420977079578|0.7121941749717124|0.2898868322372437|0.9569416046142578|-0.01512103341519833|0|0|0|-1|-1|3
2021-04-22 21:22:54.476 +0100|139260.27276925|0.321136474609375|1.098495483398438|0.37762451171875|139260.26777925|1.359953498556228|1.741883829682005|-1.306040772451322|-2.055902242660522|2.181031227111816|-1.661584138870239|0.1404912769794464|0.2414937019348145|0.1974083185195923|XArbitraryZVertical|-0.686323370797667|0.2263532332001751|-0.03972534204705711|0.6900337477246716|0.2578538656234741|0.9651564955711365|0.04455111175775528|0|0|0|-1|-1|3
2021-04-22 21:22:54.496 +0100|139260.29272925|0.306182861328125|1.155960083007812|0.1962127685546875|139260.28773925|1.53606671907069|1.95721981617462|-1.329472859152719|-1.500264048576355|2.3017258644104|-1.804568529129028|0.08196239173412323|0.1155865788459778|0.2744027376174927|XArbitraryZVertical|-0.7013495296083423|0.2305289583196772|-0.06292601686501806|0.6715695630506309|0.2213661968708038|0.9710225462913513|0.09006952494382858|0|0|0|-1|-1|3
2021-04-22 21:22:54.516 +0100|139260.31269025|0.403778076171875|1.286697387695312|0.0888671875|139260.30770025|1.689823142935269|2.151394277906049|-1.3505459750559|-0.5906151533126831|2.081282138824463|-1.696757793426514|0.1499969363212585|0.1951016187667847|0.04756640642881393|XArbitraryZVertical|-0.710823379837668|0.2337721694753359|-0.08775883244581897|0.657555495356236|0.1826742887496948|0.9758427739143372|0.119838610291481|0|0|0|-1|-1|3
2021-04-22 21:22:54.536 +0100|139260.33265025|0.4848785400390625|1.314605712890625|-0.094757080078125|139260.32766025|1.826278354385802|2.322740587385476|-1.372866461752304|-0.4234751462936401|1.638700008392334|-1.793568968772888|0.283228874206543|0.3633203506469727|-0.07682214677333832|XArbitraryZVertical|-0.7158015546915708|0.2340665115249625|-0.1116912838477693|0.6483566327970647|0.143619567155838|0.9804757237434387|0.1343179941177368|0|0|0|-1|-1|3
2021-04-22 21:22:54.556 +0100|139260.35261125|0.4710845947265625|1.139389038085938|-0.1645050048828125|139260.34762125|2.008308019739715|2.527634783174617|-1.387015494897793|-1.034980773925781|0.9790083169937134|-1.738180041313171|0.3841415345668793|0.266046941280365|-0.2708491086959839|XArbitraryZVertical|-0.7221786971569953|0.2305324967640387|-0.1310425784020723|0.638858941621294|0.1052831783890724|0.9831597805023193|0.1493746042251587|0|0|0|-1|-1|3
2021-04-22 21:22:54.576 +0100|139260.37257125|0.4301300048828125|1.193267822265625|-0.2158050537109375|139260.36758125|2.249417851460591|2.779165679447056|-1.373114982286099|-2.195837020874023|0.5342085361480713|-1.627599358558655|0.3867883086204529|0.144719660282135|-0.3656452894210815|XArbitraryZVertical|-0.7356087615452689|0.2251651208691781|-0.1432516981526017|0.6226231012275764|0.06963160634040833|0.9805245995521545|0.1836391687393188|0|0|0|-1|-1|3
2021-04-22 21:22:54.596 +0100|139260.39253225|0.431365966796875|1.373809814453125|-0.255340576171875|139260.38754225|2.443340286807826|2.975903695820524|-1.334309555395419|-2.442626714706421|0.1775778383016586|-1.389940977096558|0.3924333155155182|0.2837533950805664|-0.4542093276977539|XArbitraryZVertical|-0.7531758627685852|0.2196962965712987|-0.149850011506882|0.6016683101292792|0.03864177688956261|0.9721670746803284|0.2310806810855865|0|0|0|-1|-1|3
2021-04-22 21:22:54.616 +0100|139260.41249325|0.4063568115234375|1.351959228515625|-0.2300262451171875|139260.40750225|2.558062311768285|3.087773210344564|-1.294763545018545|-1.768099308013916|-0.04193130880594254|-1.062500715255737|0.4129656255245209|0.422224760055542|-0.532018780708313|XArbitraryZVertical|-0.76834565950029|0.2138187805548327|-0.1528595473677697|0.5835757256864347|0.01466096099466085|0.9621442556381226|0.2721470594406128|0|0|0|-1|-1|3
2021-04-22 21:22:54.635 +0100|139260.43245325|0.4129486083984375|1.281112670898438|-0.144012451171875|139260.42746325|2.624052163103958|-3.13337869946157|-1.267687567034027|-0.9418020844459534|-0.07570552080869675|-0.7710655331611633|0.4058779180049896|0.3749020099639893|-0.5122392177581787|XArbitraryZVertical|-0.7783008986698242|0.208536546154297|-0.1547488571270997|0.5716758069140463|-0.002451752545312047|0.9544131755828857|0.2984795570373535|0|0|0|-1|-1|3
2021-04-22 21:22:54.656 +0100|139260.45241425|0.4068603515625|1.265350341796875|-0.099945068359375|139260.44742425|2.665041364657387|-3.096820806356976|-1.256772374847388|-0.1306178867816925|-0.1994030028581619|-0.5170841217041016|0.4307856261730194|0.3278017044067383|-0.4262848198413849|XArbitraryZVertical|-0.7828181789547133|0.2036794853954973|-0.1563081478650866|0.5668141206661467|-0.01382490247488022|0.9510983228683472|0.3085792660713196|0|0|0|-1|-1|3
2021-04-22 21:22:54.675 +0100|139260.47237425|0.3624420166015625|1.173065185546875|0.0218048095703125|139260.46738425|2.690651145044365|-3.078469979416594|-1.26112771012334|0.5150796175003052|-0.3999205529689789|-0.2249292135238647|0.416454553604126|0.2927587032318115|-0.3736394941806793|XArbitraryZVertical|-0.7827000649167387|0.1986172492686525|-0.1565910822448391|0.5686924460672705|-0.01922344230115414|0.9524345993995667|0.3041363954544067|0|0|0|-1|-1|3
2021-04-22 21:22:54.695 +0100|139260.49233525|0.3198394775390625|1.087142944335938|0.1174774169921875|139260.48734525|2.701186126319336|-3.078136384955754|-1.273243072217053|0.7032453417778015|-0.5653735995292664|-0.04759934917092323|0.3637903928756714|0.1932810544967651|-0.2496076822280884|XArbitraryZVertical|-0.7801779862704982|0.1939548428145319|-0.1546788695994733|0.5742633576031275|-0.01859178021550179|0.9560567140579224|0.2925923466682434|0|0|0|-1|-1|3
2021-04-22 21:22:54.715 +0100|139260.51229525|0.31982421875|1.046005249023438|0.136474609375|139260.50730525|2.705093961598483|-3.087872481750617|-1.287173496950046|0.7447866201400757|-0.8160027265548706|0.01619729399681091|0.3362222015857697|0.1210220456123352|-0.1484203040599823|XArbitraryZVertical|-0.7772014152402725|0.1888769566178402|-0.1508550093105663|0.5809702969741167|-0.01502565015107393|0.9600479602813721|0.2794331014156342|0|0|0|-1|-1|3
2021-04-22 21:22:54.735 +0100|139260.53225625|0.2670135498046875|1.00970458984375|0.130523681640625|139260.52726625|2.703504988414034|-3.108613816388957|-1.303319216117017|0.8569602966308594|-1.074631929397583|0.0702461451292038|0.3205881714820862|0.07118850946426392|-0.1247971057891846|XArbitraryZVertical|-0.7738021640618558|0.1825059117946724|-0.1445704176934256|0.5890852293405074|-0.00871472992002964|0.9644407629966736|0.2641564011573792|0|0|0|-1|-1|3
2021-04-22 21:22:54.755 +0100|139260.55221625|0.2234954833984375|0.9476318359375|0.1089630126953125|139260.54722625|2.70094884639124|-3.134320827947859|-1.320724175777005|0.8678358197212219|-1.249816298484802|0.03094739094376564|0.2580395042896271|0.02562761306762695|-0.1176610887050629|XArbitraryZVertical|-0.7701869993645641|0.1747747978300601|-0.1368566554569756|0.5979433442285637|-0.00179957936052233|0.9688945412635803|0.2474684864282608|0|0|0|-1|-1|3
2021-04-22 21:22:54.775 +0100|139260.57217725|0.1561126708984375|0.9619598388671875|0.1357574462890625|139260.56718725|2.698211229603642|3.119561374363367|-1.33796239023932|0.8869394659996033|-1.398449659347534|-0.002135194838047028|0.201153889298439|-0.03881245851516724|-0.1214567869901657|XArbitraryZVertical|-0.7667117629643095|0.1658102678242972|-0.1279284018690502|0.6068726032267737|0.005082996562123299|0.9730164408683777|0.2306799441576004|0|0|0|-1|-1|3
2021-04-22 21:22:54.795 +0100|139260.59213725|0.079132080078125|1.048095703125|0.1204833984375|139260.58714725|2.698109158016534|3.088993045501999|-1.360529444870828|1.444258332252502|-1.603951096534729|-0.009521560743451118|0.1281093955039978|0.008474767208099365|-0.08750562369823456|XArbitraryZVertical|-0.7617476233558939|0.1547794370021866|-0.1183445450104979|0.6178822307773977|0.01097357552498579|0.9779752492904663|0.2084322273731232|0|0|0|-1|-1|3
2021-04-22 21:22:54.815 +0100|139260.61209825|0.0574951171875|1.003128051757812|0.10064697265625|139260.60710825|2.685828982939362|3.044919248533968|-1.394112950558733|1.863214731216431|-1.632048726081848|0.01884971559047699|0.04707473516464233|0.078480064868927|-0.05185280740261078|XArbitraryZVertical|-0.753048342050527|0.1427982511445531|-0.1087703377530349|0.6330055940991312|0.01696553826332092|0.98443204164505|0.1749462932348251|0|0|0|-1|-1|3
2021-04-22 21:22:54.835 +0100|139260.63205825|0.0324859619140625|0.9069366455078125|-0.0008087158203125|139260.62706825|2.650083864356583|2.975877648728097|-1.430908976257809|1.81054675579071|-1.726470232009888|0.07727911323308945|0.03070974163711071|-0.01089215278625488|-0.0564357191324234|XArbitraryZVertical|-0.7428129809806857|0.130344877126343|-0.09844792798655332|0.6492666175271307|0.02300035767257214|0.9902316927909851|0.13752181828022|0|0|0|-1|-1|3
2021-04-22 21:22:54.855 +0100|139260.65201925|0.004364013671875|0.838592529296875|-0.12347412109375|139260.64702925|2.578862987721215|2.870502301976546|-1.463035876677887|1.513080596923828|-1.720148801803589|0.1035602539777756|-0.004967600107192993|-0.1128059029579163|-0.1260554790496826|XArbitraryZVertical|-0.7334064839975735|0.1180166429287871|-0.08717557356547279|0.6637677354009252|0.02880101837217808|0.9941994547843933|0.1036259979009628|0|0|0|-1|-1|3
2021-04-22 21:22:54.875 +0100|139260.67198025|0.0033721923828125|0.848236083984375|-0.236236572265625|139260.66698925|2.452694508903101|2.711375826132654|-1.489027028473131|1.364047050476074|-1.628029704093933|0.1314863413572311|-0.03431081399321556|-0.1563266515731812|-0.2294784784317017|XArbitraryZVertical|-0.7251087667455617|0.1064683669875383|-0.07578513231420098|0.6761201626912607|0.03406589105725288|0.9966587424278259|0.07423647493124008|0|0|0|-1|-1|3
2021-04-22 21:22:54.895 +0100|139260.69194025|0.0540924072265625|0.8519134521484375|-0.24005126953125|139260.68695025|2.241779967557993|2.469637722325703|-1.509990321780631|1.193913221359253|-1.573057770729065|0.05452719703316689|-0.02646437287330627|-0.1376780867576599|-0.293759822845459|XArbitraryZVertical|-0.717390537247801|0.09555606152624399|-0.06514142452111729|0.6870055550604818|0.03783140704035759|0.9981518983840942|0.04756028950214386|0|0|0|-1|-1|3
2021-04-22 21:22:54.915 +0100|139260.71190125|0.0308685302734375|0.8412322998046875|-0.1693267822265625|139260.70691025|1.929538453454105|2.125993678740373|-1.522351249343959|0.8927958607673645|-1.596539616584778|0.168685108423233|0.007443003356456757|-0.1618057489395142|-0.2502126693725586|XArbitraryZVertical|-0.7110489369410909|0.0846956981202943|-0.05395538237272877|0.6959346521370947|0.04115550965070724|0.9988267421722412|0.02552790381014347|0|0|0|-1|-1|3
2021-04-22 21:22:54.935 +0100|139260.73186125|0.0266265869140625|0.9303436279296875|-0.113800048828125|139260.72687125|1.605941166808119|1.77099146921257|-1.524286642999374|0.6820745468139648|-1.587733268737793|0.1744838804006577|-0.01497653499245644|-0.1384751796722412|-0.158644437789917|XArbitraryZVertical|-0.7064402365334602|0.07460254826570815|-0.04194177459212221|0.7025793844603346|0.04556971043348312|0.9989185929298401|0.009246695786714554|0|0|0|-1|-1|3
2021-04-22 21:22:54.955 +0100|139260.75182225|0.0366973876953125|0.98565673828125|-0.0755615234375|139260.74683225|1.289039612500652|1.422628881821146|-1.521263156384647|0.8796055912971497|-1.620615720748901|0.1779915988445282|-0.014687180519104|-0.05428481101989746|-0.08369266986846924|XArbitraryZVertical|-0.7015781524068812|0.06429003581869074|-0.03007262001551764|0.7090491203804875|0.04897300153970718|0.998773455619812|-0.007309774868190289|0|0|0|-1|-1|3
2021-04-22 21:22:54.975 +0100|139260.77178225|0.004150390625|0.92864990234375|-0.024078369140625|139260.76679225|0.962698158152929|1.064287508964665|-1.511197267957866|1.03335440158844|-1.62479841709137|0.1873141825199127|-0.02004477009177208|-0.007822036743164062|-0.03837758302688599|XArbitraryZVertical|-0.6947376674858023|0.05376701523720966|-0.01800463373806683|0.7170248840207534|0.05208758264780045|0.9982244968414307|-0.02889736369252205|0|0|0|-1|-1|3
2021-04-22 21:22:54.995 +0100|139260.79174325|-0.019317626953125|0.9181365966796875|0.0107879638671875|139260.78675325|0.7715390542690939|0.8417246823237591|-1.497441334447793|0.7571291327476501|-1.576705694198608|0.1861167401075363|-0.05855073407292366|-0.09154891967773438|0.04392708092927933|XArbitraryZVertical|-0.6882547555832016|0.04351254040616592|-0.006072612298451767|0.7241375748698408|0.05465912073850632|0.9973107576370239|-0.04882410168647766|0|0|0|-1|-1|3
2021-04-22 21:22:55.015 +0100|139260.81170325|-0.0329132080078125|1.023727416992188|0.047454833984375|139260.80671325|0.6870099071703838|0.7262259355385534|-1.486312401276488|0.5350795984268188|-1.545800924301147|0.123148687183857|-0.07712477445602417|-0.05394351482391357|0.0841064453125|XArbitraryZVertical|-0.6836286462095688|0.0332397017880831|0.005536343015901946|0.7290518131816592|0.05603653565049171|0.9964333772659302|-0.06309399008750916|0|0|0|-1|-1|3
2021-04-22 21:22:55.035 +0100|139260.83166425|-0.0675201416015625|1.064605712890625|0.11920166015625|139260.82667425|0.6283569749858112|0.6372019932047196|-1.478222924825815|0.4235460162162781|-1.515176653862|-0.02331247553229332|-0.09517551958560944|0.04653364419937134|0.1379474401473999|XArbitraryZVertical|-0.6799588234486719|0.02247310579397887|0.01622545916459047|0.7327262919414245|0.05499855801463127|0.9957181215286255|-0.07430191338062286|0|0|0|-1|-1|3
2021-04-22 21:22:55.055 +0100|139260.85162425|-0.0937957763671875|1.156539916992188|0.188720703125|139260.84663425|0.5681478780504626|0.5472375480012651|-1.473174037833995|0.3415813148021698|-1.481486082077026|-0.1811478286981583|-0.1272396594285965|0.08371049165725708|0.2257232069969177|XArbitraryZVertical|-0.6769519663787368|0.01087539364267843|0.02564332183829434|0.7355001088224156|0.05071629956364632|0.995238721370697|-0.08323552459478378|0|0|0|-1|-1|3
2021-04-22 21:22:55.079 +0100|139260.87158525|-0.115936279296875|1.239486694335938|0.1879730224609375|139260.86659525|0.4892294166495976|0.4403512245615747|-1.468931266435162|0.4531161189079285|-1.391847491264343|-0.3164101243019104|-0.1395229399204254|0.1922109723091125|0.295039176940918|XArbitraryZVertical|-0.6737982352490559|-0.001120569677741246|0.03339322839353898|0.738159695725732|0.04334627836942673|0.9948162436485291|-0.09198936820030212|0|0|0|-1|-1|3
2021-04-22 21:22:55.095 +0100|139260.89154525|-0.144775390625|1.1632080078125|0.1616973876953125|139260.88655525|0.3875513392784604|0.3128720827450638|-1.462425540241383|0.5470170378684998|-1.255618453025818|-0.4508867263793945|-0.1567650139331818|0.2307199835777283|0.2954443693161011|XArbitraryZVertical|-0.6696053545797421|-0.01321898993619319|0.03949747616782524|0.7415482797013461|0.03329040482640266|0.9941336512565613|-0.1029078513383865|0|0|0|-1|-1|3
2021-04-22 21:22:55.115 +0100|139260.91150625|-0.1098175048828125|1.113433837890625|0.14495849609375|139260.90651625|0.2790205572034153|0.1815371609369175|-1.454026797634587|0.5672286748886108|-1.051316142082214|-0.514540433883667|-0.1618882864713669|0.1568953990936279|0.2767311334609985|XArbitraryZVertical|-0.6648918335386744|-0.02497546330726257|0.04381098995815991|0.745235339044049|0.02103394269943237|0.9931901693344116|-0.1145901530981064|0|0|0|-1|-1|3
2021-04-22 21:22:55.134 +0100|139260.93146725|-0.0532073974609375|1.071746826171875|0.118255615234375|139260.92647625|0.1809991878325929|0.0650272704444753|-1.443465960899725|0.5994551181793213|-0.8438762426376343|-0.5197492241859436|-0.1034823283553123|0.1201562881469727|0.2522534132003784|XArbitraryZVertical|-0.6598404395201343|-0.03537613109530547|0.04641640198455316|0.7491359357314845|0.008251775987446308|0.9919044375419617|-0.1267182528972626|0|0|0|-1|-1|3
2021-04-22 21:22:55.154 +0100|139260.95142725|-0.009429931640625|1.039764404296875|0.12139892578125|139260.94643725|0.09971253155467817|-0.03132152249224618|-1.430570453965444|0.686041533946991|-0.6651614904403687|-0.5067328810691833|-0.0420711413025856|0.07461994886398315|0.2380286455154419|XArbitraryZVertical|-0.6543477573976105|-0.04448695013245634|0.04787419565859844|0.7533646191181204|-0.004377043340355158|0.9901844263076782|-0.1396998465061188|0|0|0|-1|-1|3
2021-04-22 21:22:55.174 +0100|139260.97138825|0.0522613525390625|1.035232543945312|0.14630126953125|139260.96639825|0.04260374308085306|-0.09936356144869468|-1.41537828823628|0.7583003640174866|-0.4685777425765991|-0.4176454842090607|0.018925741314888|0.05810439586639404|0.2707462906837463|XArbitraryZVertical|-0.6483259445442661|-0.05155714220837366|0.04844180597592564|0.7580692040199308|-0.01535560470074415|0.9879469275474548|-0.1540306657552719|0|0|0|-1|-1|3
2021-04-22 21:22:55.194 +0100|139260.99134825|0.0737762451171875|1.048080444335938|0.1672821044921875|139260.98635825|0.0116944361772287|-0.137867755645439|-1.397155274061483|1.027300357818604|-0.3201707601547241|-0.2958814203739166|0.08220013976097107|0.05214744806289673|0.3098959922790527|XArbitraryZVertical|-0.6412819534440252|-0.056495476429935|0.04876433475564004|0.7636674472393357|-0.023744136095047|0.9849622249603271|-0.171131432056427|0|0|0|-1|-1|3
2021-04-22 21:22:55.214 +0100|139261.01130925|0.094573974609375|0.995880126953125|0.205780029296875|139261.00631925|0.005230763610956207|-0.148931213955489|-1.373623116336518|1.287304759025574|-0.159912645816803|-0.1663894653320312|0.1090843230485916|0.06075781583786011|0.3714500963687897|XArbitraryZVertical|-0.6321649569405062|-0.05918248487912902|0.04918975554562182|0.7710028079889687|-0.02906764484941959|0.980624258518219|-0.1937298029661179|0|0|0|-1|-1|3
2021-04-22 21:22:55.234 +0100|139261.03126925|0.109375|0.8676300048828125|0.2240753173828125|139261.02627925|0.01285809436483394|-0.1418886189020664|-1.351192689732029|0.9499928951263428|0.06958393007516861|0.003382342169061303|0.1334208846092224|-0.02485734224319458|0.4624208509922028|XArbitraryZVertical|-0.6234207768277554|-0.05932299998438116|0.04933186895444634|0.7780706690738296|-0.03080594912171364|0.9759838581085205|-0.2156546264886856|0|0|0|-1|-1|3
2021-04-22 21:22:55.254 +0100|139261.05123025|0.06719970703125|0.8791961669921875|0.26361083984375|139261.04624025|0.03001661069170592|-0.1237013270899063|-1.333846887931959|0.7723169326782227|0.1266003400087357|0.1465204060077667|0.1300831288099289|-0.09043580293655396|0.4416410028934479|XArbitraryZVertical|-0.6165900561218353|-0.05782694920697921|0.04999976426291559|0.7835643011725693|-0.02896355092525482|0.9720585942268372|-0.2329454869031906|0|0|0|-1|-1|3
2021-04-22 21:22:55.274 +0100|139261.07119025|0.0145416259765625|0.925140380859375|0.239776611328125|139261.06620025|0.05269346078169118|-0.09775480226509969|-1.319562491975816|0.7889548540115356|0.2140227556228638|0.2419634908437729|0.08131535351276398|-0.09453684091567993|0.5073171257972717|XArbitraryZVertical|-0.6109822746730439|-0.05471842598356536|0.05072671602660313|0.7881202912642136|-0.02426315471529961|0.9686064124107361|-0.2474131137132645|0|0|0|-1|-1|3
2021-04-22 21:22:55.294 +0100|139261.09115125|-0.0295562744140625|0.89654541015625|0.2740325927734375|139261.08616125|0.08308344773742195|-0.06212236449617082|-1.309395673882914|0.6373811364173889|0.419272780418396|0.3523926138877869|0.01752390712499619|-0.04422986507415771|0.525896430015564|XArbitraryZVertical|-0.6070775499246392|-0.04988957726465434|0.05182123825825728|0.7913801708383472|-0.01604422368109226|0.9660289287567139|-0.2579357624053955|0|0|0|-1|-1|3
2021-04-22 21:22:55.314 +0100|139261.11111125|-0.0417022705078125|0.8819732666015625|0.1707763671875|139261.10612125|0.1219600094410676|-0.0136323022142211|-1.310911386600814|0.2505845427513123|0.5880350470542908|0.4343451261520386|-0.02796106785535812|-0.08359140157699585|0.5161330103874207|XArbitraryZVertical|-0.6080439427113147|-0.04253817788254459|0.05245885953391253|0.7910255124734699|-0.00350298429839313|0.9664195775985718|-0.2569461464881897|0|0|0|-1|-1|3
2021-04-22 21:22:55.334 +0100|139261.13107225|-0.0743560791015625|0.913055419921875|0.085205078125|139261.12608225|0.1670650523290372|0.04173964953027165|-1.321427401217117|-0.2502069473266602|0.5887662172317505|0.492354154586792|-0.06033207476139069|-0.07758849859237671|0.4013339281082153|XArbitraryZVertical|-0.6127820050535837|-0.03477225911105714|0.05310062435268271|0.787698964537593|0.01029806956648827|0.9690683484077454|-0.2465782016515732|0|0|0|-1|-1|3
2021-04-22 21:22:55.354 +0100|139261.15103225|-0.0640716552734375|1.039352416992188|-0.0134124755859375|139261.14604225|0.2178728993525204|0.1051686705904759|-1.337571113308161|-0.3774251341819763|0.6583501100540161|0.4031468629837036|-0.0905461311340332|-0.006052553653717041|0.2881604433059692|XArbitraryZVertical|-0.6199894403343431|-0.02632459823698393|0.05278614232644334|0.7823898642204111|0.02426150441169739|0.9729260802268982|-0.2298402190208435|0|0|0|-1|-1|3
2021-04-22 21:22:55.374 +0100|139261.17099325|-0.054290771484375|1.049148559570312|-0.1214599609375|139261.16600325|0.2605763261562073|0.1626817920337359|-1.353524258593664|-0.3500558435916901|0.8916447758674622|0.3663547039031982|-0.09942898899316788|0.05358630418777466|0.1816703677177429|XArbitraryZVertical|-0.6271403618895274|-0.01828913688618203|0.05049716283770372|0.777052549300269|0.03491437807679176|0.9764891266822815|-0.2127209454774857|0|0|0|-1|-1|3
2021-04-22 21:22:55.394 +0100|139261.19095425|0.002227783203125|1.113296508789062|-0.1966552734375|139261.18596325|0.2955460245634098|0.2171720892791278|-1.35885843448715|-0.320423424243927|1.007216215133667|0.2358688414096832|-0.07543100416660309|0.09712791442871094|0.07344153523445129|XArbitraryZVertical|-0.6302535190095965|-0.008582813995636233|0.04651095894652021|0.7749474508256291|0.04532493278384209|0.9776251316070557|-0.2054136693477631|0|0|0|-1|-1|3
2021-04-22 21:22:55.414 +0100|139261.21091425|-0.0001678466796875|1.109085083007812|-0.2122039794921875|139261.20592425|0.3087767353015275|0.2498012501570623|-1.365433503091128|-0.4032793641090393|1.079904556274414|-0.04239277914166451|-0.06162777170538902|0.1277790069580078|-0.002692341804504395|XArbitraryZVertical|-0.6334056207315347|-0.0007575790967098047|0.04071869972452185|0.7727476152530857|0.05041207000613213|0.9789870381355286|-0.1975934952497482|0|0|0|-1|-1|3
2021-04-22 21:22:55.434 +0100|139261.23087525|0.086578369140625|1.090652465820312|-0.285888671875|139261.22588525|0.3072684534222516|0.2684967483120153|-1.376705560224198|-0.6371557712554932|1.013922810554504|-0.2155555188655853|-0.03503823280334473|0.1194695830345154|-0.05707673728466034|XArbitraryZVertical|-0.6379531015429246|0.005810128575665633|0.03309515029063649|0.769341833122566|0.05116625875234604|0.981223464012146|-0.1859641671180725|0|0|0|-1|-1|3
2021-04-22 21:22:55.454 +0100|139261.25083525|0.0977630615234375|1.107925415039062|-0.378204345703125|139261.24584525|0.3018785999336959|0.2802644044533363|-1.39349391709872|-0.9004680514335632|0.6932073831558228|-0.3367750644683838|0.05298845842480659|0.1109530925750732|-0.1382140964269638|XArbitraryZVertical|-0.6443182459246458|0.01035439150825944|0.02557761495979681|0.764259547546119|0.04878713190555573|0.9843230843544006|-0.1694935709238052|0|0|0|-1|-1|3
2021-04-22 21:22:55.474 +0100|139261.27079625|0.1037750244140625|1.140029907226562|-0.4618377685546875|139261.26580625|0.2935693668450288|0.2865283143438526|-1.412519986359304|-0.891234278678894|0.6892266869544983|-0.3817890286445618|0.05150729045271873|0.1380033493041992|-0.240791067481041|XArbitraryZVertical|-0.6513233979316525|0.01350600967067209|0.0184691906371951|0.7584552622672348|0.04454623907804489|0.9875004291534424|-0.1511908322572708|0|0|0|-1|-1|3
2021-04-22 21:22:55.494 +0100|139261.29075625|0.1334228515625|1.11187744140625|-0.523101806640625|139261.28576625|0.2728867868188151|0.2787411339642827|-1.431326505459271|-0.825861394405365|0.5831961631774902|-0.4134549200534821|0.07455739378929138|0.1376705169677734|-0.344785749912262|XArbitraryZVertical|-0.6579772175350233|0.01548253822446138|0.0113529577826595|0.7527930744612993|0.03825027123093605|0.9902898669242859|-0.133652538061142|0|0|0|-1|-1|3
2021-04-22 21:22:55.514 +0100|139261.31071725|0.1399688720703125|1.120773315429688|-0.5814208984375|139261.30572725|0.2392656822091219|0.2543239846297525|-1.448175196650416|-0.6644165515899658|0.3425015807151794|-0.4301566779613495|0.1053497344255447|0.1283126473426819|-0.4251059889793396|XArbitraryZVertical|-0.6637446864965731|0.01589833645712259|0.005270624695938969|0.7477717358845059|0.03077335096895695|0.9924914240837097|-0.1183804646134377|0|0|0|-1|-1|3
2021-04-22 21:22:55.534 +0100|139261.33067725|0.1447906494140625|1.103805541992188|-0.6388092041015625|139261.32568725|0.1926431790130151|0.2122602239808825|-1.460600543516964|-0.4092383086681366|0.08933579176664352|-0.3733447790145874|0.1197757124900818|0.1260911822319031|-0.4838024377822876|XArbitraryZVertical|-0.6678545808428075|0.01475486011784057|0.0009047910645534157|0.7441449941305964|0.0231680478900671|0.9939345717430115|-0.1075051054358482|0|0|0|-1|-1|3
2021-04-22 21:22:55.554 +0100|139261.35063825|0.13641357421875|1.017684936523438|-0.663909912109375|139261.34564825|0.1358113429998105|0.1553367372280346|-1.467512752350235|-0.135353222489357|-0.1043925508856773|-0.3173613250255585|0.1249936446547508|0.08989346027374268|-0.5447446703910828|XArbitraryZVertical|-0.6700157346991525|0.01218875659513173|-0.001599126543227072|0.7422452616998048|0.01595121435821056|0.9946709871292114|-0.1018607020378113|0|0|0|-1|-1|3
2021-04-22 21:22:55.574 +0100|139261.37059825|0.1002197265625|0.972198486328125|-0.6391754150390625|139261.36560825|0.07434300526896219|0.08934201324288067|-1.467517752022638|0.2484461963176727|-0.3162507712841034|-0.3102096021175385|0.1126881018280983|0.02542448043823242|-0.5657562017440796|XArbitraryZVertical|-0.6697680019053202|0.008279622644873362|-0.002312033032836233|0.7425207075586907|0.009198530577123165|0.9946715235710144|-0.1026845425367355|0|0|0|-1|-1|3
2021-04-22 21:22:55.594 +0100|139261.39055925|0.0922088623046875|0.883758544921875|-0.610107421875|139261.38556925|0.02476571052077692|0.03344820698193189|-1.459555866881663|0.5564286708831787|-0.3845579624176025|-0.1872438043355942|0.09775789827108383|-0.04678213596343994|-0.5186718106269836|XArbitraryZVertical|-0.666713603790812|0.00420898798804456|-0.001920941249217707|0.7452997670978346|0.003712480189278722|0.9938191771507263|-0.1109505072236061|0|0|0|-1|-1|3
2021-04-22 21:22:55.614 +0100|139261.41052025|0.05419921875|0.7734375|-0.5305023193359375|139261.40552925|-0.003496683942120264|-0.00334535425810318|-1.447921364539239|0.5844941139221191|-0.4515913724899292|-0.1353125125169754|0.08018241822719574|-0.1335428953170776|-0.4659641981124878|XArbitraryZVertical|-0.6623570789130933|-9.512400912870781e-05|-0.0002019282644855126|0.7491883421206514|-0.000410028820624575|0.9924603700637817|-0.1225661784410477|0|0|0|-1|-1|3
2021-04-22 21:22:55.633 +0100|139261.43048025|0.0032196044921875|0.721466064453125|-0.4196624755859375|139261.42549025|-0.02421110726009461|-0.03432837311618646|-1.437052558805731|0.4068744480609894|-0.5259297490119934|-0.1558432579040527|0.04449313506484032|-0.2244219183921814|-0.3860783576965332|XArbitraryZVertical|-0.6582865265121532|-0.004951802400294901|0.002186150178375668|0.7527481843056344|-0.004576694220304489|0.9910696148872375|-0.1332686543464661|0|0|0|-1|-1|3
2021-04-22 21:22:55.653 +0100|139261.45044125|-0.0412139892578125|0.742218017578125|-0.3794403076171875|139261.44545125|-0.04965219584811677|-0.07081745909115433|-1.430376429821148|0.2877519130706787|-0.6298534870147705|-0.1950305253267288|-0.003799623809754848|-0.2791127562522888|-0.2835314869880676|XArbitraryZVertical|-0.6558096700998848|-0.01045063735046459|0.0044782990329844|0.754840739752686|-0.009903309866786003|0.9901573061943054|-0.1396089196205139|0|0|0|-1|-1|3
2021-04-22 21:22:55.673 +0100|139261.47040125|-0.0409698486328125|0.76177978515625|-0.3807373046875|139261.46541125|-0.07937184288692609|-0.1125530825008172|-1.425476994175283|0.1977210342884064|-0.6602208018302917|-0.2709548473358154|-0.02649131044745445|-0.2432588934898376|-0.2183341830968857|XArbitraryZVertical|-0.6540468641516302|-0.01661834736127718|0.006781326940274622|0.7562411652759011|-0.01626434549689293|0.9894596934318542|-0.1438930630683899|0|0|0|-1|-1|3
2021-04-22 21:22:55.693 +0100|139261.49036225|-0.04962158203125|0.768707275390625|-0.3567352294921875|139261.48537225|-0.1111465210692676|-0.1577123903304604|-1.421869419796671|0.09868930280208588|-0.7137103080749512|-0.2325257062911987|-0.02080944366753101|-0.2257011532783508|-0.2226788550615311|XArbitraryZVertical|-0.6528252550973965|-0.02346683550154038|0.009365940438289576|0.7570872020765745|-0.02330423705279827|0.988930881023407|-0.1465369910001755|0|0|0|-1|-1|3
2021-04-22 21:22:55.713 +0100|139261.51032225|-0.0544281005859375|0.86328125|-0.3752593994140625|139261.50533225|-0.1284617729092424|-0.1890414013481954|-1.418119146346167|0.251812607049942|-0.7260112166404724|-0.09198901057243347|-0.0144508108496666|-0.2050573229789734|-0.2120426744222641|XArbitraryZVertical|-0.6514747895005191|-0.02987761028191126|0.01282734264767952|0.7579732764720341|-0.02857947908341885|0.9883674383163452|-0.149375855922699|0|0|0|-1|-1|3
2021-04-22 21:22:55.733 +0100|139261.53028325|-0.04571533203125|0.8538360595703125|-0.35107421875|139261.52529325|-0.1312376224519547|-0.2058545287858606|-1.411120625996615|0.4138695001602173|-0.6881687641143799|-0.07608629763126373|-0.02421749383211136|-0.1197402477264404|-0.2103240340948105|XArbitraryZVertical|-0.6487688656253271|-0.03575098207401319|0.01683083694737926|0.7599589873800235|-0.03249991312623024|0.9872788786888123|-0.1556416451931|0|0|0|-1|-1|3
2021-04-22 21:22:55.753 +0100|139261.55024325|-0.056915283203125|0.8482666015625|-0.3231201171875|139261.54525325|-0.1310527668322951|-0.2196616355232579|-1.402560563579075|0.4105101227760315|-0.7245621681213379|-0.1213751286268234|-0.008695792406797409|-0.1287647485733032|-0.1775359511375427|XArbitraryZVertical|-0.6454157557139076|-0.04157170129112152|0.02084221200722725|0.762414621513685|-0.03648596256971359|0.9858816862106323|-0.1634205877780914|0|0|0|-1|-1|3
2021-04-22 21:22:55.773 +0100|139261.57020425|-0.06585693359375|0.86669921875|-0.27374267578125|139261.56521425|-0.1383456561786058|-0.2409481948301885|-1.393856660283288|0.4220229089260101|-0.6645116806030273|-0.2009572088718414|-0.01881978660821915|-0.133556604385376|-0.1378418207168579|XArbitraryZVertical|-0.6420584635853388|-0.04789527526721613|0.02434016771188732|0.7647710236719486|-0.04200221598148346|0.9843869805335999|-0.1709339469671249|0|0|0|-1|-1|3
2021-04-22 21:22:55.793 +0100|139261.59016425|-0.070953369140625|0.8968505859375|-0.215606689453125|139261.58517425|-0.1535175514761241|-0.2684382557989476|-1.383923802286828|0.4542495012283325|-0.5914844870567322|-0.325129508972168|-0.01746666058897972|-0.1078796982765198|-0.08708488941192627|XArbitraryZVertical|-0.6383496224673608|-0.05424702866427294|0.0266151134801648|0.7673714114116948|-0.04927574098110199|0.9825900793075562|-0.1791340410709381|0|0|0|-1|-1|3
2021-04-22 21:22:55.813 +0100|139261.61012525|-0.0862884521484375|0.9897613525390625|-0.17047119140625|139261.60513525|-0.181072724977558|-0.3063659155991432|-1.374921003038698|0.3584738671779633|-0.5510070323944092|-0.4219622910022736|-0.01135518774390221|-0.0779995322227478|-0.00132519006729126|XArbitraryZVertical|-0.6352391489843264|-0.060741595744585|0.02737177685258152|0.7694365783650007|-0.05869836360216141|0.980877697467804|-0.1855633705854416|0|0|0|-1|-1|3
2021-04-22 21:22:55.833 +0100|139261.63008625|-0.1167449951171875|1.115524291992188|-0.1177978515625|139261.62509525|-0.2101295809672587|-0.3453667769615117|-1.364420353120276|0.4956089556217194|-0.5085892677307129|-0.4792717695236206|-0.02372212707996368|0.05056297779083252|0.05559360980987549|XArbitraryZVertical|-0.6316939141931808|-0.06749385921823887|0.02755209500922123|0.77178261367858|-0.06937219202518463|0.9787799715995789|-0.1928147524595261|0|0|0|-1|-1|3
2021-04-22 21:22:55.853 +0100|139261.65004625|-0.1173858642578125|1.080322265625|-0.1151123046875|139261.64505625|-0.2368579593877191|-0.3808331250471446|-1.349735514713198|0.5157575607299805|-0.4601079225540161|-0.5705823302268982|-0.03545945882797241|0.1383028030395508|0.09729498624801636|XArbitraryZVertical|-0.626664106504751|-0.07425674540900203|0.0268403944660159|0.7752791558433644|-0.08149959146976471|0.9756653904914856|-0.2035560607910156|0|0|0|-1|-1|3
2021-04-22 21:22:55.873 +0100|139261.67000725|-0.1176605224609375|1.103225708007812|-0.1294708251953125|139261.66501725|-0.265058670224597|-0.4170281469075903|-1.335943704215547|0.5528634786605835|-0.4126138687133789|-0.5476984977722168|-0.02253726869821548|0.1021280884742737|0.1032607704401016|XArbitraryZVertical|-0.6221398651292782|-0.08101628870598834|0.02559965388249075|0.7782821218737682|-0.09425392746925354|0.9725486636161804|-0.2127566933631897|0|0|0|-1|-1|3
2021-04-22 21:22:55.893 +0100|139261.68996725|-0.120086669921875|1.065658569335938|-0.1291351318359375|139261.68497725|-0.282536284170289|-0.4418107639507982|-1.320404180194071|0.6836079359054565|-0.3654724657535553|-0.4623513519763947|-0.009715139865875244|0.1349599957466125|0.09465940296649933|XArbitraryZVertical|-0.6167806356863448|-0.08709618888215698|0.02452826034514913|0.7819171329260655|-0.1059468910098076|0.9688153266906738|-0.223991796374321|0|0|0|-1|-1|3
2021-04-22 21:22:55.913 +0100|139261.70992825|-0.1136627197265625|0.9614105224609375|-0.1453399658203125|139261.70493825|-0.2983727245368256|-0.4636008565430335|-1.308218109687369|0.1470398008823395|-0.2599538862705231|-0.4377807676792145|-0.007218465209007263|0.08035784959793091|0.1207392960786819|XArbitraryZVertical|-0.6126988700991759|-0.09226890832777281|0.02342782504097906|0.7845621109605003|-0.1160729750990868|0.9657239317893982|-0.2321730852127075|0|0|0|-1|-1|3
2021-04-22 21:22:55.933 +0100|139261.72988825|-0.092132568359375|1.0880126953125|-0.2008056640625|139261.72489825|-0.3164599993991374|-0.4873178567036369|-1.302642008347021|0.4004463255405426|-0.3472190797328949|-0.3089974820613861|0.01746778935194016|0.03113067150115967|0.02949082851409912|XArbitraryZVertical|-0.6112130183974219|-0.09676587209003194|0.02281893552948135|0.7851970904841001|-0.124066099524498|0.964261531829834|-0.234110027551651|0|0|0|-1|-1|3
2021-04-22 21:22:55.953 +0100|139261.74984925|-0.0842742919921875|0.95635986328125|-0.2306060791015625|139261.74485925|-0.329922305354311|-0.5074252272418719|-1.294806436510824|0.448069840669632|-0.3313804864883423|-0.3474515676498413|0.03440800309181213|0.08949542045593262|0.04695802927017212|XArbitraryZVertical|-0.6087613860322907|-0.1016227846290453|0.02253434021046043|0.7864952850433857|-0.1324156075716019|0.9621559381484985|-0.2381647676229477|0|0|0|-1|-1|3
2021-04-22 21:22:55.973 +0100|139261.76980925|-0.0997161865234375|0.972412109375|-0.2000732421875|139261.76481925|-0.330063990012833|-0.5151737872138085|-1.283997988932674|0.5356577038764954|-0.3797188401222229|-0.2755299806594849|0.06066720187664032|0.01722514629364014|0.01131978631019592|XArbitraryZVertical|-0.6046928659930624|-0.1061282666388542|0.02323575069191932|0.7890142242718079|-0.1393724381923676|0.959154486656189|-0.2461666613817215|0|0|0|-1|-1|3
2021-04-22 21:22:55.993 +0100|139261.78977025|-0.08465576171875|0.9005126953125|-0.2187652587890625|139261.78478025|-0.3325258209160489|-0.5245487035495348|-1.274219517835736|0.3967222273349762|-0.3355675637722015|-0.2924202680587769|0.03972078859806061|-0.02213793992996216|0.04298111796379089|XArbitraryZVertical|-0.6011004114735126|-0.1104545415939736|0.0236296494743663|0.7911511034541949|-0.1463648825883865|0.9563425183296204|-0.2529561817646027|0|0|0|-1|-1|3
2021-04-22 21:22:56.013 +0100|139261.80973125|-0.093170166015625|0.8798675537109375|-0.2097015380859375|139261.80474025|-0.3392326888850161|-0.5378586630083648|-1.26750899832223|0.26788330078125|-0.3534936606884003|-0.2941035628318787|0.07455678284168243|-0.04424911737442017|0.02928867936134338|XArbitraryZVertical|-0.598838155678815|-0.1146622510571613|0.02394759721456926|0.7922575383253626|-0.1530025899410248|0.9543598294258118|-0.2564908564090729|0|0|0|-1|-1|3
2021-04-22 21:22:56.033 +0100|139261.82969125|-0.0746917724609375|0.8684844970703125|-0.23284912109375|139261.82470125|-0.3463980041561798|-0.5511098118486726|-1.262548110258827|0.1880923509597778|-0.2945270836353302|-0.270073264837265|0.05843143165111542|-0.08483940362930298|0.03300875425338745|XArbitraryZVertical|-0.5972644599305864|-0.1184880568601456|0.02429951159411889|0.7928716379175048|-0.1588651686906815|0.9528664946556091|-0.2584714889526367|0|0|0|-1|-1|3
2021-04-22 21:22:56.053 +0100|139261.84965225|-0.0635223388671875|0.8628692626953125|-0.2709503173828125|139261.84466125|-0.3576065861818943|-0.5684123824302847|-1.259333924214133|0.009098801761865616|-0.3940301239490509|-0.339810699224472|0.09469413757324219|-0.08732312917709351|0.01525372266769409|XArbitraryZVertical|-0.5965459681507415|-0.1224780451417502|0.02450766665754944|0.7927998691308196|-0.1649612635374069|0.9518864154815674|-0.2582640647888184|0|0|0|-1|-1|3
2021-04-22 21:22:56.081 +0100|139261.86961225|-0.081207275390625|0.869384765625|-0.2953948974609375|139261.86462225|-0.3774482767134582|-0.5956462866646863|-1.257460541507389|-0.0681791752576828|-0.4527018070220947|-0.4015534222126007|0.1086928397417068|-0.08799862861633301|-0.02127537131309509|XArbitraryZVertical|-0.5967690279801092|-0.1276357065279325|0.02446178250630654|0.7918191335688125|-0.1729327142238617|0.9513106346130371|-0.2551517188549042|0|0|0|-1|-1|3
2021-04-22 21:22:56.093 +0100|139261.88957325|-0.1019439697265625|0.86334228515625|-0.29815673828125|139261.88458325|-0.4008181813277648|-0.6265972626102975|-1.255595908801172|-0.1898941695690155|-0.4585005044937134|-0.4662631750106812|0.09510010480880737|-0.08182227611541748|-0.04917749762535095|XArbitraryZVertical|-0.5972431344401409|-0.1332047119466723|0.02413193457512792|0.7905534930267488|-0.1817856431007385|0.9507342576980591|-0.2511142790317535|0|0|0|-1|-1|3
2021-04-22 21:22:56.113 +0100|139261.90953325|-0.112640380859375|0.9825592041015625|-0.2998504638671875|139261.90454325|-0.4150985658576754|-0.6487160163053052|-1.250490974873923|0.2867567539215088|-0.4568775594234467|-0.2993469834327698|0.08667844533920288|-0.07130086421966553|-0.09805536270141602|XArbitraryZVertical|-0.5961184108968121|-0.1385441640827452|0.02416370910549579|0.7904837540170649|-0.1902249604463577|0.9491392970085144|-0.2508967220783234|0|0|0|-1|-1|3
2021-04-22 21:22:56.132 +0100|139261.92949425|-0.1597442626953125|0.912109375|-0.3085784912109375|139261.92450425|-0.4161149067633121|-0.6580675359600159|-1.242126535795696|0.3228166699409485|-0.4521102607250214|-0.3917672038078308|0.05876968801021576|0.003860354423522949|-0.0521300733089447|XArbitraryZVertical|-0.593089448831789|-0.1433713818592079|0.02499858042816426|0.7918741356581269|-0.1974113881587982|0.9464725255966187|-0.2553791105747223|0|0|0|-1|-1|3
2021-04-22 21:22:56.152 +0100|139261.94945425|-0.1898345947265625|0.9349822998046875|-0.3199310302734375|139261.94446425|-0.4246025003586423|-0.6756196898862615|-1.233514535320182|0.1245505511760712|-0.5160008668899536|-0.48911052942276|0.04075430333614349|-0.02613109350204468|-0.04942029714584351|XArbitraryZVertical|-0.5904193446094147|-0.1493046752860209|0.02521418564549307|0.7927657570602713|-0.206953376531601|0.9436576962471008|-0.258226215839386|0|0|0|-1|-1|3
2021-04-22 21:22:56.172 +0100|139261.96941525|-0.2171783447265625|0.995208740234375|-0.32958984375|139261.96442525|-0.4279386880608837|-0.6885073403458106|-1.224664622632483|0.3072032630443573|-0.5631409287452698|-0.4269907772541046|0.02246147394180298|0.02142053842544556|-0.09118732810020447|XArbitraryZVertical|-0.5873587158100796|-0.1549892307823845|0.02599517399609733|0.793922131663612|-0.2155617773532867|0.940692126750946|-0.2619761526584625|0|0|0|-1|-1|3
2021-04-22 21:22:56.192 +0100|139261.98937525|-0.2412872314453125|0.9400177001953125|-0.3441925048828125|139261.98438525|-0.4288521412677844|-0.6998080613503714|-1.214660744344755|0.2867983877658844|-0.5902671813964844|-0.4256667494773865|-0.005925759673118591|0.03874707221984863|-0.06666362285614014|XArbitraryZVertical|-0.5837205121911035|-0.1609836745825868|0.02700521791580529|0.7953775385623477|-0.2245585918426514|0.9372511506080627|-0.2667092382907867|0|0|0|-1|-1|3
2021-04-22 21:22:56.212 +0100|139262.00933625|-0.2528839111328125|0.9305572509765625|-0.3711395263671875|139262.00434625|-0.4284443500796542|-0.7104728757165353|-1.205519848526577|0.3299035727977753|-0.6081750392913818|-0.371976912021637|-0.01011979579925537|0.01394283771514893|-0.07987827062606812|XArbitraryZVertical|-0.5802828187052784|-0.1669744115732655|0.02848365866150406|0.7966054849897543|-0.2329683154821396|0.9340250492095947|-0.2707827985286713|0|0|0|-1|-1|3
2021-04-22 21:22:56.232 +0100|139262.02929725|-0.273468017578125|0.9291839599609375|-0.3818359375|139262.02430625|-0.4243982125444699|-0.7183368880767069|-1.195929517710925|0.4190019071102142|-0.6021154522895813|-0.2789739966392517|-0.01714317500591278|-0.001951932907104492|-0.09941640496253967|XArbitraryZVertical|-0.5764005339253261|-0.172989696919033|0.03048165352501524|0.7980651644761824|-0.2409748136997223|0.9305564165115356|-0.2756739854812622|0|0|0|-1|-1|3
2021-04-22 21:22:56.252 +0100|139262.04925725|-0.2884521484375|0.8989715576171875|-0.38153076171875|139262.04426725|-0.415063905812128|-0.7207894493324547|-1.185904172196504|0.4747655391693115|-0.5751766562461853|-0.2351331114768982|-0.03177689015865326|-0.003056228160858154|-0.1028857827186584|XArbitraryZVertical|-0.571948797827353|-0.178426627275878|0.03293767576648692|0.7999710955691132|-0.2477949559688568|0.9268389344215393|-0.2820770144462585|0|0|0|-1|-1|3
2021-04-22 21:22:56.273 +0100|139262.06921825|-0.318878173828125|0.88555908203125|-0.355926513671875|139262.06422825|-0.4041936354687328|-0.7214427282416078|-1.176307443425703|0.4690978229045868|-0.5218158364295959|-0.1630109846591949|-0.03921839594841003|-0.03095036745071411|-0.08646413683891296|XArbitraryZVertical|-0.5674944468510692|-0.1834661732952336|0.03559176985618231|0.801887453767308|-0.2538421750068665|0.923193097114563|-0.2885804176330566|0|0|0|-1|-1|3
2021-04-22 21:22:56.292 +0100|139262.08917825|-0.3287506103515625|0.866851806640625|-0.3505096435546875|139262.08418825|-0.3921799525991406|-0.719387900531533|-1.167325257013132|0.4033947288990021|-0.4340029954910278|-0.1395168453454971|-0.06449413299560547|-0.03592944145202637|-0.05682894587516785|XArbitraryZVertical|-0.5631581307752652|-0.1875877653916141|0.03808108032945742|0.8038742680400907|-0.2587026059627533|0.9197037220001221|-0.2953275144100189|0|0|0|-1|-1|3
2021-04-22 21:22:56.312 +0100|139262.10913925|-0.347381591796875|0.8583221435546875|-0.344268798828125|139262.10414925|-0.3856763118463658|-0.7213413053745421|-1.160061377825384|0.1991607397794724|-0.393524169921875|-0.1619665771722794|-0.06915631890296936|-0.05783367156982422|-0.05005258321762085|XArbitraryZVertical|-0.5598536950821144|-0.1914384148225485|0.03983548561474446|0.8051885172115973|-0.263683944940567|0.9168276190757751|-0.2998303472995758|0|0|0|-1|-1|3
2021-04-22 21:22:56.332 +0100|139262.12909925|-0.347900390625|0.8740234375|-0.341461181640625|139262.12410925|-0.3853229915387705|-0.7278044203761584|-1.155013673457243|0.07152915000915527|-0.3203072845935822|-0.1456109583377838|-0.08055201172828674|-0.04880279302597046|-0.04239106178283691|XArbitraryZVertical|-0.5578439369587158|-0.1949986210198124|0.04080151737174467|0.8056805349191369|-0.2686914205551147|0.9148004651069641|-0.3015713691711426|0|0|0|-1|-1|3
2021-04-22 21:22:56.352 +0100|139262.14906025|-0.353668212890625|0.8791961669921875|-0.33453369140625|139262.14407025|-0.3867906710326899|-0.7342909579580232|-1.151413939373099|0.0133758382871747|-0.2222816497087479|-0.1078862100839615|-0.07863983511924744|-0.03829437494277954|-0.03829514980316162|XArbitraryZVertical|-0.5565391966495427|-0.197817627337383|0.0413122302685365|0.8058695908489948|-0.2728466689586639|0.9133406281471252|-0.3022646307945251|0|0|0|-1|-1|3
2021-04-22 21:22:56.372 +0100|139262.16902025|-0.356597900390625|0.866668701171875|-0.32110595703125|139262.16403025|-0.3913641034768176|-0.7420466320666543|-1.14886284459492|-0.06667525321245193|-0.1465244144201279|-0.1015509963035583|-0.07529470324516296|-0.03679490089416504|-0.03195950388908386|XArbitraryZVertical|-0.5559032899415155|-0.2001090562558248|0.04112258591695801|0.805752411429871|-0.2767563462257385|0.912298858165741|-0.3018558025360107|0|0|0|-1|-1|3
2021-04-22 21:22:56.392 +0100|139262.18898125|-0.3670654296875|0.8961181640625|-0.3058013916015625|139262.18399125|-0.3982396121205867|-0.7506133459613774|-1.147413254941401|-0.1450532972812653|-0.07966771721839905|-0.091799296438694|-0.08054521679878235|-0.03967922925949097|-0.01655951142311096|XArbitraryZVertical|-0.555891989724272|-0.2019003398652015|0.04044492253808953|0.8053475892296429|-0.2802338898181915|0.9117042422294617|-0.3004406988620758|0|0|0|-1|-1|3
2021-04-22 21:22:56.412 +0100|139262.2089425|-0.360076904296875|0.909942626953125|-0.30218505859375|139262.2039515|-0.4088367811550759|-0.7616645378178036|-1.146771466194167|-0.2196376621723175|-0.05125865712761879|-0.1150338724255562|-0.08208736777305603|-0.01350593566894531|-0.005197912454605103|XArbitraryZVertical|-0.5565136343393058|-0.2035143418618774|0.03912315282752599|0.8045769854699789|-0.2839407622814178|0.911440372467041|-0.2977489829063416|0|0|0|-1|-1|3
2021-04-22 21:22:56.432 +0100|139262.2289025|-0.3473663330078125|0.949920654296875|-0.3128662109375|139262.2239125|-0.4209409190182575|-0.7739979100312264|-1.146703938430068|-0.2000741213560104|-0.06080246716737747|-0.103061631321907|-0.06983375549316406|0.005320549011230469|-0.01223382353782654|XArbitraryZVertical|-0.5574891518832146|-0.2051139114498605|0.03767789984788125|0.8035636737960685|-0.2876341342926025|0.9114125967025757|-0.2942682504653931|0|0|0|-1|-1|3
2021-04-22 21:22:56.452 +0100|139262.2488635|-0.3447723388671875|0.9565887451171875|-0.3166046142578125|139262.2438735|-0.4285395615549842|-0.7819850507294249|-1.145703379106396|-0.02662777155637741|-0.0315665528178215|-0.04193143174052238|-0.05464312434196472|0.04130095243453979|-0.02306428551673889|XArbitraryZVertical|-0.5577639638661547|-0.2063860144357997|0.03664398536989043|0.8030949026881371|-0.2906177341938019|0.9110004305839539|-0.2926083505153656|0|0|0|-1|-1|3
2021-04-22 21:22:56.472 +0100|139262.2688235|-0.3361053466796875|0.9266357421875|-0.3203887939453125|139262.2638335|-0.4289069720758977|-0.7827781412850715|-1.142967900952985|0.1095401868224144|-0.006612466182559729|-0.02698177844285965|-0.0528683066368103|0.04415673017501831|-0.02459618449211121|XArbitraryZVertical|-0.5568088452143641|-0.2071042473130737|0.03614332030886943|0.8035953532357243|-0.2926061749458313|0.9098688960075378|-0.2941434681415558|0|0|0|-1|-1|3
2021-04-22 21:22:56.492 +0100|139262.2887845|-0.33538818359375|0.9082183837890625|-0.3073883056640625|139262.2837945|-0.4270330606304051|-0.7818544579961919|-1.139542067282583|0.1636648774147034|-0.03183505311608315|-0.02613915503025055|-0.03905883431434631|0.005666494369506836|-0.02335172891616821|XArbitraryZVertical|-0.5554036509278084|-0.207881703573516|0.03592101080694573|0.8043767153235452|-0.2945290803909302|0.9084421992301941|-0.2966239750385284|0|0|0|-1|-1|3
2021-04-22 21:22:56.512 +0100|139262.3087445|-0.3282012939453125|0.887725830078125|-0.2890777587890625|139262.3037545|-0.423814302178192|-0.7796996085195733|-1.135747256155086|0.1851765364408493|-0.01836728677153587|-0.03487103804945946|-0.04164126515388489|-0.0048409104347229|-0.0003100037574768066|XArbitraryZVertical|-0.5537443036943379|-0.2085992969526555|0.03582470905833365|0.8053386176010288|-0.296310693025589|0.9068493843078613|-0.2997071444988251|0|0|0|-1|-1|3
2021-04-22 21:22:56.532 +0100|139262.3287055|-0.336029052734375|0.8949737548828125|-0.268524169921875|139262.3237155|-0.42058964976676|-0.7775940568437634|-1.132428549570052|0.1410574167966843|-0.03773991763591766|-0.04564068466424942|-0.02853584289550781|-0.01717013120651245|0.01771515607833862|XArbitraryZVertical|-0.5522498242953751|-0.2092447568984468|0.03584936912094671|0.8061959113272897|-0.2977889180183411|0.9054456949234009|-0.3024735152721405|0|0|0|-1|-1|3
2021-04-22 21:22:56.552 +0100|139262.3486655|-0.346923828125|0.9005279541015625|-0.264739990234375|139262.3436755|-0.4199294743163974|-0.777984698503418|-1.129967811291622|0.05451012775301933|-0.04070907831192017|-0.06068345904350281|-0.04104557633399963|-0.01076704263687134|0.03900611400604248|XArbitraryZVertical|-0.5512857637480155|-0.2100294038991032|0.03571089099773003|0.8066576714565497|-0.2994698584079742|0.9043984413146973|-0.3039433062076569|0|0|0|-1|-1|3
2021-04-22 21:22:56.572 +0100|139262.3686265|-0.3441619873046875|0.9082183837890625|-0.281219482421875|139262.3636365|-0.4238545579417096|-0.7827303164130408|-1.128381191954171|-0.07507624477148056|-0.07168430089950562|-0.1196470931172371|-0.044576495885849|0.0009279251098632812|0.03473794460296631|XArbitraryZVertical|-0.5510427933774841|-0.2111492963241805|0.03510426708738094|0.8065579047787562|-0.3019203543663025|0.9037203192710876|-0.3035356402397156|0|0|0|-1|-1|3
2021-04-22 21:22:56.592 +0100|139262.3885875|-0.340301513671875|0.92657470703125|-0.3026885986328125|139262.3835965|-0.4320216134373391|-0.7919199296249519|-1.127606411859984|-0.1101813539862633|-0.07911894470453262|-0.1204955726861954|-0.04035577178001404|0.008553445339202881|0.01625266671180725|XArbitraryZVertical|-0.5514706041959112|-0.2127444742501086|0.03418169772960185|0.8058855814826706|-0.3051950037479401|0.9033883810043335|-0.301239937543869|0|0|0|-1|-1|3
2021-04-22 21:22:56.612 +0100|139262.4085475|-0.3397674560546875|0.9295501708984375|-0.3176422119140625|139262.4035575|-0.4401493512010917|-0.8012800595612228|-1.127166160563527|-0.09584241360425949|-0.1044652611017227|-0.0997895821928978|-0.02945131063461304|0.02506929636001587|-0.01142576336860657|XArbitraryZVertical|-0.5520226904275934|-0.2143536913745515|0.03339650769008858|0.8051137753137738|-0.3082869648933411|0.9031994938850403|-0.2986468970775604|0|0|0|-1|-1|3
2021-04-22 21:22:56.632 +0100|139262.4285085|-0.3432464599609375|0.94793701171875|-0.3246917724609375|139262.4235185|-0.44713372395228|-0.8101707126509763|-1.126810173052042|-0.0520973764359951|-0.1198248788714409|-0.08099379390478134|-0.02764350175857544|0.03332465887069702|-0.02550756931304932|XArbitraryZVertical|-0.5524998516653672|-0.2160692117770767|0.03296436730113344|0.8043454194101053|-0.3111629486083984|0.9030466079711914|-0.2961160242557526|0|0|0|-1|-1|3
2021-04-22 21:22:56.652 +0100|139262.4484685|-0.34442138671875|0.967193603515625|-0.3322296142578125|139262.4434785|-0.4519972980591782|-0.8173200316934967|-1.125884679354065|0.01970715448260307|-0.1178211197257042|-0.06522992253303528|-0.03110498189926147|0.04689079523086548|-0.03299704194068909|XArbitraryZVertical|-0.5525814172240239|-0.2177752920653668|0.03278267958172674|0.8038364582997769|-0.3138812482357025|0.9026486873626709|-0.2944554090499878|0|0|0|-1|-1|3
2021-04-22 21:22:56.671 +0100|139262.4684295|-0.3453521728515625|0.9724578857421875|-0.3363037109375|139262.4634395|-0.4526284040960395|-0.8204158792812412|-1.123995927717341|0.1261829733848572|-0.1047753617167473|-0.03332933411002159|-0.02859756350517273|0.06647360324859619|-0.03787407279014587|XArbitraryZVertical|-0.5519302685342988|-0.2192050459474381|0.03297037647291296|0.8038874761698417|-0.3160376846790314|0.9018341898918152|-0.2946442663669586|0|0|0|-1|-1|3
2021-04-22 21:22:56.691 +0100|139262.4883895|-0.3519439697265625|0.9693450927734375|-0.336151123046875|139262.4833995|-0.4474504595777804|-0.8176468197594834|-1.121109093488105|0.2261393666267395|-0.06950093805789948|-0.009274331852793694|-0.02876785397529602|0.07826852798461914|-0.03775367140769958|XArbitraryZVertical|-0.550383333029842|-0.2200667204110713|0.03365801426318365|0.8046837815154914|-0.3171186149120331|0.9005830883979797|-0.2972976565361023|0|0|0|-1|-1|3
2021-04-22 21:22:56.711 +0100|139262.5083505|-0.346466064453125|0.937744140625|-0.3313751220703125|139262.5033605|-0.4395727065577612|-0.811674948488735|-1.117314539676907|0.2495470196008682|-0.04550010338425636|-0.01709328219294548|-0.03254291415214539|0.06307882070541382|-0.03554463386535645|XArbitraryZVertical|-0.5482646774693258|-0.220539731859811|0.03436503670937272|0.8059697390617285|-0.317814439535141|0.8989272117614746|-0.3015361428260803|0|0|0|-1|-1|3
2021-04-22 21:22:56.731 +0100|139262.5283105|-0.336181640625|0.923126220703125|-0.327117919921875|139262.5233205|-0.4315447952402287|-0.8050987836017359|-1.113633297262867|0.2423978745937347|-0.01898125186562538|0.004067839588969946|-0.02545058727264404|0.02906835079193115|-0.02315893769264221|XArbitraryZVertical|-0.5461738619987379|-0.2207682754189859|0.03501032060423414|0.8072978979456137|-0.3182080984115601|0.897308349609375|-0.3059109747409821|0|0|0|-1|-1|3
2021-04-22 21:22:56.751 +0100|139262.5482715|-0.3406829833984375|0.9105987548828125|-0.32208251953125|139262.5432815|-0.4247864325432835|-0.7992464786288834|-1.110540735307819|0.1806740015745163|-0.001821492332965136|-0.01509378291666508|-0.01947563886642456|0.02447152137756348|-0.01497408747673035|XArbitraryZVertical|-0.5444171339569627|-0.2208152100901672|0.03548401031564923|0.8084501071065714|-0.318399965763092|0.8959389925003052|-0.3097012639045715|0|0|0|-1|-1|3
2021-04-22 21:22:56.771 +0100|139262.5682325|-0.3454132080078125|0.912384033203125|-0.3166961669921875|139262.5632415|-0.421190847696436|-0.7959233205884524|-1.108336444825007|0.0899510532617569|0.01605859771370888|-0.03403045237064362|-0.02141547203063965|0.01605343818664551|-0.008203089237213135|XArbitraryZVertical|-0.5432822611378985|-0.2208506531346897|0.03556639874124758|0.8091999921403511|-0.3187794983386993|0.8949577212333679|-0.3121387362480164|0|0|0|-1|-1|3
2021-04-22 21:22:56.791 +0100|139262.5881925|-0.343292236328125|0.920928955078125|-0.3190765380859375|139262.5832025|-0.4208350753835978|-0.7950426224004669|-1.107101320081973|0.02141823619604111|0.04159516841173172|-0.03150391206145287|-0.02346503734588623|0.01813113689422607|-0.004737764596939087|XArbitraryZVertical|-0.5428112659511035|-0.2208150752411248|0.03520968279265718|0.8095413550821536|-0.3192934393882751|0.8944060206413269|-0.3131932616233826|0|0|0|-1|-1|3
2021-04-22 21:22:56.811 +0100|139262.6081535|-0.345550537109375|0.920379638671875|-0.3184661865234375|139262.6031635|-0.4223052758501977|-0.7952284609921517|-1.106331938023814|-0.02034104615449905|0.07588975876569748|-0.05250835418701172|-0.02425843477249146|0.03063666820526123|-0.005871891975402832|XArbitraryZVertical|-0.542691642850162|-0.2206309992600927|0.03450210414946953|0.8097021225790335|-0.3198427557945251|0.8940616250038147|-0.313615471124649|0|0|0|-1|-1|3
2021-04-22 21:22:56.831 +0100|139262.6281135|-0.356689453125|0.9298095703125|-0.307525634765625|139262.6231235|-0.4248318307463911|-0.7957341042793471|-1.105916199880986|-0.03082551062107086|0.1123804450035095|-0.03932153433561325|-0.02703887224197388|0.02598583698272705|-0.001119762659072876|XArbitraryZVertical|-0.5428110385420224|-0.2202256904361936|0.03352832179098131|0.8097732497664888|-0.3202666640281677|0.8938753008842468|-0.3137136399745941|0|0|0|-1|-1|3
2021-04-22 21:22:56.851 +0100|139262.6480745|-0.3570404052734375|0.945556640625|-0.3032989501953125|139262.6430845|-0.4268868521916371|-0.7948956320805899|-1.105523229447688|-0.008279339410364628|0.1655910909175873|-0.03219065442681313|-0.03744253516197205|0.04158878326416016|0.007100373506546021|XArbitraryZVertical|-0.542908448244518|-0.2194000046184396|0.03238516031535312|0.8099786100192944|-0.3202542662620544|0.893699049949646|-0.3142281174659729|0|0|0|-1|-1|3
2021-04-22 21:22:56.871 +0100|139262.6680345|-0.3688507080078125|0.9771270751953125|-0.294586181640625|139262.6630445|-0.4286738418935681|-0.7930249873882939|-1.10492947798035|0.001667384058237076|0.1912737786769867|-0.0348360612988472|-0.04006370902061462|0.0572667121887207|0.01441887021064758|XArbitraryZVertical|-0.5429186623131467|-0.2182655055760362|0.03102748815322313|0.8103313768354719|-0.3200439810752869|0.8934324979782104|-0.3151989877223969|0|0|0|-1|-1|3
2021-04-22 21:22:56.891 +0100|139262.6879955|-0.3897552490234375|1.028366088867188|-0.277313232421875|139262.6830055|-0.4296025494160481|-0.7899023957181527|-1.104241585723007|0.03195467963814735|0.2167494595050812|-0.02190659195184708|-0.0545596182346344|0.09645539522171021|0.02872765064239502|XArbitraryZVertical|-0.5428178975588653|-0.2168733633422401|0.02965778217897772|0.8108237977018135|-0.3194946050643921|0.8931233286857605|-0.3166293501853943|0|0|0|-1|-1|3
2021-04-22 21:22:56.911 +0100|139262.7079565|-0.386871337890625|1.084274291992188|-0.281005859375|139262.7029655|-0.4286110274175117|-0.7847862469826365|-1.1033206897129|0.07801445573568344|0.2180789709091187|0.01282626576721668|-0.07365387678146362|0.1505808234214783|0.04322311282157898|XArbitraryZVertical|-0.5424511221721657|-0.2152348699366755|0.02847746881257012|0.8115477791725936|-0.3184514939785004|0.8927087187767029|-0.3188414573669434|0|0|0|-1|-1|3
2021-04-22 21:22:56.931 +0100|139262.7279165|-0.3548431396484375|1.07659912109375|-0.3190460205078125|139262.7229265|-0.4240096506972533|-0.7765206820604426|-1.1019050593397|0.1790318042039871|0.1962196379899979|0.03428220003843307|-0.06424534320831299|0.1978963017463684|0.03464534878730774|XArbitraryZVertical|-0.5415592343007377|-0.2133814468004246|0.02780911467029171|0.812655306995656|-0.3166905641555786|0.8920698761940002|-0.3223639130592346|0|0|0|-1|-1|3
2021-04-22 21:22:56.951 +0100|139262.7478775|-0.3148345947265625|1.024307250976562|-0.3518218994140625|139262.7428875|-0.4138844150133518|-0.7639665879370424|-1.099101425786967|0.368083119392395|0.1611631065607071|0.1155248582363129|-0.02969250082969666|0.1726774573326111|0.0001781284809112549|XArbitraryZVertical|-0.5396327894010187|-0.2115112843972339|0.02795406958716063|0.814418828396998|-0.3143476843833923|0.8907994031906128|-0.3281188607215881|0|0|0|-1|-1|3
2021-04-22 21:22:56.971 +0100|139262.7678375|-0.285980224609375|0.970306396484375|-0.3687286376953125|139262.7628475|-0.3938004505364414|-0.7429915514452857|-1.094380758648516|0.6048123240470886|0.1513600051403046|0.2139864563941956|0.003032684326171875|0.1270877718925476|-0.01787197589874268|XArbitraryZVertical|-0.5360777170073817|-0.2091750861499087|0.02955076425667612|0.8173086121522366|-0.3102381825447083|0.8886444568634033|-0.3377329409122467|0|0|0|-1|-1|3
2021-04-22 21:22:56.991 +0100|139262.7877985|-0.2596893310546875|0.889007568359375|-0.372772216796875|139262.7828085|-0.3668712020359092|-0.7163725430299551|-1.087093894200705|0.7495483756065369|0.1185811311006546|0.2213858664035797|0.02701699733734131|0.06885337829589844|-0.0199354887008667|XArbitraryZVertical|-0.530957788200073|-0.2066670471563208|0.032055737686604|0.8211852533579632|-0.3053833842277527|0.88527911901474|-0.3507451117038727|0|0|0|-1|-1|3
2021-04-22 21:22:57.011 +0100|139262.8077585|-0.2555999755859375|0.7969512939453125|-0.3851165771484375|139262.8027685|-0.3385372863206731|-0.68955545234655|-1.077978541825342|0.7875233888626099|0.06734383106231689|0.195807546377182|0.04256695508956909|-0.01631778478622437|-0.01078930497169495|XArbitraryZVertical|-0.5250250831779184|-0.2045471229761518|0.03492911022013907|0.8254024090975314|-0.3009900450706482|0.8810032606124878|-0.3650182783603668|0|0|0|-1|-1|3
2021-04-22 21:22:57.031 +0100|139262.8277195|-0.24005126953125|0.7286224365234375|-0.395751953125|139262.8227295|-0.3119418950339399|-0.66499083411385|-1.068329128515311|0.7477797865867615|0.04979371279478073|0.1844904273748398|0.04672297835350037|-0.1020892858505249|-0.01017022132873535|XArbitraryZVertical|-0.5190361047345518|-0.2027676296366443|0.03778454322543811|0.8294934416773764|-0.2971657514572144|0.8763970732688904|-0.3789736330509186|0|0|0|-1|-1|3
2021-04-22 21:22:57.051 +0100|139262.8476805|-0.2477569580078125|0.654449462890625|-0.397979736328125|139262.8426895|-0.2898968389423369|-0.6449735078331477|-1.05965781395195|0.5702250599861145|0.02641706913709641|0.1417101323604584|0.05289769172668457|-0.1620283722877502|-0.004450023174285889|XArbitraryZVertical|-0.5138073758226768|-0.2013701124547562|0.04027768346070674|0.8329645924249549|-0.2940784096717834|0.8721881508827209|-0.3909041285514832|0|0|0|-1|-1|3
2021-04-22 21:22:57.078 +0100|139262.8676405|-0.2468414306640625|0.6353302001953125|-0.4103851318359375|139262.8626505|-0.2742010606524084|-0.6308321028510627|-1.053888692941339|0.3539800345897675|0.02309355139732361|0.1327349990606308|0.04418474435806274|-0.2259794473648071|0.00220024585723877|XArbitraryZVertical|-0.5102450671810083|-0.2002744206011968|0.04223608850847794|0.8353181654357978|-0.2914842069149017|0.8693515658378601|-0.3990802466869354|0|0|0|-1|-1|3
2021-04-22 21:22:57.091 +0100|139262.8876015|-0.2611083984375|0.6371307373046875|-0.4252471923828125|139262.8826105|-0.2655133135054586|-0.6231044133757935|-1.051666997120869|0.08065943419933319|-0.00568051915615797|0.09045305848121643|0.04230996966362|-0.23542320728302|-0.01080703735351562|XArbitraryZVertical|-0.5086601943906793|-0.1995512512039351|0.04353360936904983|0.8363904886083739|-0.2895179092884064|0.8682514429092407|-0.4028882086277008|0|0|0|-1|-1|3
2021-04-22 21:22:57.111 +0100|139262.9075615|-0.2800750732421875|0.686553955078125|-0.4437408447265625|139262.9025715|-0.2642841485349902|-0.6223571780903685|-1.053130591504368|-0.1438604444265366|-0.02573652006685734|0.03917079046368599|0.0226367712020874|-0.2219272255897522|-0.02734023332595825|XArbitraryZVertical|-0.5091362008258408|-0.1993604059542377|0.04409578746555232|0.8361168922500887|-0.2884756922721863|0.8689766526222229|-0.4020715057849884|0|0|0|-1|-1|3
2021-04-22 21:22:57.131 +0100|139262.9275225|-0.294525146484375|0.7172393798828125|-0.4669189453125|139262.9225325|-0.2693443205460991|-0.6273681933262937|-1.056960445899206|-0.3035906255245209|-0.04296903312206268|-0.01588837988674641|0.005129337310791016|-0.1752168536186218|-0.0521484911441803|XArbitraryZVertical|-0.511051887816761|-0.19966009013651|0.04388602948392203|0.8348867745482099|-0.2885310649871826|0.870865523815155|-0.397923618555069|0|0|0|-1|-1|3
2021-04-22 21:22:57.151 +0100|139262.9474825|-0.294677734375|0.753021240234375|-0.4929962158203125|139262.9424925|-0.2784894846377122|-0.6362345224754109|-1.062062730778096|-0.3497466742992401|-0.04758743569254875|-0.04219428822398186|-0.006220191717147827|-0.1467685699462891|-0.08039620518684387|XArbitraryZVertical|-0.5137916610964997|-0.2003317381983783|0.04318906307472802|0.8330786794642557|-0.2894038259983063|0.8733620643615723|-0.3917706608772278|0|0|0|-1|-1|3
2021-04-22 21:22:57.170 +0100|139262.9674435|-0.3015899658203125|0.7881011962890625|-0.5063934326171875|139262.9624535|-0.2876951531667594|-0.6454410019643058|-1.066537424435134|-0.2585897445678711|-0.07110277563333511|-0.04611028730869293|-0.003209352493286133|-0.1130963563919067|-0.1121883988380432|XArbitraryZVertical|-0.5162795417691204|-0.2011799304042954|0.04248239064858272|0.8313708992630356|-0.2906447052955627|0.8755328059196472|-0.3859641551971436|0|0|0|-1|-1|3
2021-04-22 21:22:57.190 +0100|139262.9874035|-0.3107147216796875|0.81390380859375|-0.505828857421875|139262.9824135|-0.2937429048608551|-0.6520668861064934|-1.068824634457443|-0.1025927737355232|-0.0656333863735199|-0.05162986740469933|-0.0113806426525116|-0.07959216833114624|-0.1241840720176697|XArbitraryZVertical|-0.5176456033118653|-0.2020505868681462|0.04207304313530508|0.8303304475078299|-0.2919796705245972|0.8766355514526367|-0.3824371695518494|0|0|0|-1|-1|3
2021-04-22 21:22:57.210 +0100|139263.0073645|-0.3250274658203125|0.84295654296875|-0.4915313720703125|139263.0023745|-0.2962484605172671|-0.6559906931237582|-1.068610551271951|0.05292509496212006|-0.1038489490747452|-0.05374202132225037|-0.01831287145614624|-0.05843222141265869|-0.1227884292602539|XArbitraryZVertical|-0.5177332621008266|-0.2030609171083024|0.04201188719756081|0.8300322463033825|-0.2935923039913177|0.8765325546264648|-0.3814370632171631|0|0|0|-1|-1|3
2021-04-22 21:22:57.230 +0100|139263.0273255|-0.3441619873046875|0.8575286865234375|-0.482666015625|139263.0223345|-0.2947795294333915|-0.6569480469218123|-1.065934552500833|0.1968877911567688|-0.1195519044995308|-0.05355381965637207|-0.03429272770881653|-0.0251736044883728|-0.1046729683876038|XArbitraryZVertical|-0.5165170668938114|-0.2042157038580308|0.04240694901943923|0.8304866051809427|-0.2953889966011047|0.8752413392066956|-0.3830121457576752|0|0|0|-1|-1|3
2021-04-22 21:22:57.250 +0100|139263.0472855|-0.3533172607421875|0.8529510498046875|-0.484405517578125|139263.0422955|-0.2895652037339051|-0.6547050412357071|-1.059974685327259|0.2691730856895447|-0.1526822149753571|-0.0847640261054039|-0.05053621530532837|-0.01420360803604126|-0.09643208980560303|XArbitraryZVertical|-0.5136956576294929|-0.205461729449294|0.04296968279326975|0.8318990466958254|-0.2977001667022705|0.872343122959137|-0.3878045082092285|0|0|0|-1|-1|3
2021-04-22 21:22:57.270 +0100|139263.0672465|-0.367706298828125|0.8457794189453125|-0.4781646728515625|139263.0622565|-0.2832704899465414|-0.6521268188731626|-1.051709664152837|0.3065780401229858|-0.1975879073143005|-0.1140399798750877|-0.05281737446784973|-0.01619082689285278|-0.08988761901855469|XArbitraryZVertical|-0.5098509475996837|-0.2071425960682433|0.04351588652118923|0.8338168767170011|-0.3010647594928741|0.8682726621627808|-0.3942879140377045|0|0|0|-1|-1|3
2021-04-22 21:22:57.290 +0100|139263.0872065|-0.369537353515625|0.8323211669921875|-0.4766082763671875|139263.0822165|-0.2766767226325729|-0.6497747616916507|-1.043054501222607|0.3567409217357635|-0.1987992227077484|-0.1028416529297829|-0.06582716107368469|-0.01993656158447266|-0.07335478067398071|XArbitraryZVertical|-0.5057970216018999|-0.209015772998927|0.0441982394701998|0.8357801229006691|-0.3046717941761017|0.8639464378356934|-0.4009635448455811|0|0|0|-1|-1|3
2021-04-22 21:22:57.310 +0100|139263.1071675|-0.3657379150390625|0.826873779296875|-0.4710845947265625|139263.1021775|-0.2693983066536598|-0.647067759565679|-1.03432129558469|0.3935824334621429|-0.1983973979949951|-0.08886929601430893|-0.06004217267036438|-0.02873516082763672|-0.06646603345870972|XArbitraryZVertical|-0.5016274030450011|-0.2108893052357137|0.04508570006532881|0.8377726906703366|-0.3081221580505371|0.8595156669616699|-0.4077912867069244|0|0|0|-1|-1|3
2021-04-22 21:22:57.330 +0100|139263.1271275|-0.364013671875|0.81927490234375|-0.4504241943359375|139263.1221375|-0.2617052647826441|-0.6440674091194788|-1.025753723836619|0.4105949699878693|-0.1691593527793884|-0.04704967513680458|-0.05453729629516602|-0.03148102760314941|-0.05028557777404785|XArbitraryZVertical|-0.4974652962259848|-0.2126840103895561|0.04612548730100403|0.8397418904976096|-0.3113076984882355|0.8551052212715149|-0.4145875871181488|0|0|0|-1|-1|3
2021-04-22 21:22:57.350 +0100|139263.1470885|-0.3592529296875|0.8001708984375|-0.4315032958984375|139263.1420985|-0.2532390778230626|-0.6397026524860436|-1.017629772011774|0.379622220993042|-0.1196942329406738|-0.02497197687625885|-0.0476660430431366|-0.03078097105026245|-0.02405369281768799|XArbitraryZVertical|-0.4934098910106556|-0.2139994216826024|0.0472526961376953|0.8417352882091689|-0.3136318325996399|0.8508651256561279|-0.4215018451213837|0|0|0|-1|-1|3
2021-04-22 21:22:57.370 +0100|139263.1670485|-0.348785400390625|0.7875518798828125|-0.4134521484375|139263.1620585|-0.246826447334773|-0.6363706665040786|-1.01087284165564|0.2680854797363281|-0.0874500572681427|-0.01506617292761803|-0.03968128561973572|-0.05426543951034546|-0.001291751861572266|XArbitraryZVertical|-0.4900832472073171|-0.215032693597649|0.04802165515427381|0.8433702898069372|-0.3156351447105408|0.8472957611083984|-0.4271587133407593|0|0|0|-1|-1|3
2021-04-22 21:22:57.390 +0100|139263.1870095|-0.3509674072265625|0.7881622314453125|-0.395751953125|139263.1820195|-0.2432316476760013|-0.6348346072149493|-1.006062187429209|0.1364425420761108|-0.04434285312891006|-0.01737824082374573|-0.03325501084327698|-0.05411148071289062|0.02488464117050171|XArbitraryZVertical|-0.4877918799915699|-0.2158682471080729|0.04837495405585496|0.8444643271879435|-0.3173922598361969|0.8447309136390686|-0.4309199750423431|0|0|0|-1|-1|3
2021-04-22 21:22:57.410 +0100|139263.2069701667|-0.340057373046875|0.780853271484375|-0.3983001708984375|139263.2019791667|-0.24304433501162|-0.635307614324467|-1.003763362885867|-0.02002637647092342|-0.009650706313550472|-0.01574190706014633|-0.03237268328666687|-0.05835676193237305|0.03755736351013184|XArbitraryZVertical|-0.4868312217352602|-0.2164012582585896|0.04819332139909177|0.8448925904057968|-0.3187476098537445|0.8434983491897583|-0.4323317110538483|0|0|0|-1|-1|3
2021-04-22 21:22:57.430 +0100|139263.2269301667|-0.332794189453125|0.78204345703125|-0.4092864990234375|139263.2219401667|-0.2464114598795114|-0.638450236071197|-1.004069722932448|-0.1535377651453018|0.003728642128407955|-0.01608589850366116|-0.01809290051460266|-0.06358736753463745|0.02940315008163452|XArbitraryZVertical|-0.4872445408030384|-0.216870176205309|0.04758678951931143|0.8445682928813886|-0.3199505507946014|0.8436629176139832|-0.4311201572418213|0|0|0|-1|-1|3
2021-04-22 21:22:57.450 +0100|139263.2468911667|-0.3211517333984375|0.79644775390625|-0.4309844970703125|139263.2419011667|-0.2524154330884129|-0.6437455812872336|-1.006214093535871|-0.2474428415298462|-0.001392457168549299|-0.02309294044971466|-0.00858500599861145|-0.05600863695144653|0.0151616632938385|XArbitraryZVertical|-0.488636090467369|-0.217367976551948|0.04669935969597654|0.8436854451329509|-0.3211424052715302|0.8448122143745422|-0.4279718697071075|0|0|0|-1|-1|3
2021-04-22 21:22:57.470 +0100|139263.2668511667|-0.3075714111328125|0.8237152099609375|-0.4462738037109375|139263.2618611667|-0.259532070156262|-0.6502781163247678|-1.009478816995097|-0.2506453394889832|-0.01344576478004456|0.007387736812233925|0.004296958446502686|-0.0461084246635437|-0.01070332527160645|XArbitraryZVertical|-0.4905716498276689|-0.2179579956721062|0.04584465720758884|0.8424560550373176|-0.3222599029541016|0.8465545177459717|-0.4236675500869751|0|0|0|-1|-1|3
2021-04-22 21:22:57.490 +0100|139263.2868121667|-0.31072998046875|0.8446502685546875|-0.4460906982421875|139263.2818221667|-0.2650088430748957|-0.6557638132289142|-1.012490286241267|-0.1677239388227463|-0.02455231733620167|0.03366869688034058|0.01748088002204895|-0.01795297861099243|-0.02814137935638428|XArbitraryZVertical|-0.4922507011697729|-0.2185265222088615|0.04539630446011817|0.8413528998785087|-0.3230231106281281|0.8481537103652954|-0.4198708236217499|0|0|0|-1|-1|3
2021-04-22 21:22:57.510 +0100|139263.3067721667|-0.3163299560546875|0.862335205078125|-0.4471282958984375|139263.3017821667|-0.2671996277971294|-0.6583540208828695|-1.014180732585425|-0.07273735851049423|-0.02343352325260639|0.04168791696429253|0.01137247681617737|-0.000903010368347168|-0.02748972177505493|XArbitraryZVertical|-0.493107273019895|-0.2188521438624619|0.04540096457174427|0.8407661511220447|-0.3232318460941315|0.8490480184555054|-0.4178979098796844|0|0|0|-1|-1|3
2021-04-22 21:22:57.530 +0100|139263.3267331667|-0.324951171875|0.8709564208984375|-0.435943603515625|139263.3217431667|-0.267340406473166|-0.6593694153819704|-1.014431878189981|0.001903739757835865|-0.04881520569324493|0.0288592055439949|0.007988721132278442|0.01495558023452759|-0.02623185515403748|XArbitraryZVertical|-0.4931998321090617|-0.2192108462688407|0.04563499927897104|0.8406058099566569|-0.3235254883766174|0.8491806387901306|-0.4174010753631592|0|0|0|-1|-1|3
2021-04-22 21:22:57.550 +0100|139263.3466941667|-0.3324432373046875|0.8641357421875|-0.43902587890625|139263.3417031667|-0.2654288375997997|-0.6587259800248622|-1.013486999191488|0.06835506856441498|-0.06178112700581551|0.02277184277772903|-0.003446668386459351|0.02091759443283081|-0.01714977622032166|XArbitraryZVertical|-0.4926274724186107|-0.2195369618960095|0.04611869936966655|0.8408298546842954|-0.3237477838993073|0.8486812710762024|-0.4182433784008026|0|0|0|-1|-1|3
2021-04-22 21:22:57.570 +0100|139263.3666541667|-0.3425750732421875|0.8627471923828125|-0.4434661865234375|139263.3616641667|-0.2617434862671109|-0.6566393425666028|-1.011786249540199|0.1141744703054428|-0.07229374349117279|0.0192305464297533|-0.01064160466194153|0.01591318845748901|-0.01908621191978455|XArbitraryZVertical|-0.4915910027287409|-0.2197907680818297|0.04686574937157683|0.8413286720063599|-0.3237549960613251|0.8477805256843567|-0.4200606048107147|0|0|0|-1|-1|3
2021-04-22 21:22:57.590 +0100|139263.3866151667|-0.3454742431640625|0.84912109375|-0.4468536376953125|139263.3816251667|-0.2578203273767297|-0.6544914555416643|-1.009621734385858|0.1392848640680313|-0.07508014887571335|-0.007891617715358734|-0.02155193686485291|0.01468271017074585|-0.02188083529472351|XArbitraryZVertical|-0.490343113685225|-0.2201333662375486|0.04762284473164371|0.8419245851842989|-0.3239683210849762|0.8466305732727051|-0.4222098588943481|0|0|0|-1|-1|3
2021-04-22 21:22:57.610 +0100|139263.4065751667|-0.3550262451171875|0.836639404296875|-0.445770263671875|139263.4015851667|-0.2541647948205246|-0.6527004113620597|-1.007131605839109|0.1553211063146591|-0.07365169376134872|-0.01492555812001228|-0.02405035495758057|-0.001109719276428223|-0.02167212963104248|XArbitraryZVertical|-0.4889838212053951|-0.2205973918615334|0.04830386668477945|0.8425548321269112|-0.3244911730289459|0.8453027606010437|-0.4244632124900818|0|0|0|-1|-1|3
2021-04-22 21:22:57.629 +0100|139263.4265361667|-0.3558502197265625|0.8229827880859375|-0.4457244873046875|139263.4215461667|-0.2510849286493848|-0.6514061630172963|-1.004626429754894|0.139178678393364|-0.06404891610145569|-0.0175955556333065|-0.0313432514667511|-0.006833434104919434|-0.02031761407852173|XArbitraryZVertical|-0.4876681580158666|-0.2211267599700875|0.0488650639317487|0.8431459806920359|-0.3252243995666504|0.8439616560935974|-0.4265654385089874|0|0|0|-1|-1|3
2021-04-22 21:22:57.649 +0100|139263.4464961667|-0.3534698486328125|0.8085784912109375|-0.4441986083984375|139263.4415061667|-0.2485344667785807|-0.650534582773436|-1.00239635829849|0.112333633005619|-0.06301704794168472|-0.01238366030156612|-0.0271582305431366|-0.02350318431854248|-0.01852250099182129|XArbitraryZVertical|-0.4865095826258162|-0.2216659211809222|0.04935487906931252|0.8436449817687741|-0.3259914517402649|0.8427633047103882|-0.4283452928066254|0|0|0|-1|-1|3
2021-04-22 21:22:57.670 +0100|139263.4664571667|-0.349334716796875|0.7935791015625|-0.4457244873046875|139263.4614671667|-0.2470124576179884|-0.6504932265273808|-1.000688182081221|0.06307927519083023|-0.05619940906763077|-0.01054554618895054|-0.02599936723709106|-0.03974854946136475|-0.01588380336761475|XArbitraryZVertical|-0.4856533212923432|-0.2222361273639116|0.04970131548490696|0.8439680325339283|-0.3268451690673828|0.8418425917625427|-0.4295039176940918|0|0|0|-1|-1|3
2021-04-22 21:22:57.689 +0100|139263.4864171667|-0.3488616943359375|0.804412841796875|-0.4410552978515625|139263.4814271667|-0.2466571012802073|-0.6513195378106583|-0.9995981238714444|0.01392930932343006|-0.05024979636073112|-0.007973110303282738|-0.02034309506416321|-0.04730796813964844|-0.01252549886703491|XArbitraryZVertical|-0.4851538531765652|-0.2228098124305124|0.0498696493085443|0.8440939739885647|-0.3277559280395508|0.8412537574768066|-0.4299630522727966|0|0|0|-1|-1|3
2021-04-22 21:22:57.709 +0100|139263.5063781667|-0.350067138671875|0.8083038330078125|-0.4330902099609375|139263.5013881667|-0.2473073115571725|-0.6526201717648009|-0.9989695740464309|-0.01463004667311907|-0.01370254624634981|-0.004840434063225985|-0.02167558670043945|-0.03436410427093506|-0.00682532787322998|XArbitraryZVertical|-0.4849405190294419|-0.2232810874052333|0.04980539581919298|0.8440958825469478|-0.3286359906196594|0.8409137725830078|-0.4299564957618713|0|0|0|-1|-1|3
2021-04-22 21:22:57.729 +0100|139263.5263391667|-0.3471832275390625|0.808197021484375|-0.4322509765625|139263.5213481667|-0.2483429027302357|-0.6536703914685131|-0.9987023012881513|-0.03917468711733818|0.007887913845479488|0.003948530182242393|-0.01852405071258545|-0.03135085105895996|-0.003147006034851074|XArbitraryZVertical|-0.4849223649684971|-0.2235073315003424|0.0495781338861985|0.8440598260635904|-0.329224020242691|0.8407691121101379|-0.4297895431518555|0|0|0|-1|-1|3
2021-04-22 21:22:57.749 +0100|139263.5462991667|-0.343292236328125|0.81146240234375|-0.433441162109375|139263.5413091667|-0.2498179830414337|-0.654699242072793|-0.9989071206007515|-0.08611488342285156|0.01956923119723797|0.001639125635847449|-0.01760709285736084|-0.02944761514663696|-0.001303285360336304|XArbitraryZVertical|-0.4851443613618834|-0.2235575677289409|0.04923961808346616|0.8439387158265058|-0.3295611143112183|0.8408799767494202|-0.4293139278888702|0|0|0|-1|-1|3
2021-04-22 21:22:57.769 +0100|139263.5662601667|-0.3409576416015625|0.8063201904296875|-0.43597412109375|139263.5612701667|-0.2524192858988952|-0.6566206787905329|-0.9996457854928981|-0.1194946616888046|0.01168211735785007|-0.001134912017732859|-0.012004554271698|-0.03036594390869141|-0.004153609275817871|XArbitraryZVertical|-0.4856854802538822|-0.2236418891008641|0.04873302474110033|0.8436345031875041|-0.3300061821937561|0.8412795662879944|-0.4281878471374512|0|0|0|-1|-1|3
2021-04-22 21:22:57.789 +0100|139263.5862201667|-0.3436431884765625|0.8106842041015625|-0.4446258544921875|139263.5812301667|-0.2551827947615886|-0.6587806849169071|-1.000897469840362|-0.1190363168716431|0.0188688188791275|0.01726078614592552|-0.01100826263427734|-0.03597056865692139|-0.01123946905136108|XArbitraryZVertical|-0.4864455271159557|-0.2237192408783324|0.04830451464642176|0.8432005296183883|-0.3302853405475616|0.8419555425643921|-0.4266408979892731|0|0|0|-1|-1|3
2021-04-22 21:22:57.809 +0100|139263.6061811667|-0.339080810546875|0.80816650390625|-0.452850341796875|139263.6011911667|-0.2576793166835097|-0.6606440456140384|-1.002210263270942|-0.1118165031075478|0.01060215383768082|0.009598869830369949|-0.01070916652679443|-0.03223782777786255|-0.02261632680892944|XArbitraryZVertical|-0.487207125081157|-0.2237260505621718|0.04792885175735694|0.8427804429320686|-0.3304013311862946|0.8426631093025208|-0.4251517355442047|0|0|0|-1|-1|3
2021-04-22 21:22:57.829 +0100|139263.6261411667|-0.3514251708984375|0.8109283447265625|-0.4537506103515625|139263.6211511667|-0.2598969199901008|-0.6624805562742057|-1.003190859292756|-0.08023316413164139|0.003990590572357178|0.002260618610307574|-0.009826958179473877|-0.03458118438720703|-0.02999430894851685|XArbitraryZVertical|-0.4878047488130706|-0.2238308620181906|0.04760944954564844|0.8424249666510779|-0.3306731879711151|0.8431907296180725|-0.4238925576210022|0|0|0|-1|-1|3
2021-04-22 21:22:57.849 +0100|139263.6461021667|-0.3672637939453125|0.8106842041015625|-0.4580230712890625|139263.6411121667|-0.2616639749592644|-0.6639983729675231|-1.003537794106303|-0.0458364337682724|-0.001901706680655479|-0.009863866493105888|-0.02413481473922729|-0.03105974197387695|-0.03223776817321777|XArbitraryZVertical|-0.4881056595651005|-0.2239933650919898|0.04729492685219815|0.8422251181405292|-0.3311358392238617|0.8433771729469299|-0.4231596887111664|0|0|0|-1|-1|3
2021-04-22 21:22:57.869 +0100|139263.6660621667|-0.4149322509765625|0.8278961181640625|-0.470458984375|139263.6610721667|-0.2617164056264626|-0.6639453923406685|-1.002708637650718|0.06516674906015396|0.0188461821526289|-0.01173802092671394|-0.04167070984840393|-0.02954584360122681|-0.03690335154533386|XArbitraryZVertical|-0.4877805148103028|-0.2240675071380144|0.04711785618729015|0.8424036972197727|-0.3315442502498627|0.8429313898086548|-0.4237278401851654|0|0|0|-1|-1|3
2021-04-22 21:22:57.889 +0100|139263.6860231667|-0.478851318359375|0.82720947265625|-0.4910125732421875|139263.6810331667|-0.2588984470135574|-0.6603843653811601|-0.9996399888587725|0.2139586061239243|0.09504950046539307|-0.0143441017717123|-0.09838974475860596|-0.01403588056564331|-0.04709702730178833|XArbitraryZVertical|-0.4863176462618253|-0.2236555366562089|0.04691399733512705|0.8433698337245589|-0.331618458032608|0.8412764072418213|-0.4269466996192932|0|0|0|-1|-1|3
2021-04-22 21:22:57.909 +0100|139263.7059841667|-0.5287628173828125|0.7764892578125|-0.5077362060546875|139263.7009931667|-0.2513039124485879|-0.6505550607864063|-0.9939454632470035|0.4382592737674713|0.2488559484481812|0.04535802453756332|-0.1645256578922272|-0.01336997747421265|-0.05860775709152222|XArbitraryZVertical|-0.4834088216868187|-0.222082440002563|0.0467751887422981|0.8454628554869773|-0.330301821231842|0.8381842970848083|-0.4339905977249146|0|0|0|-1|-1|3
2021-04-22 21:22:57.929 +0100|139263.7259441667|-0.5478515625|0.6112060546875|-0.494781494140625|139263.7209541667|-0.2368694291156586|-0.6315666490135827|-0.9853958891207945|0.659636914730072|0.4741029739379883|0.1321218609809875|-0.2135282158851624|-0.08062160015106201|-0.06565922498703003|XArbitraryZVertical|-0.4787971898647703|-0.2185804298211957|0.04691105431726025|0.848984954372011|-0.326221227645874|0.8334909081459045|-0.4459517002105713|0|0|0|-1|-1|3
2021-04-22 21:22:57.949 +0100|139263.7459051667|-0.5526275634765625|0.4621429443359375|-0.53033447265625|139263.7409151667|-0.2220622293332536|-0.6077681680250867|-0.979100682449371|0.5384358167648315|0.4761673510074615|0.1901134252548218|-0.2129418253898621|-0.3160642385482788|0.02041816711425781|XArbitraryZVertical|-0.4751821331224128|-0.2127407894812875|0.04653136074502869|0.8525129642403794|-0.3185068070888519|0.8299961090087891|-0.4578866064548492|0|0|0|-1|-1|3
2021-04-22 21:22:57.969 +0100|139263.7658651667|-0.5600738525390625|0.2489166259765625|-0.3908233642578125|139263.7608751667|-0.2153232432984155|-0.5906998549846074|-0.9771709097786004|-0.3174731731414795|0.6668035387992859|-0.04471177235245705|-0.2513295710086823|-0.4079734086990356|0.03843903541564941|XArbitraryZVertical|-0.4740709401959665|-0.2072776307096145|0.04505963981926393|0.8545540366904094|-0.3115369379520416|0.8289181590080261|-0.4645854532718658|0|0|0|-1|-1|3
2021-04-22 21:22:57.989 +0100|139263.7858261667|-0.5736083984375|0.276214599609375|-0.3149566650390625|139263.7808361667|-0.2283840283544748|-0.5900422224745875|-0.98689633313922|-0.976423978805542|0.5370200276374817|0.004006409551948309|-0.2431958019733429|-0.5963576436042786|0.03151145577430725|XArbitraryZVertical|-0.4794276652234522|-0.2027664385326716|0.04081053705355406|0.8528596167889042|-0.3067312240600586|0.834318995475769|-0.458069771528244|0|0|0|-1|-1|3
2021-04-22 21:22:58.009 +0100|139263.8057861667|-0.5117950439453125|0.545745849609375|-0.482940673828125|139263.8007961667|-0.2571126860453304|-0.602979128390593|-1.008856557931052|-1.500794768333435|0.5480300188064575|-0.02843373268842697|-0.2734715342521667|-0.513443648815155|0.09665662050247192|XArbitraryZVertical|-0.4910265071940991|-0.1986473265770689|0.03515755637272198|0.847464666234244|-0.302166610956192|0.8462231159210205|-0.4388644099235535|0|0|0|-1|-1|3
2021-04-22 21:22:58.029 +0100|139263.8257471667|-0.4873199462890625|0.8792266845703125|-0.5620574951171875|139263.8207571667|-0.2780307019384249|-0.6122598443338584|-1.028427661781904|-0.8019742369651794|0.3332004547119141|0.1740580350160599|-0.1936302781105042|-0.2014586925506592|-0.1221645176410675|XArbitraryZVertical|-0.5008184581941953|-0.1948799804099951|0.03176028979540283|0.8427300924437858|-0.2966501712799072|0.8564884662628174|-0.422405332326889|0|0|0|-1|-1|3
2021-04-22 21:22:58.049 +0100|139263.8457081667|-0.4517059326171875|0.9210052490234375|-0.647064208984375|139263.8407171667|-0.2862999194029037|-0.6145423123447494|-1.040275268711129|-0.4460493922233582|0.127293735742569|0.2066961377859116|-0.1906038522720337|0.03169828653335571|-0.167753279209137|XArbitraryZVertical|-0.5063185870971596|-0.1921924232053741|0.03078778996833938|0.8400927824168176|-0.2917420864105225|0.862543523311615|-0.4134071171283722|0|0|0|-1|-1|3
2021-04-22 21:22:58.069 +0100|139263.8656681667|-0.41973876953125|1.0010986328125|-0.690216064453125|139263.8606781667|-0.2874745431431716|-0.6146026680827229|-1.05004875279233|-0.413928896188736|-0.02294270321726799|0.3044728636741638|-0.1627390384674072|0.06484967470169067|-0.2400314211845398|XArbitraryZVertical|-0.5103194001419358|-0.1906120521841705|0.0319104271181432|0.837987403874032|-0.2868919670581818|0.8674474954605103|-0.4064823091030121|0|0|0|-1|-1|3
2021-04-22 21:22:58.089 +0100|139263.8856291667|-0.335479736328125|1.251617431640625|-0.689056396484375|139263.8806391667|-0.275425695367255|-0.6065917780519336|-1.055587371469516|0.3139443099498749|-0.2382824420928955|0.469081312417984|-0.1096045672893524|0.1956676840782166|-0.3187108039855957|XArbitraryZVertical|-0.5115121094627998|-0.1896004034332565|0.03580908669503447|0.8373320348675513|-0.2808834314346313|0.8701897859573364|-0.4048140943050385|0|0|0|-1|-1|3
2021-04-22 21:22:58.109 +0100|139263.9055891667|-0.2389984130859375|1.254119873046875|-0.670379638671875|139263.9005991667|-0.2501618636710653|-0.590368263001208|-1.053355070551198|0.6487337350845337|-0.3791691362857819|0.4804430902004242|-0.06045576930046082|0.3578568696975708|-0.2419158816337585|XArbitraryZVertical|-0.508540523503578|-0.1895293097809139|0.04190658342476246|0.8388738313525751|-0.2753599584102631|0.8690877556800842|-0.4109303653240204|0|0|0|-1|-1|3
2021-04-22 21:22:58.129 +0100|139263.9255501667|-0.1556396484375|1.285781860351562|-0.6183624267578125|139263.9205601667|-0.2199144603804451|-0.573328907691238|-1.045874635503069|0.8468531966209412|-0.57978755235672|0.4605316817760468|0.05539101362228394|0.4236540794372559|-0.2124094367027283|XArbitraryZVertical|-0.503034937777708|-0.1909179593460465|0.04917160070878414|0.841480025942584|-0.2718372344970703|0.8653631806373596|-0.4210123717784882|0|0|0|-1|-1|3
2021-04-22 21:22:58.149 +0100|139263.9455101667|-0.0337371826171875|1.326416015625|-0.592620849609375|139263.9405201667|-0.1841486278491168|-0.5563209489034787|-1.034937116051678|1.082937836647034|-0.8181677460670471|0.5179572701454163|0.1516690254211426|0.431780993938446|-0.1793274879455566|XArbitraryZVertical|-0.495593601716985|-0.1938910262513551|0.05842293958662545|0.8446183330051437|-0.2696197628974915|0.8598302602767944|-0.4335865080356598|0|0|0|-1|-1|3
2021-04-22 21:22:58.169 +0100|139263.9654711667|0.059906005859375|1.376632690429688|-0.5614013671875|139263.9604811667|-0.1449482517645473|-0.5406435361099153|-1.022832115334283|0.9927758574485779|-0.9886606931686401|0.5710573196411133|0.255721390247345|0.4779872298240662|-0.1183193325996399|XArbitraryZVertical|-0.4872640135764764|-0.1981111086821732|0.0694975833024155|0.8476414487892764|-0.2681270241737366|0.8535868525505066|-0.4466515481472015|0|0|0|-1|-1|3
