loggingTime(txt)|accelerometerTimestamp_sinceReboot(s)|accelerometerAccelerationX(G)|accelerometerAccelerationY(G)|accelerometerAccelerationZ(G)|motionTimestamp_sinceReboot(s)|motionYaw(rad)|motionRoll(rad)|motionPitch(rad)|motionRotationRateX(rad/s)|motionRotationRateY(rad/s)|motionRotationRateZ(rad/s)|motionUserAccelerationX(G)|motionUserAccelerationY(G)|motionUserAccelerationZ(G)|motionAttitudeReferenceFrame(txt)|motionQuaternionX(R)|motionQuaternionY(R)|motionQuaternionZ(R)|motionQuaternionW(R)|motionGravityX(G)|motionGravityY(G)|motionGravityZ(G)|motionMagneticFieldX(µT)|motionMagneticFieldY(µT)|motionMagneticFieldZ(µT)|motionHeading(°)|motionMagneticFieldCalibrationAccuracy(Z)|label
2021-03-10 21:13:30.064 +0000|291170.2380315417|-0.4669647216796875|0.1481781005859375|-0.866973876953125|291170.2180685417|1.977172911440765|-0.4861187378708119|-0.12690492183051|-0.1556155234575272|-0.004801219794899225|0.002127275569364429|-0.07176128029823303|0.02585551142692566|0.02071958780288696|XArbitraryZVertical|-0.1667752287930328|0.1834791977107946|-0.8174585592163497|-0.5198875079807994|-0.4634407758712769|0.1265645623207092|-0.877042829990387|0|0|0|-1|-1|3
2021-03-10 21:13:30.077 +0000|291170.2579945417|-0.455718994140625|0.15557861328125|-0.8695831298828125|291170.2380315417|1.97565902228957|-0.4871611606815831|-0.1293597375993813|-0.1507916301488876|-0.03836546465754509|-0.0004899015184491873|0.01523330807685852|0.01405192911624908|0.006500542163848877|XArbitraryZVertical|-0.1663919382355772|0.1848586135140488|-0.817076769344675|-0.5201216566524396|-0.4642079174518585|0.128999263048172|-0.8762820363044739|0|0|0|-1|-1|3
2021-03-10 21:13:30.079 +0000|291170.2779575417|-0.4604644775390625|0.1643829345703125|-0.8756866455078125|291170.2579945417|1.974289392452306|-0.4878872068333134|-0.1314988217395091|-0.133681446313858|-0.02515091374516487|-0.00632977019995451|0.0008616745471954346|0.02366502583026886|0.008648872375488281|XArbitraryZVertical|-0.1659769979922904|0.1860164683127485|-0.8167456008801448|-0.5203615425167397|-0.4647136032581329|0.1311201751232147|-0.8756990432739258|0|0|0|-1|-1|3
2021-03-10 21:13:30.080 +0000|291170.2979195417|-0.463653564453125|0.145355224609375|-0.8827972412109375|291170.2779575417|1.973033605815245|-0.4887529105595041|-0.1328345578555759|-0.08991289883852005|-0.03623019531369209|-0.01618497632443905|0.008433938026428223|0.03169457614421844|0.0001104474067687988|XArbitraryZVertical|-0.1658479478212126|0.1868795484317332|-0.8164001119381984|-0.5206356580273871|-0.4653888940811157|0.1324442625045776|-0.8751409649848938|0|0|0|-1|-1|3
2021-03-10 21:13:30.100 +0000|291170.3178825417|-0.47015380859375|0.13873291015625|-0.8811798095703125|291170.2979195417|1.971862523992278|-0.490153552884792|-0.1342211543332416|-0.06375429779291153|-0.04127582162618637|-0.02152310311794281|0.003850281238555908|0.01483264565467834|-0.007205367088317871|XArbitraryZVertical|-0.165930130100106|0.1878948725123467|-0.8160340960861597|-0.5208178096988731|-0.4665272831916809|0.133818507194519|-0.8743253946304321|0|0|0|-1|-1|3
2021-03-10 21:13:30.120 +0000|291170.3378455417|-0.4623565673828125|0.137603759765625|-0.8732147216796875|291170.3178825417|1.970723563030172|-0.49100759851852|-0.13544256420165|-0.058597132563591|-0.03131634369492531|-0.03697032853960991|-0.003109991550445557|0.006877928972244263|-0.007611572742462158|XArbitraryZVertical|-0.1658365055347526|0.1886990148919248|-0.8157150457883469|-0.521056613317244|-0.4671964049339294|0.1350288391113281|-0.8737818598747253|0|0|0|-1|-1|3
2021-03-10 21:13:30.140 +0000|291170.3578085417|-0.4717254638671875|0.128570556640625|-0.8744964599609375|291170.3378455417|1.969519806942226|-0.4919117427692895|-0.1362958080014484|-0.02982152812182903|-0.03880744427442551|-0.04513531178236008|0.004812121391296387|-7.095932960510254e-05|-0.001956403255462646|XArbitraryZVertical|-0.1658573297820594|0.1893745963028898|-0.8153601747143329|-0.5213601128092915|-0.4679316580295563|0.1358742117881775|-0.8732572197914124|0|0|0|-1|-1|3
2021-03-10 21:13:30.160 +0000|291170.3777715417|-0.474945068359375|0.129852294921875|-0.8759307861328125|291170.3578085417|1.968467699473173|-0.492756064515013|-0.1367340243826448|-0.01197582017630339|-0.03428411483764648|-0.0531872883439064|-0.0005061626434326172|-0.004075661301612854|-0.000588536262512207|XArbitraryZVertical|-0.1659813903561012|0.1898566256503023|-0.8150331909046843|-0.5216565170203163|-0.4686405658721924|0.1363083571195602|-0.8728092908859253|0|0|0|-1|-1|3
2021-03-10 21:13:30.179 +0000|291170.3977345417|-0.472442626953125|0.1336669921875|-0.8688812255859375|291170.3777715417|1.967334795765757|-0.4935561674305464|-0.1367862016299544|-0.009717841632664204|-0.03003967553377151|-0.06423851847648621|-0.003381878137588501|-0.004600375890731812|-0.003808140754699707|XArbitraryZVertical|-0.1661853711257499|0.1901802445835223|-0.8146732601245632|-0.5220359458358532|-0.4693354070186615|0.1363600492477417|-0.8724278211593628|0|0|0|-1|-1|3
2021-03-10 21:13:30.199 +0000|291170.4176975417|-0.4825897216796875|0.149932861328125|-0.8648223876953125|291170.3977345417|1.966005782782652|-0.4942166199784978|-0.1364133821495806|-0.007313806563615799|-0.02588930167257786|-0.07429852336645126|-0.004322826862335205|0.0002398043870925903|0.001389026641845703|XArbitraryZVertical|-0.1664304754125362|0.1903148578764938|-0.8142563068506399|-0.5225588878268705|-0.4699355661869049|0.1359906941652298|-0.8721622824668884|0|0|0|-1|-1|3
2021-03-10 21:13:30.219 +0000|291170.4376595417|-0.4731292724609375|0.14892578125|-0.86285400390625|291170.4176975417|1.964659754192556|-0.4947439540378544|-0.1356922868736198|0.008645801804959774|-0.01348509546369314|-0.07723678648471832|-0.008226335048675537|0.01194056868553162|0.007178068161010742|XArbitraryZVertical|-0.1667155202358859|0.1902779755174132|-0.8138314449008377|-0.5231430540007074|-0.4704418778419495|0.135276272892952|-0.8720004558563232|0|0|0|-1|-1|3
2021-03-10 21:13:30.239 +0000|291170.4576225417|-0.4688568115234375|0.1292877197265625|-0.8633575439453125|291170.4376595417|1.963391318720655|-0.49502288031612|-0.1347666985859264|0.014949188567698|-0.009126938879489899|-0.07621520012617111|-0.00308680534362793|0.01632145047187805|0.008957147598266602|XArbitraryZVertical|-0.1669633522828752|0.1900887493100235|-0.813438613713051|-0.5237434634196111|-0.4707443416118622|0.1343591213226318|-0.8719789981842041|0|0|0|-1|-1|3
2021-03-10 21:13:30.259 +0000|291170.4775855417|-0.478485107421875|0.1350250244140625|-0.8714752197265625|291170.4576225417|1.96213928430142|-0.4953486364062806|-0.1337418260677446|0.008099937811493874|-0.01149534154683352|-0.0765775665640831|0.000939786434173584|0.00155949592590332|0.01138108968734741|XArbitraryZVertical|-0.1672594476551749|0.1898713514207573|-0.8130413563916767|-0.5243442031930252|-0.4710935950279236|0.1333434730768204|-0.8719462752342224|0|0|0|-1|-1|3
2021-03-10 21:13:30.279 +0000|291170.4975485417|-0.4817962646484375|0.1476593017578125|-0.88165283203125|291170.4775855417|1.96081884111115|-0.4957735675133439|-0.1329250287193387|0.004804941359907389|-0.006931961514055729|-0.07526285201311111|-0.0041922926902771|0.00177396833896637|0.002822995185852051|XArbitraryZVertical|-0.1675321511641105|0.1897688020950688|-0.8126257485223893|-0.5249383403014382|-0.4715157151222229|0.1325339376926422|-0.8718415498733521|0|0|0|-1|-1|3
2021-03-10 21:13:30.300 +0000|291170.5175115417|-0.4669189453125|0.140350341796875|-0.876922607421875|291170.4975485417|1.959600285991919|-0.4959825261120216|-0.1323952945821718|0.0002794484607875347|0.01096298918128014|-0.0633024200797081|-0.008371293544769287|0.01484176516532898|-0.007452547550201416|XArbitraryZVertical|-0.1676476910577566|0.1897153927177609|-0.8122662615918554|-0.5254768890943202|-0.4717312455177307|0.1320088505744934|-0.8718046545982361|0|0|0|-1|-1|3
2021-03-10 21:13:30.320 +0000|291170.5374745417|-0.460693359375|0.127410888671875|-0.86431884765625|291170.5175115417|1.958563842204263|-0.4958486787625047|-0.1323575844768131|-0.01275798957794905|0.01556455809623003|-0.05022967234253883|-0.0002763867378234863|0.01298704743385315|-0.006988346576690674|XArbitraryZVertical|-0.1675054544637839|0.1897520820954589|-0.8120034572096921|-0.5259148807909765|-0.4716168940067291|0.1319714784622192|-0.8718721270561218|0|0|0|-1|-1|3
2021-03-10 21:13:30.339 +0000|291170.5574375417|-0.456024169921875|0.129852294921875|-0.8608245849609375|291170.5374745417|1.957628572046954|-0.4957930002617799|-0.1324509410729736|-0.01981416717171669|0.009403654374182224|-0.03681488707661629|0.008107304573059082|-0.0001059621572494507|0.004593253135681152|XArbitraryZVertical|-0.1673682795638552|0.1898527872751597|-0.8117659843350604|-0.5262886711460226|-0.4715625047683716|0.132064014673233|-0.8718875646591187|0|0|0|-1|-1|3
2021-03-10 21:13:30.359 +0000|291170.5773995417|-0.4592742919921875|0.14569091796875|-0.864013671875|291170.5574375417|1.956689664675748|-0.4959223988317126|-0.132630196257206|-0.0363403782248497|-0.001821942161768675|-0.03286781534552574|0.01806604862213135|-0.004983380436897278|0.009851992130279541|XArbitraryZVertical|-0.1672820201914222|0.1900365198154371|-0.8115154842681801|-0.5266359857958116|-0.4716640412807465|0.1322416961193085|-0.8718056678771973|0|0|0|-1|-1|3
2021-03-10 21:13:30.379 +0000|291170.5973625417|-0.46368408203125|0.1532745361328125|-0.8697052001953125|291170.5773995417|1.955830512420258|-0.4961532340237153|-0.1332523345589157|-0.03649765625596046|-0.004034655634313822|-0.02325868606567383|0.01213973760604858|0.006637543439865112|0.007854759693145752|XArbitraryZVertical|-0.1671216743698563|0.1904158800839042|-0.8112958553676717|-0.5268882296254185|-0.4718260169029236|0.1328583359718323|-0.8716242909431458|0|0|0|-1|-1|3
2021-03-10 21:13:30.399 +0000|291170.6173255417|-0.4608154296875|0.1380157470703125|-0.87188720703125|291170.5973625417|1.955289932272787|-0.4962502454020393|-0.1337597750515455|-0.01097447052598|0.00612125638872385|-0.01463199593126774|0.00851479172706604|0.02236995100975037|0.004743635654449463|XArbitraryZVertical|-0.1669689188892243|0.190687771771208|-0.8111664653768238|-0.5270375634815407|-0.4718784093856812|0.1333612650632858|-0.8715190887451172|0|0|0|-1|-1|3
2021-03-10 21:13:30.429 +0000|291170.6372885417|-0.4629364013671875|0.122650146484375|-0.8689727783203125|291170.6173255417|1.955080878404001|-0.4961059767915933|-0.1338166321275492|-0.002331398194655776|0.002986235544085503|-0.003760263323783875|0.01158976554870605|0.009969264268875122|-1.549720764160156e-06|XArbitraryZVertical|-0.1668747196289972|0.1906897368945397|-0.8111257752296679|-0.5271292904086201|-0.4717490673065186|0.133417621254921|-0.8715804815292358|0|0|0|-1|-1|3
2021-03-10 21:13:30.444 +0000|291170.6572515417|-0.4694976806640625|0.1331024169921875|-0.867828369140625|291170.6372885417|1.954868513350372|-0.4959899057153604|-0.1337594770091041|-0.02110853046178818|-0.003657072316855192|-0.007118243258446455|0.008181065320968628|-0.01122960448265076|0.000929713249206543|XArbitraryZVertical|-0.1668232357940519|0.1906542028418912|-0.8110771124059926|-0.527233355418372|-0.4716515243053436|0.133360967040062|-0.871641993522644|0|0|0|-1|-1|3
2021-03-10 21:13:30.460 +0000|291170.6772145|-0.475372314453125|0.1417388916015625|-0.872161865234375|291170.6772145|1.954419999524116|-0.4962681325570973|-0.1351458702626592|-0.02509396709501743|-0.008004842326045036|0.005910029169172049|-0.00210195779800415|0.005218803882598877|0.001062273979187012|XArbitraryZVertical|-0.1665088116441797|0.1913143425290519|-0.8109932285917093|-0.5272226085244438|-0.4718055427074432|0.1347348541021347|-0.8713472485542297|0|0|0|-1|-1|3
2021-03-10 21:13:30.480 +0000|291170.6971775|-0.4743194580078125|0.127166748046875|-0.869842529296875||||||||||||||||||||||||3
2021-03-10 21:13:30.499 +0000|291170.7171405|-0.4727935791015625|0.1057891845703125|-0.861480712890625|291170.6971775|1.954377650200946|-0.4962590144755082|-0.135956934561289|-0.02600773237645626|0.002505002543330193|0.008726145140826702|-0.005396932363510132|-0.003839835524559021|0.001076996326446533|XArbitraryZVertical|-0.1662760976077118|0.1916368057092601|-0.8110163246859342|-0.5271433514329253|-0.4717454016208649|0.1355384737253189|-0.8712551593780518|0|0|0|-1|-1|3
2021-03-10 21:13:30.519 +0000|291170.7371025|-0.47418212890625|0.09759521484375|-0.8553314208984375|291170.7171405|1.954142803175064|-0.4961431961022844|-0.1364926182649007|-0.0546935573220253|0.01060713734477758|0.004253010731190443|-0.00165674090385437|-0.0273350328207016|0.006774425506591797|XArbitraryZVertical|-0.1660580072475932|0.1918380020561872|-0.810986098818035|-0.5271853815750681|-0.4716098606586456|0.136069193482399|-0.8712458610534668|0|0|0|-1|-1|3
2021-03-10 21:13:30.539 +0000|291170.7570655|-0.480010986328125|0.0883331298828125|-0.847412109375|291170.7371025|1.953453552911806|-0.4959030909756522|-0.1375383969744805|-0.08792915940284729|0.02066243439912796|-0.006397946272045374|-0.001369327306747437|-0.03830449283123016|0.01320123672485352|XArbitraryZVertical|-0.1656041873635295|0.1922460414776178|-0.8108672138933972|-0.5273624152166887|-0.4713326990604401|0.1371051818132401|-0.8712334036827087|0|0|0|-1|-1|3
2021-03-10 21:13:30.559 +0000|291170.7770285|-0.4945220947265625|0.070648193359375|-0.82257080078125|291170.7570655|1.952122260618763|-0.4955724816626279|-0.1394217348492152|-0.1464962214231491|0.03402037173509598|-0.01585767231881618|-0.005427896976470947|-0.04732616245746613|0.02135276794433594|XArbitraryZVertical|-0.164818707962219|0.1930143606147718|-0.8106201023170784|-0.5277075633837025|-0.4709209799766541|0.1389704793691635|-0.8711605072021484|0|0|0|-1|-1|3
2021-03-10 21:13:30.579 +0000|291170.7969915|-0.5982818603515625|0.0120086669921875|-0.76129150390625|291170.7770285|1.949876651915492|-0.4950578111917134|-0.142444871344576|-0.234063908457756|0.06522026658058167|-0.03397213667631149|-0.01544693112373352|-0.06609691679477692|0.0401422381401062|XArbitraryZVertical|-0.1635514207921044|0.1942585588118488|-0.8101913467454809|-0.5283034535248829|-0.4702708125114441|0.1419636458158493|-0.8710290789604187|0|0|0|-1|-1|3
2021-03-10 21:13:30.599 +0000|291170.8169545|-0.5088653564453125|-0.1204833984375|-0.714752197265625|291170.7969915|1.945355581917687|-0.492450707552367|-0.1460434007842747|-0.3390277326107025|0.2535428702831268|-0.04260184615850449|-0.150822252035141|-0.0664231926202774|0.0885322093963623|XArbitraryZVertical|-0.1610510192144388|0.195357070057828|-0.8093493600123569|-0.5299545385523271|-0.4677537977695465|0.145524799823761|-0.8717963695526123|0|0|0|-1|-1|3
2021-03-10 21:13:30.619 +0000|291170.8369175|-0.55926513671875|-0.0642852783203125|-0.6592864990234375|291170.8169545|1.938422375277127|-0.489982908230493|-0.1521364457021593|-0.6067453622817993|0.1305619180202484|-0.1791003942489624|0.0001482069492340088|-0.1901702135801315|0.1395444869995117|XArbitraryZVertical|-0.1576629160156929|0.1976554383507402|-0.8079401745359525|-0.5322662342569606|-0.4651750326156616|0.1515502482652664|-0.8721494674682617|0|0|0|-1|-1|3
2021-03-10 21:13:30.639 +0000|291170.8568805|-0.54937744140625|-0.0740966796875|-0.64300537109375|291170.8369175|1.92781247146191|-0.4880243458242445|-0.161332435304166|-0.8089368343353271|0.246300682425499|-0.2550341486930847|-0.09226074814796448|-0.1773418188095093|0.20331871509552|XArbitraryZVertical|-0.1532153855206336|0.2015676979277939|-0.8056028447408949|-0.5356300866068859|-0.4627929329872131|0.1606334745883942|-0.8717910051345825|0|0|0|-1|-1|3
2021-03-10 21:13:30.659 +0000|291170.8768425|-0.5852508544921875|-0.0622100830078125|-0.6305694580078125|291170.8568805|1.91317304019562|-0.4863857281485459|-0.17466766419621|-1.10908567905426|0.1938197165727615|-0.3643141090869904|-0.06921949982643127|-0.2773727476596832|0.2203541994094849|XArbitraryZVertical|-0.1472525313426425|0.2074323832967346|-0.8022630130047466|-0.5400579130546903|-0.4603215157985687|0.1737808734178543|-0.8705769777297974|0|0|0|-1|-1|3
2021-03-10 21:13:30.679 +0000|291170.8968055|-0.6153106689453125|-0.0407562255859375|-0.6356658935546875|291170.8768425|1.893797334458687|-0.4856033744785192|-0.1923757538504561|-1.3542400598526|0.2184357941150665|-0.5021804571151733|-0.129926472902298|-0.2578417062759399|0.2398746013641357|XArbitraryZVertical|-0.1397662573623208|0.2154667870336389|-0.7976494442880376|-0.5457059830214552|-0.4581319987773895|0.1911913603544235|-0.868078887462616|0|0|0|-1|-1|3
2021-03-10 21:13:30.699 +0000|291170.9167685|-0.6450347900390625|0.0097808837890625|-0.6240692138671875|291170.8968055|1.86880763312551|-0.4863837421382996|-0.213411257121136|-1.645301461219788|0.2211410999298096|-0.6790433526039124|-0.144169956445694|-0.2561675310134888|0.2280945181846619|XArbitraryZVertical|-0.1311299358697509|0.2254283261947101|-0.7913812721649816|-0.5529039374611653|-0.4568279683589935|0.2117950022220612|-0.8639740347862244|0|0|0|-1|-1|3
2021-03-10 21:13:30.719 +0000|291170.9367315|-0.679290771484375|0.0757598876953125|-0.61407470703125|291170.9167685|1.838473859350548|-0.488295181213377|-0.2376497424323848|-1.881567597389221|0.27065709233284|-0.7916584014892578|-0.1806150674819946|-0.2483890205621719|0.2326411008834839|XArbitraryZVertical|-0.1210958492296208|0.2370222258510613|-0.7834954322893404|-0.5615080362916065|-0.4559358656406403|0.2354190796613693|-0.8583125472068787|0|0|0|-1|-1|3
2021-03-10 21:13:30.739 +0000|291170.9566945|-0.6626739501953125|0.1085662841796875|-0.6068572998046875|291170.9367315|1.803811911278808|-0.4902179143180083|-0.2641564084180849|-2.040162324905396|0.3980023562908173|-0.9330862164497375|-0.2246512472629547|-0.193178117275238|0.2374469637870789|XArbitraryZVertical|-0.1094878155562714|0.2493956398084861|-0.7742505680059166|-0.57127087512494|-0.4544869363307953|0.2610950171947479|-0.8516284823417664|0|0|0|-1|-1|3
2021-03-10 21:13:30.759 +0000|291170.9766575|-0.6369476318359375|0.0878448486328125|-0.5802764892578125|291170.9566945|1.763722449562515|-0.4930971240494655|-0.2931997968861101|-2.360652685165405|0.4016419053077698|-1.105193495750427|-0.2194215357303619|-0.1927797198295593|0.2309132814407349|XArbitraryZVertical|-0.09631927736713439|0.262836659485824|-0.7632150425024621|-0.5823592420678888|-0.4531553685665131|0.2890169322490692|-0.8432790040969849|0|0|0|-1|-1|3
2021-03-10 21:13:30.779 +0000|291170.9966205|-0.5829925537109375|0.175628662109375|-0.516082763671875|291170.9766575|1.717226827369303|-0.4997486942245086|-0.3269193181452348|-2.746139526367188|0.2889382541179657|-1.048879027366638|-0.1872583031654358|-0.2125149667263031|0.2451416850090027|XArbitraryZVertical|-0.08164089535490737|0.2787947746353073|-0.749949821682947|-0.5942924975461468|-0.4538244307041168|0.3211270272731781|-0.8312164545059204|0|0|0|-1|-1|3
2021-03-10 21:13:30.798 +0000|291171.0165825|-0.5482330322265625|0.17889404296875|-0.491241455078125|291170.9966205|1.664326478939882|-0.5107215477573296|-0.3678428632840589|-3.242671251296997|0.3742684721946716|-1.281665921211243|-0.1588820219039917|-0.2094874382019043|0.2882157564163208|XArbitraryZVertical|-0.06447540966413946|0.2980371250128997|-0.7344495010131498|-0.6063009236423968|-0.4561082422733307|0.3596034348011017|-0.814033567905426|0|0|0|-1|-1|3
2021-03-10 21:13:30.818 +0000|291171.0365455|-0.5017852783203125|0.1371612548828125|-0.391632080078125|291171.0165825|1.601436386727793|-0.5276145374293376|-0.4142666565878426|-3.704735040664673|0.3002192974090576|-1.479972720146179|-0.1033995151519775|-0.2259592115879059|0.2859510779380798|XArbitraryZVertical|-0.04496331893735685|0.3201805535770015|-0.7155419225316564|-0.6192435471738618|-0.460885763168335|0.4025187194347382|-0.7909254431724548|0|0|0|-1|-1|3
2021-03-10 21:13:30.838 +0000|291171.0565085|-0.4681243896484375|0.204193115234375|-0.351959228515625|291171.0365455|1.528022334224931|-0.5532832897332448|-0.4656843092823248|-4.10460376739502|0.2641051113605499|-1.570777654647827|-0.04429733753204346|-0.3027025163173676|0.3530095219612122|XArbitraryZVertical|-0.02357863185138007|0.3454580575702773|-0.6930658557474193|-0.6322678512275866|-0.4695271253585815|0.4490343332290649|-0.7602055668830872|0|0|0|-1|-1|3
2021-03-10 21:13:30.858 +0000|291171.0764715|-0.4586639404296875|0.2657318115234375|-0.33477783203125|291171.0565085|1.445086754837337|-0.5883363807409119|-0.5204910950633743|-4.452392578125|0.1684138774871826|-1.666987299919128|0.00872194766998291|-0.319236159324646|0.366938591003418|XArbitraryZVertical|-0.0005524865181457117|0.3730240941173205|-0.6675417259868196|-0.6443918501470063|-0.481484979391098|0.4973062574863434|-0.721705436706543|0|0|0|-1|-1|3
2021-03-10 21:13:30.878 +0000|291171.0964345|-0.51226806640625|0.317138671875|-0.28497314453125|291171.0764715|1.348931231998544|-0.6368884221403791|-0.575177035638212|-4.718159675598145|0.00082369614392519|-1.915732026100159|0.0474543571472168|-0.2918928265571594|0.3330997228622437|XArbitraryZVertical|0.02290868765465809|0.4027151764260286|-0.6380861208072941|-0.6558520533027556|-0.4990077316761017|0.5439833402633667|-0.6745913624763489|0|0|0|-1|-1|3
2021-03-10 21:13:30.898 +0000|291171.1163975|-0.56219482421875|0.34283447265625|-0.1772918701171875|291171.0964345|1.238345834479014|-0.7005578281030205|-0.6246590922629625|-4.768258094787598|-0.09507018327713013|-2.181212663650513|0.03298205137252808|-0.2783021330833435|0.3125178217887878|XArbitraryZVertical|0.04551653122027868|0.4334378778146563|-0.6046177496989782|-0.666706195311382|-0.5229112505912781|0.5848207473754883|-0.6201196908950806|0|0|0|-1|-1|3
2021-03-10 21:13:30.929 +0000|291171.1363605|-0.5911102294921875|0.4420013427734375|-0.141204833984375|291171.1163975|1.114528928121592|-0.7762152597315095|-0.664076867251685|-4.839488983154297|-0.06084595248103142|-2.441182613372803|0.0003846883773803711|-0.2593988180160522|0.375998318195343|XArbitraryZVertical|0.06686645460067871|0.4632122294168232|-0.5674905389070328|-0.6774347944473644|-0.5516999959945679|0.6163324117660522|-0.5619266033172607|0|0|0|-1|-1|3
2021-03-10 21:13:30.944 +0000|291171.1563225|-0.6307373046875|0.55145263671875|-0.1099853515625|291171.1363605|0.9793753520256856|-0.863068527945779|-0.6924483815581928|-4.764693260192871|-0.08991824090480804|-2.764210224151611|-0.006195545196533203|-0.2501179575920105|0.3580605387687683|XArbitraryZVertical|0.0869572919931543|0.4921878007423465|-0.5271364514962846|-0.6872529762970062|-0.584838330745697|0.6384235620498657|-0.500379204750061|0|0|0|-1|-1|3
2021-03-10 21:13:30.958 +0000|291171.1762855|-0.68060302734375|0.61676025390625|-0.09033203125|291171.1563225|0.8382265586334261|-0.956697444163247|-0.7021178391406826|-4.314014434814453|-0.1799963563680649|-3.137304306030273|0.01590573787689209|-0.1243363618850708|0.2898923754692078|XArbitraryZVertical|0.1029696719493909|0.5190676645615585|-0.4838362693642913|-0.6970427629606826|-0.6239838004112244|0.6458360552787781|-0.4399320185184479|0|0|0|-1|-1|3
2021-03-10 21:13:30.978 +0000|291171.1962485|-0.7947845458984375|0.4347686767578125|-0.129150390625|291171.1762855|0.7028349348572237|-1.046504438863149|-0.6880234552538954|-3.736940622329712|-0.1028778254985809|-3.586833953857422|-0.003975152969360352|0.01133561134338379|0.2720757126808167|XArbitraryZVertical|0.1123529638879125|0.5422354867485103|-0.4389328895379418|-0.7075984204049299|-0.6687391400337219|0.6350115537643433|-0.3867149651050568|0|0|0|-1|-1|3
2021-03-10 21:13:30.999 +0000|291171.2162115|-0.86798095703125|0.4779815673828125|-0.1140289306640625|291171.2162115|0.4562891750423675|-1.203825128446951|-0.6143949692020269|-3.636794328689575|-0.3398645222187042|-3.965945243835449|-0.08895230293273926|-0.136599063873291|0.1877676248550415|XArbitraryZVertical|0.1207194714523381|0.5820989219223921|-0.3444763866478829|-0.7265836029699201|-0.762717068195343|0.5764642357826233|-0.2931753098964691|0|0|0|-1|-1|3
2021-03-10 21:13:31.018 +0000|291171.2361745|-1.075225830078125|0.658660888671875|-0.117889404296875||||||||||||||||||||||||3
2021-03-10 21:13:31.038 +0000|291171.2561375|-1.347091674804688|0.6063995361328125|-0.12713623046875|291171.2361745|0.3401456640709821|-1.277372395490593|-0.5599770931302065|-3.762751579284668|-0.5293043851852417|-4.312778949737549|-0.2036703824996948|0.104758620262146|0.1269076764583588|XArbitraryZVertical|0.1217002524252831|0.602213283628934|-0.2929625038838689|-0.7325990019633241|-0.8110544681549072|0.5311667919158936|-0.2450564205646515|0|0|0|-1|-1|3
2021-03-10 21:13:31.058 +0000|291171.2761005|-1.531341552734375|0.55084228515625|-0.2111053466796875|291171.2561375|0.2270785545698265|-1.344565009203056|-0.4957394334418919|-4.109160423278809|-0.4020035564899445|-4.43326473236084|-0.4244890809059143|0.1514235138893127|0.07527936995029449|XArbitraryZVertical|0.122317123915466|0.621600033248729|-0.2377405373976762|-0.7362957122074807|-0.8572034239768982|0.4756821990013123|-0.1973038464784622|0|0|0|-1|-1|3
2021-03-10 21:13:31.078 +0000|291171.2960625|-1.71630859375|0.7097015380859375|-0.2328643798828125|291171.2761005|0.1098153259903161|-1.402516986304574|-0.4264004915003825|-4.760639667510986|-0.1648518741130829|-4.434634208679199|-0.5860582590103149|0.1244134604930878|-0.02596183121204376|XArbitraryZVertical|0.1268108716106674|0.6384936952582697|-0.1772877561347438|-0.7381151454742627|-0.8975996971130371|0.4135962724685669|-0.1524896025657654|0|0|0|-1|-1|3
2021-03-10 21:13:31.099 +0000|291171.3160255|-1.7886962890625|0.917144775390625|-0.1035308837890625|291171.2960625|-0.008233867186048268|-1.44744286963664|-0.3535537831243751|-4.816224098205566|0.1877135932445526|-4.285237789154053|-0.7420148253440857|0.3170351088047028|-0.1197225451469421|XArbitraryZVertical|0.1344608493857163|0.6513102093206622|-0.1134110997509335|-0.7381418037429895|-0.9310199022293091|0.3462339639663696|-0.11543058604002|0|0|0|-1|-1|3
2021-03-10 21:13:31.118 +0000|291171.3359885|-1.574905395507812|0.9054107666015625|-0.0527801513671875|291171.3160255|-0.1093091733738028|-1.46786537291502|-0.2816581601082512|-3.862290143966675|0.9707331657409668|-3.888094186782837|-0.8498470783233643|0.6016592979431152|-0.03815543651580811|XArbitraryZVertical|0.1402980372171573|0.6564801441195267|-0.05371296594986952|-0.7392329378334895|-0.9555118680000305|0.2779488563537598|-0.09870056062936783|0|0|0|-1|-1|3
2021-03-10 21:13:31.138 +0000|291171.3559515|-1.323486328125|0.8248138427734375|-0.1729278564453125|291171.3359885|-0.1848082991554691|-1.46169247447699|-0.2193904399030396|-2.800372123718262|1.398809313774109|-3.043411016464233|-0.6707032918930054|0.6992506384849548|0.06181354075670242|XArbitraryZVertical|0.1423904898252804|0.6531356573024181|-0.004468848350475368|-0.743719564000127|-0.9702268838882446|0.2176347076892853|-0.1062775254249573|0|0|0|-1|-1|3
2021-03-10 21:13:31.158 +0000|291171.3759145|-1.21746826171875|0.340606689453125|-0.335052490234375|291171.3759145|-0.2680831110478883|-1.435494932530674|-0.1387913395313504|-0.971676766872406|0.4609793126583099|-1.531703948974609|-0.2442381381988525|0.3482413589954376|-0.1641375422477722|XArbitraryZVertical|0.1394469330186171|0.6432407178908299|0.05523254437449693|-0.7508297835418793|-0.9813326001167297|0.1383461803197861|-0.1335918605327606|0|0|0|-1|-1|3
2021-03-10 21:13:31.178 +0000|291171.3958775|-1.22283935546875|-0.0571746826171875|-0.392578125||||||||||||||||||||||||3
2021-03-10 21:13:31.198 +0000|291171.4158405|-1.145797729492188|0.0811004638671875|-0.3161163330078125|291171.3958775|-0.2883755847317407|-1.435722994810172|-0.1178899223073762|-0.7745277285575867|-0.1925479024648666|-0.8641118407249451|-0.2386883497238159|-0.1112998798489571|-0.2586971521377563|XArbitraryZVertical|0.1382627483197956|0.6434432872339598|0.06969240623669307|-0.7496714170324587|-0.9840137958526611|0.1176170408725739|-0.1337282955646515|0|0|0|-1|-1|3
2021-03-10 21:13:31.218 +0000|291171.4358035|-1.040374755859375|0.199462890625|-0.21282958984375|291171.4158405|-0.3035222526984734|-1.445790119458778|-0.1076936322726861|-0.5788469314575195|-0.6153300404548645|-0.3652181625366211|-0.1818861961364746|-0.1076076552271843|-0.2076606601476669|XArbitraryZVertical|0.1397649494998596|0.6469053083256908|0.07800767316365462|-0.7455829916390139|-0.9864486455917358|0.1074855849146843|-0.1239585652947426|0|0|0|-1|-1|3
2021-03-10 21:13:31.238 +0000|291171.4557655|-0.890106201171875|0.395599365234375|-0.0932769775390625|291171.4358035|-0.312202659004545|-1.460912660638994|-0.104563774519702|-0.2139522731304169|-0.7809793949127197|-0.06511984765529633|-0.09376585483551025|0.08790265768766403|-0.1514953225851059|XArbitraryZVertical|0.1420402735468211|0.6521446973679964|0.08120217927094828|-0.7402283587479082|-0.9885399341583252|0.1043733358383179|-0.1090637072920799|0|0|0|-1|-1|3
2021-03-10 21:13:31.258 +0000|291171.4757285|-0.8251190185546875|0.528900146484375|-0.0139923095703125|291171.4557655|-0.3120928371267038|-1.477025775159737|-0.1058557506324616|0.299165666103363|-0.841045618057251|0.1343065351247787|0.07102757692337036|0.2281583696603775|-0.02679437398910522|XArbitraryZVertical|0.1431213922868026|0.6579982684613624|0.07958195148401226|-0.7349975331495333|-0.9900339841842651|0.1056581661105156|-0.09310909360647202|0|0|0|-1|-1|3
2021-03-10 21:13:31.278 +0000|291171.4956915|-0.7894439697265625|0.5597076416015625|0.0510711669921875|291171.4757285|-0.2968361358954728|-1.492694657049891|-0.1078007928394182|1.19800329208374|-0.8963464498519897|0.1564575582742691|0.1576683521270752|0.4152960777282715|0.03890371322631836|XArbitraryZVertical|0.1393730667572046|0.6646731950185796|0.07223093994734717|-0.7304569877264859|-0.9911644458770752|0.1075921207666397|-0.0775693878531456|0|0|0|-1|-1|3
2021-03-10 21:13:31.297 +0000|291171.5156545|-0.8261566162109375|0.6306610107421875|0.088897705078125|291171.4956915|-0.2660841960277676|-1.507261455456306|-0.1090487577393557|1.757965207099915|-0.9777235388755798|0.1789662390947342|0.1993145942687988|0.4013448655605316|0.1132707595825195|XArbitraryZVertical|0.1300250467197036|0.6719642737493604|0.05962333685607429|-0.7266379345066816|-0.9920545220375061|0.1088327616453171|-0.06311500072479248|0|0|0|-1|-1|3
2021-03-10 21:13:31.318 +0000|291171.5356175|-0.8836822509765625|0.6265106201171875|0.123626708984375|291171.5156545|-0.2262006253931563|-1.523209287112278|-0.1090847718615847|2.193697214126587|-1.036678910255432|0.08881068229675293|0.1813310980796814|0.518862783908844|0.1298364996910095|XArbitraryZVertical|0.1169688726015653|0.6802022604642142|0.04417838814298219|-0.722282063579852|-0.9929307699203491|0.1088685616850853|-0.04728633537888527|0|0|0|-1|-1|3
2021-03-10 21:13:31.337 +0000|291171.5555805|-0.855499267578125|0.643157958984375|0.10791015625|291171.5356175|-0.1786757435938832|-1.537545316866129|-0.1070732000387321|2.51348614692688|-0.9182981252670288|-0.1373135298490524|0.1120707392692566|0.5301399827003479|0.1512033343315125|XArbitraryZVertical|0.1002494536327986|0.6880572640353642|0.02698026732849906|-0.7181917544513999|-0.9937236309051514|0.1068687215447426|-0.03305449709296227|0|0|0|-1|-1|3
2021-03-10 21:13:31.357 +0000|291171.5755435|-0.81524658203125|0.6038360595703125|0.066680908203125|291171.5555805|-0.1259658728763547|-1.550498156725967|-0.1015836053268937|2.745138883590698|-0.8970028162002563|-0.3114052414894104|0.1382403969764709|0.5296792984008789|0.1321154236793518|XArbitraryZVertical|0.08018581066702876|0.6953230644079931|0.009434506197795345|-0.7141478228617326|-0.9946399331092834|0.101408988237381|-0.02019214443862438|0|0|0|-1|-1|3
2021-03-10 21:13:31.378 +0000|291171.5955055|-0.777862548828125|0.5268096923828125|0.0166168212890625|291171.5755435|-0.06892328578949093|-1.56348872434382|-0.0930930470702296|2.946052074432373|-0.9435027837753296|-0.4521534144878387|0.1752699017524719|0.5197275280952454|0.08361572027206421|XArbitraryZVertical|0.05724963348146955|0.7021997803511152|-0.008335968929239379|-0.7096256080146798|-0.9956434369087219|0.09295864403247833|-0.007275895681232214|0|0|0|-1|-1|3
2021-03-10 21:13:31.397 +0000|291171.6154685|-0.7741851806640625|0.4456329345703125|-0.0396728515625|291171.5955055|-0.008246982563470999|-1.577495840691605|-0.08276057533469897|3.088815927505493|-1.00091564655304|-0.5369698405265808|0.211124062538147|0.4668791592121124|0.02173542976379395|XArbitraryZVertical|0.03207652021767152|0.7087378666525835|-0.02644603566024931|-0.7042459418164047|-0.9965549111366272|0.08266612887382507|0.006676533725112677|0|0|0|-1|-1|3
2021-03-10 21:13:31.417 +0000|291171.6354315|-0.7733154296875|0.3670196533203125|-0.0677032470703125|291171.6154685|0.05371238382798268|-1.592585366775554|-0.07251485923659988|3.071740627288818|-0.9931178689002991|-0.5433599352836609|0.2204933166503906|0.3866398930549622|-0.04809712618589401|XArbitraryZVertical|0.006161321805799647|0.7147216727598805|-0.04466821595972922|-0.6979541139124686|-0.9971354603767395|0.07245132327079773|0.02173006348311901|0|0|0|-1|-1|3
2021-03-10 21:13:31.437 +0000|291171.6553945|-0.7787017822265625|0.299163818359375|-0.0766143798828125|291171.6354315|0.1148558790680151|-1.608075611789306|-0.06407897212780478|3.025277853012085|-0.9623740315437317|-0.4652471840381622|0.2251748442649841|0.3316558003425598|-0.1014945507049561|XArbitraryZVertical|-0.01912485801340738|0.7198828515711759|-0.06283311361514896|-0.6909811685224599|-0.9972543120384216|0.06403512507677078|0.03719415888190269|0|0|0|-1|-1|3
2021-03-10 21:13:31.457 +0000|291171.6753566667|-0.83306884765625|0.2189178466796875|-0.0689544677734375|291171.6553945|0.1755440010118523|-1.623245547332729|-0.05857627020142234|3.023301601409912|-0.9262495040893555|-0.3486146926879883|0.2199803590774536|0.2537283599376678|-0.1237157583236694|XArbitraryZVertical|-0.04348206698516763|0.7240697081260969|-0.08147294568549984|-0.6835163297713885|-0.9969121813774109|0.05854277685284615|0.05233526602387428|0|0|0|-1|-1|3
2021-03-10 21:13:31.477 +0000|291171.6953196667|-0.87603759765625|0.2841796875|-0.1022491455078125|291171.6753566667|0.2358190614025274|-1.638557159510063|-0.05709053937556122|2.953594207763672|-0.9313270449638367|-0.1570442616939545|0.1768810153007507|0.1764762699604034|-0.1578543186187744|XArbitraryZVertical|-0.06656521344460625|0.7275770836662838|-0.1009925040077699|-0.675278623847694|-0.996079683303833|0.05705953016877174|0.06759867817163467|0|0|0|-1|-1|3
2021-03-10 21:13:31.497 +0000|291171.7152826667|-1.026260375976562|0.3154296875|-0.05731201171875|291171.6953196667|0.2948544026913244|-1.654398428851195|-0.05981540652641677|3.034422874450684|-1.036771059036255|-0.04932535067200661|0.140995979309082|0.1883892416954041|-0.1874507665634155|XArbitraryZVertical|-0.08804794588874404|0.7307018986877184|-0.1211649342724032|-0.6660640956279663|-0.994725227355957|0.05977974459528923|0.08335541188716888|0|0|0|-1|-1|3
2021-03-10 21:13:31.517 +0000|291171.7352456667|-1.180419921875|0.266326904296875|0.01751708984375|291171.7152826667|0.3572932029448496|-1.669722243406959|-0.06517337387419367|3.238677263259888|-0.8870648145675659|0.005673185922205448|0.003877699375152588|0.2757693827152252|-0.1503584533929825|XArbitraryZVertical|-0.1101174664871451|0.7329062843033159|-0.1429865691894952|-0.655955268768594|-0.9929981231689453|0.06512724608182907|0.09855495393276215|0|0|0|-1|-1|3
2021-03-10 21:13:31.537 +0000|291171.7552076667|-1.31671142578125|0.3134918212890625|0.0438690185546875|291171.7352456667|0.4227875883536088|-1.681431228814532|-0.07271681784174032|3.335588455200195|-0.7055004239082336|0.07785852253437042|-0.1556977033615112|0.1952153444290161|-0.1194558143615723|XArbitraryZVertical|-0.1325365073605693|0.7331390453173041|-0.1663271289287028|-0.6459694698638758|-0.9912596940994263|0.07265274971723557|0.110117569565773|0|0|0|-1|-1|3
2021-03-10 21:13:31.557 +0000|291171.7751706667|-1.500473022460938|0.32147216796875|0.0449066162109375|291171.7552076667|0.48990774603994|-1.688379623904418|-0.08158239614651612|3.429419755935669|-0.5131832361221313|0.04757669195532799|-0.2904813289642334|0.2230430245399475|-0.08452796936035156|XArbitraryZVertical|-0.1548275170559374|0.7310879735964374|-0.1905457657713882|-0.6365777571748941|-0.9897921681404114|0.08149192482233047|0.1169223710894585|0|0|0|-1|-1|3
2021-03-10 21:13:31.577 +0000|291171.7951336667|-1.559844970703125|0.2492828369140625|0.108062744140625|291171.7751706667|0.5598560276525807|-1.689834130986119|-0.09041982879150195|3.59498929977417|-0.1817333996295929|-0.003567184321582317|-0.4652038216590881|0.2309161126613617|-0.06735313683748245|XArbitraryZVertical|-0.1775958533833535|0.7263577538532655|-0.2156956973238504|-0.6279645872960543|-0.9888672232627869|0.090296670794487|0.1182717457413673|0|0|0|-1|-1|3
2021-03-10 21:13:31.597 +0000|291171.8150966667|-1.428970336914062|0.199676513671875|0.1296844482421875|291171.7951336667|0.6312062972347235|-1.681067839847348|-0.09972857497036321|3.493158340454102|0.4214052259922028|0.1455919295549393|-0.5785019397735596|0.1703036576509476|-0.01936770975589752|XArbitraryZVertical|-0.199346096326621|0.717643236463105|-0.2420923439758297|-0.6218043070270731|-0.9889876246452332|0.0995633453130722|0.1095013618469238|0|0|0|-1|-1|3
2021-03-10 21:13:31.617 +0000|291171.8350596667|-1.292388916015625|0.0744171142578125|0.1469573974609375|291171.8150966667|0.6945800600264336|-1.660364295974655|-0.111430057826841|2.818072319030762|0.9626215100288391|0.3615550398826599|-0.4748767614364624|0.1038425713777542|0.03326845914125443|XArbitraryZVertical|-0.2154770395394853|0.7057027752729861|-0.2679382129275046|-0.619485673976175|-0.9898145794868469|0.1111996024847031|0.08889352530241013|0|0|0|-1|-1|3
2021-03-10 21:13:31.637 +0000|291171.8550226667|-1.149993896484375|-0.1061859130859375|0.160888671875|291171.8350596667|0.7395461724811286|-1.631811687730039|-0.1248093614344936|1.653626203536987|1.374329447746277|0.6478140354156494|-0.3295865058898926|-0.01421026885509491|0.07946573942899704|XArbitraryZVertical|-0.2228707229258617|0.6932389447384147|-0.28950770068798|-0.6212355804768753|-0.9903749823570251|0.124485582113266|0.06050318852066994|0|0|0|-1|-1|3
2021-03-10 21:13:31.657 +0000|291171.8749856667|-1.02435302734375|-0.130126953125|0.058319091796875|291171.8550226667|0.756399024021048|-1.598600604024016|-0.1420752922531776|0.112126536667347|1.677466988563538|0.9905838966369629|-0.2036346197128296|-0.2073784321546555|0.1416841745376587|XArbitraryZVertical|-0.2180452497110584|0.6828005275217313|-0.3040794650709887|-0.6275152483721615|-0.9895416498184204|0.1415978074073792|0.02752058207988739|0|0|0|-1|-1|3
2021-03-10 21:13:31.677 +0000|291171.8949476667|-1.032623291015625|-0.1729888916015625|0.12396240234375|291171.8749856667|0.7452635162831637|-1.567112707984497|-0.1649828442978108|-1.16873574256897|1.633848547935486|1.321517944335938|-0.04684966802597046|-0.2911732494831085|0.06563007831573486|XArbitraryZVertical|-0.2017210145598316|0.6763814282980732|-0.3111970787045762|-0.6363750485942935|-0.9864144921302795|0.1642354130744934|-0.003633591579273343|0|0|0|-1|-1|3
2021-03-10 21:13:31.697 +0000|291171.9149106667|-0.928070068359375|-0.1820526123046875|0.1534576416015625|291171.8949476667|0.7099292697720218|-1.539468638586771|-0.1944574546265104|-2.353909969329834|1.801353335380554|1.570719838142395|-0.05573618412017822|-0.3632323741912842|0.1292277574539185|XArbitraryZVertical|-0.1753743069791825|0.6737044918624434|-0.3117480427820198|-0.6466679008286563|-0.9806713461875916|0.1932342499494553|-0.03073222003877163|0|0|0|-1|-1|3
2021-03-10 21:13:31.717 +0000|291171.9348736667|-0.9019317626953125|-0.1422882080078125|0.0907440185546875|291171.9149106667|0.6492833038552743|-1.515754375309917|-0.2327035404430941|-3.750113725662231|1.827600598335266|1.893902659416199|0.033447265625|-0.4395475685596466|0.2256200313568115|XArbitraryZVertical|-0.1378597867686469|0.6739651371587834|-0.3057294060449538|-0.6582517381029357|-0.9715730547904968|0.2306090295314789|-0.05353134498000145|0|0|0|-1|-1|3
2021-03-10 21:13:31.737 +0000|291171.9548366667|-0.903533935546875|-0.0045166015625|0.193572998046875|291171.9348736667|0.5627526349787563|-1.502022709204475|-0.2767128947194954|-4.835843563079834|1.733489274978638|1.931399703025818|0.06081986427307129|-0.4331224262714386|0.1618389487266541|XArbitraryZVertical|-0.09081945936964431|0.6772733625397948|-0.2914523043616357|-0.6694088161577305|-0.9596846103668213|0.2731950581073761|-0.06610523909330368|0|0|0|-1|-1|3
2021-03-10 21:13:31.756 +0000|291171.9747996667|-0.89141845703125|0.2859344482421875|0.218414306640625|291171.9548366667|0.4553810035492308|-1.499780994000504|-0.3242635043406657|-5.713413238525391|1.704231739044189|2.109148025512695|0.04032987356185913|-0.3778148591518402|0.2461366653442383|XArbitraryZVertical|-0.03675510698542658|0.6819238501111325|-0.2701926779298032|-0.6786934909260037|-0.9454964995384216|0.3186107575893402|-0.06725785136222839|0|0|0|-1|-1|3
2021-03-10 21:13:31.777 +0000|291171.9947626667|-0.90301513671875|0.4657135009765625|0.2782745361328125|291171.9747996667|0.333986918705955|-1.508311707631802|-0.3756407136353871|-5.993453025817871|1.587743759155273|2.228947162628174|0.04015165567398071|-0.1532303094863892|0.2651975154876709|XArbitraryZVertical|0.02239232966570726|0.6858962185934229|-0.2450801812065979|-0.6848216367105573|-0.9284573197364807|0.366868644952774|-0.05808992311358452|0|0|0|-1|-1|3
2021-03-10 21:13:31.797 +0000|291172.0147256667|-0.9071044921875|0.5655517578125|0.320098876953125|291171.9947626667|0.2065132496414096|-1.52676271183056|-0.4265464379952418|-6.05375862121582|1.549421429634094|2.236511468887329|0.005464911460876465|0.02804332971572876|0.3156337738037109|XArbitraryZVertical|0.08246337809481549|0.687867839097843|-0.2183390753107295|-0.6872887082536979|-0.9095176458358765|0.4137291610240936|-0.04007525369524956|0|0|0|-1|-1|3
2021-03-10 21:13:31.817 +0000|291172.0346886667|-0.9263153076171875|0.6402435302734375|0.4098052978515625|291172.0147256667|0.0775709730846611|-1.552859284226117|-0.4744225886652595|-5.722837448120117|1.466640472412109|2.163538455963135|-0.01715683937072754|0.0628894567489624|0.3170874714851379|XArbitraryZVertical|0.1411118465368293|0.6871025157774541|-0.1914330891823501|-0.6865354456965089|-0.8894135355949402|0.4568248689174652|-0.01595515944063663|0|0|0|-1|-1|3
2021-03-10 21:13:31.837 +0000|291172.0546506667|-0.890106201171875|0.648681640625|0.49920654296875|291172.0346886667|-0.04894425599854287|-1.583636408433449|-0.5168421275094889|-5.379463195800781|1.494627118110657|2.062938451766968|-0.05295944213867188|0.157992959022522|0.3770363330841064|XArbitraryZVertical|0.1963218080812298|0.6834025717895902|-0.1651857525605925|-0.6834708506902959|-0.8693123459815979|0.4941371977329254|0.01116265449672937|0|0|0|-1|-1|3
2021-03-10 21:13:31.857 +0000|291172.0746136667|-0.8173828125|0.73602294921875|0.4813690185546875|291172.0546506667|-0.1676069177245422|-1.61365037101709|-0.5529364370225098|-4.731051445007324|1.52760922908783|1.816034555435181|-0.06191986799240112|0.1086923480033875|0.4516564607620239|XArbitraryZVertical|0.2463171977764833|0.6764291221338028|-0.1407029966508104|-0.6796869046019576|-0.8502048850059509|0.5251883268356323|0.03645703941583633|0|0|0|-1|-1|3
2021-03-10 21:13:31.877 +0000|291172.0945766667|-0.8197174072265625|0.7663421630859375|0.397216796875|291172.0746136667|-0.273788456468414|-1.642212943342933|-0.5810288737987578|-4.065650463104248|1.293686151504517|1.49853253364563|0.00970149040222168|0.1590625643730164|0.4382785558700562|XArbitraryZVertical|0.2890559896507592|0.6680342745336605|-0.1185942182531159|-0.6753609507327065|-0.8337677717208862|0.5488842725753784|0.05964631587266922|0|0|0|-1|-1|3
2021-03-10 21:13:31.897 +0000|291172.1145396667|-0.8250732421875|0.661163330078125|0.2827911376953125|291172.0945766667|-0.3690411504079629|-1.67167348636048|-0.602213851020024|-3.709339618682861|1.112265825271606|1.337955713272095|0.006463408470153809|0.2093801498413086|0.3475364446640015|XArbitraryZVertical|0.325484876595527|0.6599657147607975|-0.09878801552729918|-0.6698849671723377|-0.8198941946029663|0.5664682388305664|0.08299029618501663|0|0|0|-1|-1|3
2021-03-10 21:13:31.916 +0000|291172.1345026667|-0.779022216796875|0.6364288330078125|0.2144775390625|291172.1145396667|-0.4636149280764392|-1.70440770882209|-0.6191823954308168|-3.757829666137695|1.049230813980103|1.22859525680542|-0.01857316493988037|0.1099076271057129|0.1974096447229385|XArbitraryZVertical|0.3599161271138088|0.6516917208401495|-0.07914905060538627|-0.6629433050209841|-0.8070952892303467|0.5803695321083069|0.1084834337234497|0|0|0|-1|-1|3
2021-03-10 21:13:31.936 +0000|291172.1544656667|-0.7940826416015625|0.62933349609375|0.1150360107421875|291172.1345026667|-0.5579142504126675|-1.739610360949779|-0.6313463649265073|-3.534588575363159|0.9321087598800659|1.119346737861633|0.008771359920501709|0.04912644624710083|0.1058596521615982|XArbitraryZVertical|0.3925244306299944|0.6432243859423895|-0.05925974542538159|-0.6547331283175993|-0.795758843421936|0.5902321338653564|0.1356260776519775|0|0|0|-1|-1|3
2021-03-10 21:13:31.956 +0000|291172.1744286667|-0.856201171875|0.6270599365234375|0.0349884033203125|291172.1544656667|-0.6425890444885674|-1.773528368180145|-0.638669803241554|-3.00499963760376|0.7196930050849915|0.8590976595878601|0.0002678632736206055|0.05189758539199829|-0.020713210105896|XArbitraryZVertical|0.4206085949605367|0.6355452609174727|-0.04138921673419962|-0.6461096296762527|-0.7864465117454529|0.596127986907959|0.1616587340831757|0|0|0|-1|-1|3
2021-03-10 21:13:31.976 +0000|291172.1943906667|-0.8586883544921875|0.5769805908203125|0.018951416015625|291172.1744286667|-0.7133013672264671|-1.802949144798118|-0.6414681325570938|-2.518343210220337|0.5811884999275208|0.6324823498725891|-0.05706781148910522|0.02133280038833618|-0.126294270157814|XArbitraryZVertical|0.4431427644107602|0.6291215058474967|-0.02610724571032558|-0.6380823136268629|-0.77972412109375|0.5983723998069763|0.1843387633562088|0|0|0|-1|-1|3
2021-03-10 21:13:31.996 +0000|291172.2143536667|-0.8225250244140625|0.5412139892578125|-0.0261688232421875|291172.1943906667|-0.775014257743074|-1.828326063019618|-0.6401736396090135|-2.304047107696533|0.5782919526100159|0.4508764743804932|-0.09292513132095337|0.008469760417938232|-0.1785502433776855|XArbitraryZVertical|0.4619364556853073|0.6234945217039686|-0.01177718366565406|-0.6306589161650863|-0.7755441665649414|0.5973346829414368|0.2042614221572876|0|0|0|-1|-1|3
2021-03-10 21:13:32.016 +0000|291172.2343166667|-0.8015899658203125|0.64898681640625|-0.02734375|291172.2143536667|-0.8313808205796707|-1.851273085052699|-0.6356826172045404|-2.133142709732056|0.4895698130130768|0.3312956690788269|-0.05468827486038208|-0.05582410097122192|-0.2418010234832764|XArbitraryZVertical|0.4784143094899721|0.6184587036449221|0.002228949129201324|-0.6233968613077883|-0.7732231616973877|0.5937269330024719|0.2227428406476974|0|0|0|-1|-1|3
2021-03-10 21:13:32.036 +0000|291172.2542796667|-0.852264404296875|0.663360595703125|0.0281829833984375|291172.2343166667|-0.8786516397231162|-1.870770355642382|-0.6303757997729529|-1.661377668380737|0.3450186848640442|0.2549853622913361|-0.0271410346031189|0.04612594842910767|-0.2637883424758911|XArbitraryZVertical|0.4919670180415942|0.6142637412252593|0.01420061176963672|-0.6168037616939005|-0.7717328667640686|0.5894483923912048|0.2387029826641083|0|0|0|-1|-1|3
2021-03-10 21:13:32.056 +0000|291172.2742426667|-0.8763275146484375|0.662445068359375|0.0806427001953125|291172.2542796667|-0.9150105071422617|-1.886645889859352|-0.6256934540961882|-1.338067889213562|0.212759330868721|0.2117409557104111|-0.06869584321975708|0.07178062200546265|-0.2340631783008575|XArbitraryZVertical|0.5023236680878037|0.6111957434710374|0.0232216012443574|-0.6112049108932635|-0.7704612016677856|0.5856595039367676|0.2517786026000977|0|0|0|-1|-1|3
2021-03-10 21:13:32.076 +0000|291172.2942056667|-0.8632659912109375|0.6099090576171875|0.16729736328125|291172.2742426667|-0.9480096819123336|-1.902337331695046|-0.6223693453658401|-1.33607542514801|0.1717539429664612|0.354527473449707|-0.1055422425270081|0.08537304401397705|-0.208026647567749|XArbitraryZVertical|0.5119570859685711|0.6083867563163382|0.03056297548199013|-0.6056661026940313|-0.7682523131370544|0.5829618573188782|0.2644689977169037|0|0|0|-1|-1|3
2021-03-10 21:13:32.096 +0000|291172.3141686667|-0.833343505859375|0.604705810546875|0.2455291748046875|291172.2942056667|-0.9842948958863009|-1.91980670551171|-0.6215737524894865|-1.494903326034546|0.1909313648939133|0.534987211227417|-0.1036791205406189|0.04031956195831299|-0.128806859254837|XArbitraryZVertical|0.5231085464052307|0.6044511059118711|0.03728312169288778|-0.5996718427959697|-0.7639508843421936|0.5823152661323547|0.2780073881149292|0|0|0|-1|-1|3
2021-03-10 21:13:32.116 +0000|291172.3341306667|-0.79278564453125|0.698974609375|0.2925872802734375|291172.3141686667|-1.024751086648762|-1.939839129454244|-0.6215604669803206|-1.523298859596252|0.1600329428911209|0.598171591758728|-0.08169925212860107|0.007081508636474609|-0.06622159481048584|XArbitraryZVertical|0.5356932788748507|0.5997176848383744|0.04404666679826255|-0.5928164848931129|-0.7582360506057739|0.5823044776916504|0.2932571768760681|0|0|0|-1|-1|3
2021-03-10 21:13:32.136 +0000|291172.3540936667|-0.7899627685546875|0.7372283935546875|0.2328948974609375|291172.3341306667|-1.061004594684907|-1.957938384281327|-0.6233590091038703|-1.085371375083923|0.136251837015152|0.6725524067878723|-0.05331194400787354|0.08980298042297363|-0.01718345284461975|XArbitraryZVertical|0.5472453281282184|0.5948029336735368|0.04914652739111877|-0.5867850002417127|-0.7518333196640015|0.5837656855583191|0.3065359592437744|0|0|0|-1|-1|3
2021-03-10 21:13:32.156 +0000|291172.3740566667|-0.8709259033203125|0.779510498046875|0.0797882080078125|291172.3540936667|-1.086942249480447|-1.971462104225419|-0.6308151764599716|-0.5582209825515747|0.03189975023269653|0.8237959742546082|-0.03013688325881958|0.1440834999084473|-0.06461775302886963|XArbitraryZVertical|0.5564646200911103|0.5897724335248652|0.05013972294344178|-0.5830966395069466|-0.7435905933380127|0.5898032188415527|0.3149687945842743|0|0|0|-1|-1|3
2021-03-10 21:13:32.176 +0000|291172.3940196667|-0.8403778076171875|0.7151031494140625|-0.1937103271484375|291172.3740566667|-1.100286392361569|-1.978675533432706|-0.6455809610331531|0.2299258410930634|0.02352655678987503|0.9987526535987854|-0.1142642498016357|0.1521062850952148|-0.184876948595047|XArbitraryZVertical|0.5628487524194929|0.5844816412361151|0.04634866478324901|-0.582609863983133|-0.733224093914032|0.6016625761985779|0.3168350160121918|0|0|0|-1|-1|3
2021-03-10 21:13:32.196 +0000|291172.4139826667|-0.7325286865234375|0.4546966552734375|-0.1805267333984375|291172.3940196667|-1.095405916313712|-1.974512120631577|-0.6688608792829632|0.8187671899795532|0.03002136945724487|0.9655461311340332|-0.1588972806930542|0.1964966654777527|-0.4485278129577637|XArbitraryZVertical|0.5648758807890657|0.5788018999676896|0.03716863478338692|-0.5869601555429511|-0.7214586138725281|0.6200926899909973|0.3081927895545959|0|0|0|-1|-1|3
2021-03-10 21:13:32.216 +0000|291172.4339456667|-0.7088165283203125|0.4407958984375|0.07855224609375|291172.4139826667|-1.091075512063495|-1.970929096076101|-0.6901796281448492|0.275736540555954|0.164369523525238|0.8625261187553406|-0.02363669872283936|-0.1882502436637878|-0.5494715571403503|XArbitraryZVertical|0.5667661663308494|0.5735588206099139|0.02872798811829966|-0.5907463528963881|-0.71021968126297|0.6366757154464722|0.3003872036933899|0|0|0|-1|-1|3
2021-03-10 21:13:32.236 +0000|291172.4539086667|-0.694976806640625|0.446136474609375|0.386688232421875|291172.4339456667|-1.099771310179625|-1.969521336762662|-0.7055706346558606|-0.2717556655406952|0.4973324537277222|0.7703849077224731|-0.01223289966583252|-0.2025149464607239|-0.2656552791595459|XArbitraryZVertical|0.5714968686890698|0.5667141980370886|0.02579956347709592|-0.5929256317326246|-0.70152747631073|0.6484683156013489|0.2955473065376282|0|0|0|-1|-1|3
2021-03-10 21:13:32.256 +0000|291172.4738716667|-0.7425079345703125|0.4985504150390625|0.6485595703125|291172.4539086667|-1.118306049259809|-1.970032059018886|-0.7132381463971997|-0.6079869866371155|0.6497703790664673|0.5207549929618835|0.0003025531768798828|-0.2038161158561707|0.00291106104850769|XArbitraryZVertical|0.5778284751771849|0.5595500914613081|0.02821596419452455|-0.5934828034903297|-0.6967746615409851|0.6542860269546509|0.2939641177654266|0|0|0|-1|-1|3
2021-03-10 21:13:32.276 +0000|291172.4938336667|-0.758209228515625|0.659332275390625|0.677337646484375|291172.4738716667|-1.134436388744952|-1.966268264790393|-0.7180833473621175|-0.2601841390132904|0.7597617506980896|0.3802497386932373|-0.03511428833007812|-0.1901233196258545|0.3335729837417603|XArbitraryZVertical|0.5829409991987197|0.5524827569567571|0.03225185335018785|-0.5948969946714672|-0.6949425339698792|0.657942533493042|0.2901148200035095|0|0|0|-1|-1|3
2021-03-10 21:13:32.296 +0000|291172.5137966667|-0.657867431640625|0.5510101318359375|0.6234588623046875|291172.4938336667|-1.137671603786818|-1.953187521764555|-0.7234576418343527|0.2042820900678635|0.7776078581809998|0.2081105262041092|-0.06392061710357666|-0.03215837478637695|0.3793812096118927|XArbitraryZVertical|0.5843673462741312|0.546217028097483|0.03499071935820416|-0.5991139461434615|-0.6953873634338379|0.6619802117347717|0.2796764671802521|0|0|0|-1|-1|3
2021-03-10 21:13:32.316 +0000|291172.5337596667|-0.53045654296875|0.6312713623046875|0.3975982666015625|291172.5137966667|-1.136379426373102|-1.935184096965412|-0.7256224213241053|-0.2573103606700897|0.9178900122642517|-0.01805558055639267|0.0005739927291870117|-0.07809096574783325|0.4049993455410004|XArbitraryZVertical|0.5839931599506194|0.5406038503121706|0.03903959455213393|-0.6042974086384818|-0.6989687085151672|0.6636012196540833|0.2666010558605194|0|0|0|-1|-1|3
2021-03-10 21:13:32.336 +0000|291172.5537226667|-0.4922027587890625|0.66485595703125|0.2639312744140625|291172.5337596667|-1.151544300633385|-1.927498468414657|-0.7202129883866842|-0.8852113485336304|0.8493313193321228|-0.06829088181257248|0.1532641649246216|-0.06634408235549927|0.1834977865219116|XArbitraryZVertical|0.587120686042532|0.5352800752004881|0.04792003185379368|-0.6053662188292867|-0.7043506503105164|0.6595447659492493|0.262470930814743|0|0|0|-1|-1|3
2021-03-10 21:13:32.356 +0000|291172.5736856667|-0.487579345703125|0.616363525390625|0.15631103515625|291172.5537226667|-1.173976034336841|-1.925807140869778|-0.7131589391220584|-0.8443781733512878|0.7864329218864441|-0.01921112462878227|0.2125866413116455|0.01035505533218384|0.03227609395980835|XArbitraryZVertical|0.5920325037270108|0.5300400428604438|0.05785680465407156|-0.6043240663987763|-0.7091381549835205|0.6542261242866516|0.2628898620605469|0|0|0|-1|-1|3
2021-03-10 21:13:32.376 +0000|291172.5936486667|-0.5640869140625|0.4996795654296875|0.120330810546875|291172.5736856667|-1.190031037020363|-1.921820579361892|-0.7075072749125407|-0.4892040193080902|0.6341626048088074|-0.07700029760599136|0.2302427887916565|-0.01047605276107788|-0.07892444729804993|XArbitraryZVertical|0.5953368615755896|0.5255835233321344|0.06600856828158856|-0.6041347666893149|-0.7136412262916565|0.6499413847923279|0.2613280415534973|0|0|0|-1|-1|3
2021-03-10 21:13:32.396 +0000|291172.6136116667|-0.637725830078125|0.397369384765625|0.155975341796875|291172.5936486667|-1.196021338641585|-1.913899348981948|-0.7036417604582422|-0.06320741772651672|0.5746776461601257|-0.1399929374456406|0.1793074607849121|-0.1155351996421814|-0.1382088959217072|XArbitraryZVertical|0.5960790035483081|0.5224413477161114|0.07162322395082815|-0.605487396954029|-0.7180495262145996|0.6469987630844116|0.2565102875232697|0|0|0|-1|-1|3
2021-03-10 21:13:32.416 +0000|291172.6335736667|-0.772186279296875|0.372955322265625|0.3399200439453125|291172.6136116667|-1.192946372440905|-1.900714491611367|-0.7006628248161078|0.1293087899684906|0.5427438616752625|-0.2440279871225357|0.1020193099975586|-0.224161684513092|-0.1081330478191376|XArbitraryZVertical|0.59435744914955|0.5201551134281444|0.07572373094388836|-0.6086410415317787|-0.7231894135475159|0.6447244882583618|0.2476442456245422|0|0|0|-1|-1|3
2021-03-10 21:13:32.436 +0000|291172.6535366667|-0.50701904296875|0.4737548828125|0.372711181640625|291172.6335736667|-1.183701791659694|-1.884073707139173|-0.6966604824788969|0.4681456685066223|0.5739565491676331|-0.33393195271492|-0.01765549182891846|-0.2695895433425903|0.06691443920135498|XArbitraryZVertical|0.5907109541412391|0.518888481857541|0.07931904306504019|-0.6128000220964747|-0.7296590209007263|0.6416599154472351|0.2363693714141846|0|0|0|-1|-1|3
2021-03-10 21:13:32.456 +0000|291172.6735007917|-1.117080688476562|0.587066650390625|0.4779205322265625|291172.6535366667|-1.159514515290307|-1.855558930231533|-0.6864791083394435|1.072937846183777|0.2124240845441818|-1.019706964492798|0.07332682609558105|-0.1594219207763672|0.2018648684024811|XArbitraryZVertical|0.5816620857129322|0.5199195255299748|0.08400013051869486|-0.6199169607422155|-0.7423332333564758|0.6338177919387817|0.2172941863536835|0|0|0|-1|-1|3
2021-03-10 21:13:32.475 +0000|291172.6934637917|-0.5778961181640625|0.407257080078125|0.3779144287109375|291172.6735007917|-1.123859996486354|-1.832908263768932|-0.6849672678333977|1.680284023284912|0.290303111076355|-0.3601576387882233|-0.2357453107833862|-0.1371794939041138|0.2585701942443848|XArbitraryZVertical|0.5711794733154629|0.5235368257867945|0.07997304861374289|-0.6271105390441822|-0.7479888200759888|0.6326476335525513|0.2006735950708389|0|0|0|-1|-1|3
2021-03-10 21:13:32.495 +0000|291172.7134267917|-0.8576812744140625|0.3593902587890625|0.3986968994140625|291172.6934637917|-1.072474994607752|-1.791890292845049|-0.683662912670332|1.969336986541748|0.1198388785123825|-0.7220407724380493|0.0522913932800293|-0.1136010885238647|0.2141878604888916|XArbitraryZVertical|0.5558724259623326|0.5253688787947983|0.07573897500581511|-0.639732021165248|-0.7563930153846741|0.6316369771957397|0.1700132191181183|0|0|0|-1|-1|3
2021-03-10 21:13:32.515 +0000|291172.7333897917|-0.792755126953125|0.4460906982421875|0.2806396484375|291172.7134267917|-1.020927898879111|-1.765623712586403|-0.6765207755791994|1.738506078720093|-0.4120112657546997|-0.5124678611755371|0.01440858840942383|-0.2649540901184082|0.2128111124038696|XArbitraryZVertical|0.5399084615403229|0.5328959765025462|0.06898111114545713|-0.6478907414138247|-0.7650036811828613|0.6260838508605957|0.1509585380554199|0|0|0|-1|-1|3
2021-03-10 21:13:32.535 +0000|291172.7533527917|-0.88409423828125|0.28521728515625|0.260223388671875|291172.7333897917|-0.9757061070575972|-1.743285585421898|-0.6699308088873375|1.765829801559448|-0.2907402515411377|-0.7372486591339111|-0.0947871208190918|-0.1639463305473328|0.2300853580236435|XArbitraryZVertical|0.5257050831619606|0.5393547489979748|0.06263697243184657|-0.6548337377715474|-0.7722325325012207|0.6209317445755005|0.1345387548208237|0|0|0|-1|-1|3
2021-03-10 21:13:32.555 +0000|291172.7733157917|-0.933319091796875|0.2518310546875|0.1363372802734375|291172.7533527917|-0.9312787126093656|-1.724154371159541|-0.6615486844821027|1.502716898918152|-0.4853865206241608|-0.7377458810806274|-0.1025581359863281|-0.2765710353851318|0.1557283252477646|XArbitraryZVertical|0.5112751704810137|0.5466843365075642|0.05607421563795803|-0.6607492351371499|-0.7797812223434448|0.6143395900726318|0.1205321252346039|0|0|0|-1|-1|3
2021-03-10 21:13:32.575 +0000|291172.7932777917|-0.9537811279296875|0.446624755859375|0.0308074951171875|291172.7733157917|-0.9001957666891932|-1.717001312013973|-0.650470290311437|0.7755960822105408|-0.6998108625411987|-0.7536463141441345|-0.1265705227851868|-0.4042514562606812|0.05848754942417145|XArbitraryZVertical|0.5000520871333869|0.5549016028052298|0.05167760690732434|-0.662843651846959|-0.7873089909553528|0.6055607199668884|0.1159357577562332|0|0|0|-1|-1|3
2021-03-10 21:13:32.595 +0000|291172.8132407917|-0.8914337158203125|0.6105499267578125|-0.1592254638671875|291172.7932777917|-0.8833369338383776|-1.723261394977404|-0.6367822763270775|0.3951690495014191|-0.9062111377716064|-0.8047675490379333|-0.155051052570343|-0.1844550967216492|-0.06192885339260101|XArbitraryZVertical|0.4923786199686073|0.5644626568075349|0.04959476664375048|-0.6606706635985334|-0.7946866154670715|0.5946114063262939|0.122109591960907|0|0|0|-1|-1|3
2021-03-10 21:13:32.615 +0000|291172.8332037917|-0.877105712890625|0.4852447509765625|-0.0999908447265625|291172.8132407917|-0.8783832846216366|-1.739697651367265|-0.6216439651873688|-0.2366569042205811|-1.021214842796326|-0.7279351353645325|-0.1067419648170471|0.01291882991790771|-0.2644898891448975|XArbitraryZVertical|0.4879162002900707|0.5746857094072376|0.04954267446963634|-0.6551486672221447|-0.8013545274734497|0.5823723673820496|0.1366517692804337|0|0|0|-1|-1|3
2021-03-10 21:13:32.635 +0000|291172.8531667917|-0.859710693359375|0.437286376953125|-0.0787811279296875|291172.8332037917|-0.8868758439379476|-1.763787493809481|-0.6069172299258974|-0.6955798268318176|-0.8738019466400146|-0.6001548171043396|-0.08029872179031372|-0.05080676078796387|-0.2841752767562866|XArbitraryZVertical|0.4876538499022631|0.5839221318472859|0.0519154528572548|-0.6469415955111399|-0.806160569190979|0.5703379511833191|0.1575426608324051|0|0|0|-1|-1|3
2021-03-10 21:13:32.655 +0000|291172.8731297917|-0.7555084228515625|0.3505096435546875|-0.085693359375|291172.8531667917|-0.9024034366741575|-1.789073403869327|-0.5941775335113713|-0.7189651131629944|-0.7415024638175964|-0.4267416894435883|-0.03406953811645508|-0.1153541803359985|-0.2691857814788818|XArbitraryZVertical|0.490066533262707|0.5912288867428757|0.05549461464295133|-0.6381250673417519|-0.8089480400085449|0.559827446937561|0.1794336140155792|0|0|0|-1|-1|3
2021-03-10 21:13:32.675 +0000|291172.8930927917|-0.7529449462890625|0.4968414306640625|-0.0686187744140625|291172.8731297917|-0.9152956243592565|-1.81020277225092|-0.5813994958604708|-0.5860509276390076|-0.6830770969390869|-0.5777955651283264|0.01135343313217163|-0.2147671580314636|-0.2750234603881836|XArbitraryZVertical|0.4917246767023199|0.5977368737006158|0.0592056306524873|-0.6304064370434199|-0.8118600845336914|0.5491940379142761|0.1981650590896606|0|0|0|-1|-1|3
2021-03-10 21:13:32.695 +0000|291172.9130557917|-0.693450927734375|0.4762725830078125|0.0078125|291172.8930927917|-0.9198419462847571|-1.825471501502595|-0.5675620571421016|-0.1042513400316238|-0.5617344975471497|-0.6881033778190613|0.07909321784973145|-0.05636149644851685|-0.298338770866394|XArbitraryZVertical|0.4905827634495224|0.6046027461330802|0.06210865825200174|-0.6244410902218455|-0.8160164952278137|0.5375779271125793|0.212431862950325|0|0|0|-1|-1|3
2021-03-10 21:13:32.715 +0000|291172.9330177917|-0.758544921875|0.4510498046875|0.042266845703125|291172.9130557917|-0.9142320043152691|-1.832091259122932|-0.5542737618431831|0.03786176443099976|-0.3980591893196106|-0.6885662078857422|0.1190133094787598|-0.04286646842956543|-0.2426347732543945|XArbitraryZVertical|0.4862371219753113|0.61106546784527|0.06377695255898599|-0.6213734930595484|-0.821421205997467|0.5263259410858154|0.2196550965309143|0|0|0|-1|-1|3
2021-03-10 21:13:32.735 +0000|291172.9529807917|-0.8188323974609375|0.69476318359375|-0.016571044921875|291172.9330177917|-0.9106929255044057|-1.836510821968388|-0.5393152668148834|-0.1805379986763|-0.2073264718055725|-0.8445526957511902|0.08873504400253296|-0.08798092603683472|-0.1815328598022461|XArbitraryZVertical|0.482070768194067|0.6166608530770015|0.06728318809048386|-0.6187166130596301|-0.8279471397399902|0.5135485529899597|0.2253256738185883|0|0|0|-1|-1|3
2021-03-10 21:13:32.755 +0000|291172.9729437917|-0.8641204833984375|0.865997314453125|-0.0362396240234375|291172.9529807917|-0.9087321507431884|-1.838403052588271|-0.5210279801243175|-0.04337140917778015|-0.09626088291406631|-0.9520363807678223|0.0357934832572937|0.1298220753669739|-0.236142486333847|XArbitraryZVertical|0.4775562894738423|0.6217785550211233|0.07316305910038685|-0.616424106782168|-0.8364375233650208|0.4977719783782959|0.2293371558189392|0|0|0|-1|-1|3
2021-03-10 21:13:32.775 +0000|291172.9929067917|-0.8965911865234375|0.8441925048828125|-0.02618408203125|291172.9729437917|-0.8962991669442842|-1.830468329416191|-0.5042210997404535|0.4770964980125427|0.03164722770452499|-1.085814237594604|-0.009149014949798584|0.342664897441864|-0.2604997754096985|XArbitraryZVertical|0.4696686732044207|0.6259522193815312|0.07757863332856836|-0.6177191374788222|-0.8461978435516357|0.483125627040863|0.2248096913099289|0|0|0|-1|-1|3
2021-03-10 21:13:32.795 +0000|291173.0128697917|-0.9553375244140625|0.761016845703125|-0.023162841796875|291172.9929067917|-0.8778364072261864|-1.819086076446084|-0.4854497882592443|0.6167671680450439|0.2043982893228531|-1.120921730995178|-0.02937638759613037|0.4181441962718964|-0.245598167181015|XArbitraryZVertical|0.4591661512376169|0.6307484411717544|0.08161266009783832|-0.6202115981540047|-0.857342541217804|0.4666062295436859|0.2173542976379395|0|0|0|-1|-1|3
2021-03-10 21:13:32.815 +0000|291173.0328327917|-0.952880859375|0.74664306640625|-0.0040740966796875|291173.0128697917|-0.8612217211495939|-1.80487491116631|-0.4654013967759393|0.3640168011188507|0.4514913856983185|-1.185993790626526|-0.07701843976974487|0.31368488073349|-0.2235583066940308|XArbitraryZVertical|0.448643012498662|0.6343170360686299|0.08723962683959992|-0.6234987393867248|-0.8692706227302551|0.4487815499305725|0.207277312874794|0|0|0|-1|-1|3
2021-03-10 21:13:32.835 +0000|291173.0527957917|-0.9163360595703125|0.670654296875|0.0454254150390625|291173.0328327917|-0.8472681724916185|-1.78766802559186|-0.4439902596471884|0.4363521039485931|0.6598489284515381|-1.18345046043396|-0.06934154033660889|0.3330117464065552|-0.2101213932037354|XArbitraryZVertical|0.4382941697991943|0.6364392099496342|0.09473879551695341|-0.6275890313516236|-0.8818914294242859|0.4295462667942047|0.1943132877349854|0|0|0|-1|-1|3
2021-03-10 21:13:32.855 +0000|291173.0727587917|-0.86181640625|0.58843994140625|0.06134033203125|291173.0527957917|-0.8305064208222751|-1.765339810777915|-0.4231470373928517|0.6290637850761414|0.8607968688011169|-1.172217965126038|-0.03456765413284302|0.2867710590362549|-0.1411881297826767|XArbitraryZVertical|0.426703139916753|0.6372272266924215|0.1020713453916189|-0.6335988469185337|-0.8946012258529663|0.4106319546699524|0.1762682199478149|0|0|0|-1|-1|3
2021-03-10 21:13:32.875 +0000|291173.0927207917|-0.8213348388671875|0.521820068359375|0.0609283447265625|291173.0727587917|-0.8110768050068755|-1.739472270621081|-0.4032273834090516|0.7705881595611572|0.9365415573120117|-1.102638721466064|0.0337444543838501|0.2176269292831421|-0.09635353088378906|XArbitraryZVertical|0.4140551365194819|0.6369968888253809|0.1087064112737911|-0.641074304795942|-0.9067455530166626|0.3923889398574829|0.1544133871793747|0|0|0|-1|-1|3
2021-03-10 21:13:32.895 +0000|291173.1126837917|-0.802886962890625|0.483154296875|0.032806396484375|291173.0927207917|-0.7895445632667967|-1.712540317817985|-0.3853824319450659|0.935271680355072|0.9198306202888489|-0.9575161933898926|0.08648985624313354|0.1642628014087677|-0.06338812410831451|XArbitraryZVertical|0.4009810791994101|0.6361354832547225|0.1138134983316628|-0.6493014049023188|-0.9173614382743835|0.3759135603904724|0.1309083551168442|0|0|0|-1|-1|3
2021-03-10 21:13:32.915 +0000|291173.1326467917|-0.806793212890625|0.4178924560546875|0.01715087890625|291173.1126837917|-0.7645677610436887|-1.686178085800387|-0.3707759439920493|1.204073190689087|0.7995493412017822|-0.7922441959381104|0.1224586963653564|0.127239465713501|-0.06744672358036041|XArbitraryZVertical|0.3875338507608104|0.6351919882325221|0.1161770844057496|-0.6579144793324019|-0.9258491396903992|0.3623387515544891|0.1073026955127716|0|0|0|-1|-1|3
2021-03-10 21:13:32.935 +0000|291173.1526097917|-0.837493896484375|0.33544921875|-0.0233001708984375|291173.1326467917|-0.7350348707034158|-1.661294453830781|-0.3596654456697368|1.403871774673462|0.6339902877807617|-0.5998886227607727|0.1306706666946411|0.08640861511230469|-0.06425202637910843|XArbitraryZVertical|0.3735882330713998|0.6346084073644764|0.1151544788406341|-0.6666659465852932|-0.9321843385696411|0.3519611060619354|0.08459199965000153|0|0|0|-1|-1|3
2021-03-10 21:13:32.955 +0000|291173.1725727917|-0.88909912109375|0.1865386962890625|-0.0748748779296875|291173.1526097917|-0.7032237921489014|-1.639282308732972|-0.3517593754338959|1.452857732772827|0.4672487676143646|-0.4316255748271942|0.1088085174560547|0.006539523601531982|-0.07542681694030762|XArbitraryZVertical|0.3599582719791165|0.6344691829374546|0.1113645068460999|-0.6748902835824939|-0.9365673065185547|0.3445499837398529|0.06424220651388168|0|0|0|-1|-1|3
2021-03-10 21:13:32.975 +0000|291173.1925357917|-0.945709228515625|0.2711944580078125|0.04388427734375|291173.1725727917|-0.67660250764776|-1.623594655792974|-0.3475307298988244|0.9377118945121765|0.1827768832445145|-0.1530467867851257|0.06450146436691284|-0.1219492554664612|-0.1334199905395508|XArbitraryZVertical|0.3494045308033096|0.6346068676817761|0.1066344521476657|-0.6810431303216922|-0.9389064311981201|0.3405771851539612|0.04961880668997765|0|0|0|-1|-1|3
2021-03-10 21:13:32.995 +0000|291173.2124987917|-0.9896697998046875|0.46502685546875|-0.0191192626953125|291173.1925357917|-0.66409751656195|-1.618496952143588|-0.3468544973321067|0.3218781352043152|-0.04368225485086441|0.04810808226466179|0.001815915107727051|-0.1184905469417572|-0.02976715937256813|XArbitraryZVertical|0.3449643269042023|0.6351543550856366|0.1034952952271312|-0.6832768707228688|-0.9393769502639771|0.3399413228034973|0.04484288394451141|0|0|0|-1|-1|3
2021-03-10 21:13:33.014 +0000|291173.2324607917|-0.9511566162109375|0.33404541015625|-0.1331024169921875|291173.2124987917|-0.6567689560969298|-1.617807198501131|-0.3482032393076841|0.4273840487003326|-0.1173441186547279|0.06569408625364304|-0.04502946138381958|0.1130599975585938|-0.04681313037872314|XArbitraryZVertical|0.3430065680175322|0.6359506030024932|0.1006281988907386|-0.6839498105532411|-0.9389488697052002|0.3412094414234161|0.04417334869503975|0|0|0|-1|-1|3
2021-03-10 21:13:33.034 +0000|291173.2524237917|-0.949188232421875|0.3164825439453125|-0.1045379638671875|291173.2324607917|-0.6487389275627614|-1.617640423750853|-0.3504261570853496|0.2957405149936676|-0.1618220508098602|0.1132791787385941|-0.02895158529281616|0.01325404644012451|-0.1523489952087402|XArbitraryZVertical|0.3411139725564464|0.6368923177721941|0.09711664621123334|-0.6845274981605717|-0.9381963014602661|0.3432981073856354|0.04398113489151001|0|0|0|-1|-1|3
2021-03-10 21:13:33.055 +0000|291173.2723867917|-0.972503662109375|0.329620361328125|-0.00982666015625|291173.2524237917|-0.6474064407196617|-1.621492451147649|-0.3532454452405722|-0.1777346730232239|-0.2557009756565094|0.1493210792541504|-0.0003284215927124023|-0.006360352039337158|-0.1751546859741211|XArbitraryZVertical|0.3417247838041458|0.6379631106547097|0.09499643749540986|-0.6835224523070779|-0.9370495080947876|0.3459446728229523|0.04754551500082016|0|0|0|-1|-1|3
2021-03-10 21:13:33.074 +0000|291173.2923497917|-0.9852752685546875|0.4315032958984375|0.0766143798828125|291173.2723867917|-0.6556680951420637|-1.629838865713775|-0.355374553258287|-0.5280185341835022|-0.298129141330719|0.09859912842512131|-0.03669732809066772|-0.04091942310333252|-0.08553361892700195|XArbitraryZVertical|0.3453989285670692|0.6390306519034316|0.09561787048495324|-0.6805855501101721|-0.9358826875686646|0.3479415476322174|0.05532118678092957|0|0|0|-1|-1|3
2021-03-10 21:13:33.094 +0000|291173.3123127917|-1.015045166015625|0.50482177734375|0.16015625|291173.2923497917|-0.6667451491952239|-1.640677424325995|-0.3555611036647647|-0.4492036700248718|-0.3983853757381439|-0.01249498780816793|-0.04278773069381714|0.05886602401733398|-0.01095234602689743|XArbitraryZVertical|0.3495215638774901|0.6407519757723181|0.09742630166199151|-0.6765943318193954|-0.9351634979248047|0.3481164276599884|0.06545683741569519|0|0|0|-1|-1|3
2021-03-10 21:13:33.114 +0000|291173.3322757917|-1.00250244140625|0.55419921875|0.1948089599609375|291173.3123127917|-0.6733415052228874|-1.65119594580986|-0.3536495277028101|-0.1312321126461029|-0.4225747287273407|-0.137252539396286|-0.07330763339996338|0.146397739648819|0.06915795058012009|XArbitraryZVertical|0.3515910263732529|0.6434711983462821|0.09849697002857376|-0.6727755747994207|-0.9350847005844116|0.3463237881660461|0.07534286379814148|0|0|0|-1|-1|3
2021-03-10 21:13:33.134 +0000|291173.3522387917|-0.9468536376953125|0.5022430419921875|0.2119903564453125|291173.3322757917|-0.6702637977025873|-1.656401187016864|-0.3508894107561027|0.313152015209198|-0.3818380832672119|-0.2338521480560303|-0.07572382688522339|0.2015092074871063|0.1127790287137032|XArbitraryZVertical|0.350043791015809|0.646231107937473|0.09754783409534595|-0.6710732510930997|-0.9356288313865662|0.343733161687851|0.08029060065746307|0|0|0|-1|-1|3
2021-03-10 21:13:33.154 +0000|291173.3722007917|-0.84912109375|0.4056243896484375|0.2064666748046875|291173.3522387917|-0.6596310391156913|-1.659469799485486|-0.346744628294365|0.6355734467506409|-0.2800195217132568|-0.2664289772510529|-0.02887874841690063|0.1876888573169708|0.1205096244812012|XArbitraryZVertical|0.3455294432524944|0.6498098011311911|0.09495006384186153|-0.6703292032538934|-0.9367890357971191|0.3398379981517792|0.08328674733638763|0|0|0|-1|-1|3
2021-03-10 21:13:33.174 +0000|291173.3921637917|-0.7844390869140625|0.345672607421875|0.193939208984375|291173.3722007917|-0.6437231663246497|-1.659069996735218|-0.3425260868967013|0.800011157989502|-0.2297797948122025|-0.2861736714839935|0.06467622518539429|0.08127722144126892|0.1259161233901978|XArbitraryZVertical|0.3390854331843575|0.6531002940991394|0.0912147154913992|-0.6709403830186069|-0.9382418990135193|0.3358674943447113|0.0830378532409668|0|0|0|-1|-1|3
2021-03-10 21:13:33.194 +0000|291173.4121267917|-0.778106689453125|0.3421478271484375|0.1625213623046875|291173.3921637917|-0.6250259577263978|-1.65762446701714|-0.3379482528016656|0.9195571541786194|-0.2576775252819061|-0.3307145237922668|0.1441217064857483|0.02097168564796448|0.11606215685606|XArbitraryZVertical|0.3315409181228867|0.6564964639657985|0.08684192215669437|-0.6719757692085376|-0.939882755279541|0.3315520882606506|0.08181397616863251|0|0|0|-1|-1|3
2021-03-10 21:13:33.214 +0000|291173.4320897917|-0.8460235595703125|0.364410400390625|0.1202545166015625|291173.4121267917|-0.6041222761881221|-1.656644363594467|-0.334449519278605|1.005966782569885|-0.2972119450569153|-0.3637768626213074|0.1704826354980469|0.0183388888835907|0.08427631109952927|XArbitraryZVertical|0.3235730354890498|0.6601487341966836|0.08124511197686804|-0.672980916692383|-0.9411124587059021|0.3282492458820343|0.0809917226433754|0|0|0|-1|-1|3
2021-03-10 21:13:33.234 +0000|291173.4520527917|-0.93865966796875|0.3896026611328125|0.11444091796875|291173.4320897917|-0.5821348664123588|-1.656376244452497|-0.3324262561194111|1.037574410438538|-0.3020192086696625|-0.3915596604347229|0.1165834665298462|0.02473679184913635|0.05383240431547165|XArbitraryZVertical|0.3156755188137653|0.6638877631879379|0.07462080765008297|-0.6738202207574621|-0.9417939186096191|0.3263374269008636|0.08079598844051361|0|0|0|-1|-1|3
2021-03-10 21:13:33.254 +0000|291173.4720157917|-0.991943359375|0.4320526123046875|0.1143798828125|291173.4520527917|-0.5606057928231337|-1.657555349354594|-0.3283159069343024|1.042286515235901|-0.2461620271205902|-0.4275457262992859|0.02386748790740967|0.05999696254730225|0.03586757183074951|XArbitraryZVertical|0.3073030061563682|0.6682633021419857|0.06868050354090016|-0.6739970943275978|-0.9430264830589294|0.3224493563175201|0.08202195912599564|0|0|0|-1|-1|3
2021-03-10 21:13:33.274 +0000|291173.4919787917|-1.0341796875|0.468353271484375|0.1397705078125|291173.4720157917|-0.5383020998921315|-1.657679408129451|-0.3223493729469628|1.130553245544434|-0.1830052435398102|-0.4847656786441803|-0.03637659549713135|0.1059184372425079|0.02903902530670166|XArbitraryZVertical|0.2980125256270645|0.6725628213440585|0.0633202391873742|-0.6744170820158684|-0.9449161887168884|0.3167957961559296|0.08230442553758621|0|0|0|-1|-1|3
2021-03-10 21:13:33.294 +0000|291173.5119417917|-1.07012939453125|0.4864044189453125|0.166351318359375|291173.4919787917|-0.5126382621850681|-1.655603538476044|-0.3154549083238625|1.340484976768494|-0.14626744389534|-0.5502631068229675|-0.0779535174369812|0.1500324010848999|0.05385839939117432|XArbitraryZVertical|0.2871760246493807|0.6766039047711705|0.05747998179716171|-0.6755983983635518|-0.9472388029098511|0.3102489709854126|0.08052582293748856|0|0|0|-1|-1|3
2021-03-10 21:13:33.314 +0000|291173.5319037917|-1.088577270507812|0.459869384765625|0.1914825439453125|291173.5119417917|-0.480523481751976|-1.648553238329087|-0.3063932819921907|1.638694763183594|-0.128937229514122|-0.5983620285987854|-0.111968457698822|0.1814714372158051|0.08519519120454788|XArbitraryZVertical|0.273279031192726|0.6799625205998372|0.0509030629171798|-0.6785120128100595|-0.9505469799041748|0.3016218543052673|0.07406091690063477|0|0|0|-1|-1|3
2021-03-10 21:13:33.334 +0000|291173.5518667917|-1.106842041015625|0.4053955078125|0.190032958984375|291173.5319037917|-0.4424462916692133|-1.63960520902179|-0.296783179023429|1.900618076324463|-0.1138930320739746|-0.6277350783348083|-0.1307280659675598|0.1767622828483582|0.1219039037823677|XArbitraryZVertical|0.2570654380592151|0.6832216058824063|0.04263696501913383|-0.6821347330100208|-0.9540193676948547|0.2924455404281616|0.06574880331754684|0|0|0|-1|-1|3
2021-03-10 21:13:33.354 +0000|291173.5718297917|-1.111648559570312|0.4029388427734375|0.164764404296875|291173.5518667917|-0.4012131539222918|-1.629857420522191|-0.286657850967428|1.971497654914856|-0.09779859334230423|-0.6332063674926758|-0.1447426080703735|0.1415835916996002|0.1360851526260376|XArbitraryZVertical|0.2395239106124412|0.6862487611747733|0.03342160419174156|-0.6859839343289974|-0.9575217962265015|0.2827480435371399|0.05661813169717789|0|0|0|-1|-1|3
2021-03-10 21:13:33.374 +0000|291173.5917927917|-1.054595947265625|0.4047088623046875|0.15667724609375|291173.5718297917|-0.3594737057858408|-1.619741167279044|-0.2764343201447629|1.988536596298218|-0.03782319277524948|-0.6078791618347168|-0.1543364524841309|0.1242133975028992|0.1214197799563408|XArbitraryZVertical|0.2217104132257323|0.688751341401012|0.0239323336202274|-0.689850179622588|-0.9608825445175171|0.2729270756244659|0.04706783592700958|0|0|0|-1|-1|3
2021-03-10 21:13:33.394 +0000|291173.6117557917|-0.9720611572265625|0.4062957763671875|0.1480865478515625|291173.5917927917|-0.3177563770146148|-1.608678847709289|-0.2666509927514666|1.973281502723694|0.024916622787714|-0.5380138158798218|-0.1105725169181824|0.1379564702510834|0.1213020086288452|XArbitraryZVertical|0.2039970870419393|0.6904003700651569|0.01420532984912709|-0.6939241272286507|-0.9639666676521301|0.2635022699832916|0.03653496503829956|0|0|0|-1|-1|3
2021-03-10 21:13:33.414 +0000|291173.6317187917|-0.891510009765625|0.4451904296875|0.1447906494140625|291173.6117557917|-0.2775536027654932|-1.597495816341004|-0.2582284849471243|1.903609395027161|0.04341424629092216|-0.422314465045929|-0.02625274658203125|0.1477231979370117|0.1256934404373169|XArbitraryZVertical|0.1872444937986634|0.6912633972491812|0.004333143487147584|-0.6979080043266261|-0.9664992094039917|0.255368173122406|0.02581116929650307|0|0|0|-1|-1|3
2021-03-10 21:13:33.434 +0000|291173.6516817917|-0.816680908203125|0.369293212890625|0.1536102294921875|291173.6317187917|-0.2375743804458664|-1.58646593261942|-0.2522378776382608|1.973006367683411|0.04229172319173813|-0.2443529069423676|0.05660110712051392|0.189484715461731|0.129144549369812|XArbitraryZVertical|0.1714029599246291|0.6915255560252621|-0.006527391730335202|-0.7016912925244344|-0.9682372808456421|0.2495716512203217|0.01517313905060291|0|0|0|-1|-1|3
2021-03-10 21:13:33.454 +0000|291173.671643625|-0.78668212890625|0.308868408203125|0.1332855224609375|291173.6516817917|-0.1984888685717655|-1.576260332394584|-0.2504208791352648|1.818712711334229|0.001255873590707779|0.01692379824817181|0.1353739500045776|0.1532808244228363|0.1576398611068726|XArbitraryZVertical|0.1573335036636467|0.6912980127182192|-0.01878857419004978|-0.7049824709544101|-0.9687938094139099|0.2478117346763611|0.005293547641485929|0|0|0|-1|-1|3
2021-03-10 21:13:33.474 +0000|291173.691606625|-0.77239990234375|0.235015869140625|0.1336517333984375|291173.671643625|-0.1627144033710779|-1.568161888090406|-0.2533292617851722|1.671054363250732|-0.06490812450647354|0.2649842798709869|0.1770186424255371|0.06802096962928772|0.1411307454109192|XArbitraryZVertical|0.1460771299985547|0.6909314693225687|-0.03183383590706462|-0.7072919191796669|-0.9680801033973694|0.2506283521652222|-0.002550353528931737|0|0|0|-1|-1|3
2021-03-10 21:13:33.494 +0000|291173.711569625|-0.812164306640625|0.192962646484375|0.129119873046875|291173.691606625|-0.129950422861072|-1.561849943941505|-0.2609525058891315|1.487570643424988|-0.1341850906610489|0.5234619975090027|0.1934467554092407|-0.002019494771957397|0.1476510167121887|XArbitraryZVertical|0.137532459171065|0.690480362001143|-0.04566836930302201|-0.7086861680367662|-0.9661059975624084|0.2580009400844574|-0.008643385022878647|0|0|0|-1|-1|3
2021-03-10 21:13:33.513 +0000|291173.731532625|-0.8675079345703125|0.193695068359375|0.1464385986328125|291173.711569625|-0.1003834730690998|-1.557363520400851|-0.2731092960673578|1.36095142364502|-0.1877424418926239|0.7236859202384949|0.1614736914634705|-0.07383447885513306|0.1406049728393555|XArbitraryZVertical|0.1316901343819125|0.6900655264738838|-0.06010879766265498|-0.7091221155010422|-0.9628499746322632|0.2697267830371857|-0.0129345552995801|0|0|0|-1|-1|3
2021-03-10 21:13:33.533 +0000|291173.751495625|-0.9245452880859375|0.194915771484375|0.1671905517578125|291173.731532625|-0.07325411722689092|-1.553708352078683|-0.2888761441282879|1.214949488639832|-0.189959779381752|0.8842433094978333|0.1077166795730591|-0.09122580289840698|0.1589725613594055|XArbitraryZVertical|0.1279793701734256|0.6895155653870284|-0.07499559676267803|-0.7089183744484052|-0.9584247469902039|0.2848751246929169|-0.01637913100421429|0|0|0|-1|-1|3
2021-03-10 21:13:33.553 +0000|291173.771458625|-0.9612274169921875|0.2000274658203125|0.1374359130859375|291173.751495625|-0.04880647299378166|-1.550199879618543|-0.3069825192408207|1.058929681777954|-0.1710616648197174|0.9653775691986084|0.03936654329299927|-0.1157669723033905|0.1783236265182495|XArbitraryZVertical|0.1260587364639453|0.6886894153178724|-0.08973232755413568|-0.7083531073936854|-0.953047513961792|0.302183598279953|-0.01963216811418533|0|0|0|-1|-1|3
2021-03-10 21:13:33.573 +0000|291173.791421625|-0.9918060302734375|0.2033538818359375|0.1523590087890625|291173.771458625|-0.02998972546790328|-1.547366500756188|-0.3266642473052794|0.6646706461906433|-0.1287437230348587|1.027415752410889|-0.0001938939094543457|-0.1309745609760284|0.1626613140106201|XArbitraryZVertical|0.1266446072773134|0.6876530767741371|-0.1030295174192919|-0.7074455938056755|-0.9468579888343811|0.3208854794502258|-0.02218877896666527|0|0|0|-1|-1|3
2021-03-10 21:13:33.594 +0000|291173.811384625|-1.001983642578125|0.2555999755859375|0.1632232666015625|291173.791421625|-0.02106422114475088|-1.546274140854062|-0.34699013875318|0.1141673400998116|-0.05424338951706886|1.021911859512329|-0.04897212982177734|-0.1356011629104614|0.1740136742591858|XArbitraryZVertical|0.1307904975413824|0.6865600225381054|-0.1131277795944177|-0.7062090085152734|-0.9401176571846008|0.3400688767433167|-0.02305836230516434|0|0|0|-1|-1|3
2021-03-10 21:13:33.613 +0000|291173.831346625|-1.015029907226562|0.33636474609375|0.1717376708984375|291173.811384625|-0.02386387386997218|-1.548141817188136|-0.3669120806587484|-0.3983500599861145|-0.0423654243350029|0.9592747092247009|-0.06463325023651123|-0.1164098680019379|0.1773491501808167|XArbitraryZVertical|0.13864103384017|0.6857158732870177|-0.1191292486721735|-0.7045429548057351|-0.9332001805305481|0.3587347567081451|-0.02114480920135975|0|0|0|-1|-1|3
2021-03-10 21:13:33.633 +0000|291173.851309625|-1.053512573242188|0.43792724609375|0.1341552734375|291173.831346625|-0.03674116022639725|-1.553812309964042|-0.3857122487182574|-0.814229428768158|-0.06598388403654099|0.9061626195907593|-0.08423829078674316|-0.06477195024490356|0.1975592374801636|XArbitraryZVertical|0.14928872862838|0.6854525124197665|-0.1214914371398429|-0.7022162111753656|-0.9263971447944641|0.3762191534042358|-0.01573545671999454|0|0|0|-1|-1|3
2021-03-10 21:13:33.653 +0000|291173.871272625|-1.097137451171875|0.4054107666015625|0.1854248046875|291173.851309625|-0.05724604850980621|-1.563406416952835|-0.4037566586233902|-1.140663146972656|-0.09583078324794769|0.8896388411521912|-0.1235395669937134|0.02159887552261353|0.1473749279975891|XArbitraryZVertical|0.1619989076060466|0.6858268985066852|-0.1213002392075443|-0.6990595422170549|-0.9195666909217834|0.3928757011890411|-0.006795638240873814|0|0|0|-1|-1|3
2021-03-10 21:13:33.673 +0000|291173.891235625|-1.131423950195312|0.3692626953125|0.2263641357421875|291173.871272625|-0.08758375724158189|-1.577245714145561|-0.4217834829269398|-1.689500451087952|-0.07208236306905746|0.9164698719978333|-0.1775787472724915|0.01454669237136841|0.159856915473938|XArbitraryZVertical|0.1777677719165051|0.6865425561293826|-0.118182193516389|-0.6950474462051026|-0.9123413562774658|0.4093882739543915|0.005884124431759119|0|0|0|-1|-1|3
2021-03-10 21:13:33.693 +0000|291173.911198625|-1.1505126953125|0.4320068359375|0.18719482421875|291173.891235625|-0.1317888407458168|-1.597275234233975|-0.4400189970679663|-2.248516082763672|-0.08776672929525375|0.9715998768806458|-0.2148514986038208|-0.06841275095939636|0.1934077739715576|XArbitraryZVertical|0.197967133718555|0.6875943022272185|-0.1111755887402889|-0.6896832942912547|-0.9044263958930969|0.425956666469574|0.02395382151007652|0|0|0|-1|-1|3
2021-03-10 21:13:33.713 +0000|291173.931161625|-1.12396240234375|0.40936279296875|0.2170867919921875|291173.911198625|-0.1880471059288408|-1.623914086694501|-0.4584804604995842|-2.701091289520264|-0.1353794038295746|1.088188886642456|-0.25401371717453|-0.01765921711921692|0.1580026149749756|XArbitraryZVertical|0.2220110881393292|0.688851160517774|-0.1012529047862194|-0.682600243959963|-0.89546138048172|0.4425860047340393|0.04760969057679176|0|0|0|-1|-1|3
2021-03-10 21:13:33.733 +0000|291173.951124625|-1.031753540039062|0.3424835205078125|0.2563323974609375|291173.931161625|-0.255685220193991|-1.656877978124983|-0.4785219438266842|-3.246966361999512|-0.08708837628364563|1.366751194000244|-0.2511083483695984|-0.03326725959777832|0.1367708444595337|XArbitraryZVertical|0.2501722259829215|0.6896180283287606|-0.08946890509819552|-0.6736737103793786|-0.8843898177146912|0.4604676365852356|0.07631833851337433|0|0|0|-1|-1|3
2021-03-10 21:13:33.753 +0000|291173.971086625|-0.90350341796875|0.41278076171875|0.308319091796875|291173.951124625|-0.3415400375830528|-1.698290213624513|-0.5011034957937296|-4.062019824981689|-0.03916441276669502|1.689202785491943|-0.1925044059753418|-0.1255200207233429|0.1273297071456909|XArbitraryZVertical|0.2850059693671823|0.6888611631222339|-0.07466198046054151|-0.662319772828932|-0.8699344992637634|0.480393648147583|0.1115162074565887|0|0|0|-1|-1|3
2021-03-10 21:13:33.773 +0000|291173.991049625|-0.869873046875|0.516754150390625|0.3231964111328125|291173.971086625|-0.4505427930789995|-1.753791432216919|-0.5241366821887631|-4.896829605102539|-0.2094050198793411|2.044538021087646|-0.08151459693908691|-0.1135028004646301|0.1502081304788589|XArbitraryZVertical|0.3273598818417056|0.6867377527757081|-0.05615922813820212|-0.6465857113793719|-0.8513010740280151|0.5004657506942749|0.1575464606285095|0|0|0|-1|-1|3
2021-03-10 21:13:33.793 +0000|291174.011012625|-0.8824615478515625|0.6960296630859375|0.3471221923828125|291173.991049625|-0.5782675063554559|-1.826401379270997|-0.5444074756428792|-5.313093185424805|-0.5298184156417847|2.306054353713989|-0.03905755281448364|-0.02236682176589966|0.1059092581272125|XArbitraryZVertical|0.374862200442234|0.683826323880997|-0.03610167866730715|-0.6249453249897763|-0.8276418447494507|0.5179113149642944|0.2162802219390869|0|0|0|-1|-1|3
2021-03-10 21:13:33.813 +0000|291174.030975625|-0.8378143310546875|0.756866455078125|0.4712066650390625|291174.011012625|-0.7129048027052554|-1.909837983631373|-0.5589351146694271|-5.183502674102783|-0.7032438516616821|2.431487560272217|-0.0820346474647522|0.1235401630401611|0.04539117217063904|XArbitraryZVertical|0.4231184263708727|0.6796736600430865|-0.01724884822824466|-0.5989298269382177|-0.7995570302009583|0.5302836894989014|0.2819709777832031|0|0|0|-1|-1|3
2021-03-10 21:13:33.833 +0000|291174.050938625|-0.590301513671875|0.84228515625|0.57421875|291174.030975625|-0.8432723128928411|-1.992421761721311|-0.5666048442778652|-4.71498441696167|-0.5689504742622375|2.353301048278809|-0.09876781702041626|0.210162341594696|0.1086735427379608|XArbitraryZVertical|0.4684555042322276|0.6731974700424666|-0.0005332752628555426|-0.5721488542295742|-0.7698386907577515|0.5367705821990967|0.3452907800674438|0|0|0|-1|-1|3
2021-03-10 21:13:33.853 +0000|291174.070901625|-0.4307861328125|0.9031219482421875|0.6956329345703125|291174.050938625|-0.9614634198694612|-2.067483649980224|-0.567722989622816|-4.194513320922852|-0.6304258704185486|2.187953472137451|0.08631128072738647|0.3149474263191223|0.1323092877864838|XArbitraryZVertical|0.5084695518177519|0.6650868398458328|0.01375146311550621|-0.5467441132946979|-0.7412490248680115|0.5377136468887329|0.4017635881900787|0|0|0|-1|-1|3
2021-03-10 21:13:33.873 +0000|291174.090864625|-0.3766632080078125|0.92449951171875|0.82574462890625|291174.070901625|-1.062388847608759|-2.136869484563643|-0.5650150408137068|-3.256780862808228|-0.8726543784141541|1.907165884971619|0.2564470767974854|0.347841739654541|0.2154747247695923|XArbitraryZVertical|0.5421055744027494|0.6577272127306507|0.02358433838448584|-0.5224560199126722|-0.7128374576568604|0.535428524017334|0.4529670774936676|0|0|0|-1|-1|3
2021-03-10 21:13:33.893 +0000|291174.110826625|-0.4854583740234375|0.926788330078125|0.971832275390625|291174.090864625|-1.139111462103065|-2.198063670407078|-0.5641990052684184|-2.299273014068604|-1.131292700767517|1.759291052818298|0.2996794581413269|0.396108090877533|0.2710133194923401|XArbitraryZVertical|0.5679050349643612|0.6522797178445678|0.0265618428026725|-0.501307966038801|-0.6841552257537842|0.5347391366958618|0.4959699213504791|0|0|0|-1|-1|3
2021-03-10 21:13:33.913 +0000|291174.130789625|-0.6361083984375|1.064376831054688|1.174789428710938|291174.110826625|-1.202254941589397|-2.2576665067395|-0.5658837652451493|-1.949678659439087|-1.41639256477356|1.657894134521484|0.1995739340782166|0.3950817584991455|0.3916248083114624|XArbitraryZVertical|0.5893789446113552|0.6482805376859876|0.02416743517144361|-0.4814360826749307|-0.652698814868927|0.5361620187759399|0.5352703928947449|0|0|0|-1|-1|3
2021-03-10 21:13:33.933 +0000|291174.150752625|-0.869171142578125|1.1544189453125|1.114898681640625|291174.130789625|-1.261046782014639|-2.319035082577523|-0.566490470552221|-1.669923067092896|-1.587794303894043|1.635138034820557|0.02152562141418457|0.4746480584144592|0.5895485877990723|XArbitraryZVertical|0.609115573523605|0.6449915245166372|0.01939502508159541|-0.4610728515859971|-0.6184037923812866|0.5366740822792053|0.5740717053413391|0|0|0|-1|-1|3
2021-03-10 21:13:33.953 +0000|291174.170715625|-1.198196411132812|0.4454498291015625|0.5635223388671875|291174.150752625|-1.313727516681052|-2.381917279417478|-0.571115984784613|-1.20409631729126|-1.958640933036804|1.902905583381653|-0.2196970582008362|0.6263598203659058|0.5783173441886902|XArbitraryZVertical|0.6268573138451066|0.6419077788578168|0.01006105934894647|-0.4414783025397006|-0.5793904066085815|0.5405712723731995|0.6099913716316223|0|0|0|-1|-1|3
2021-03-10 21:13:33.973 +0000|291174.190678625|-1.084884643554688|0.433319091796875|-0.078033447265625|291174.170715625|-1.373988599191794|-2.461235469568475|-0.5846160133612386|-1.245814085006714|-2.678753137588501|2.790626287460327|-0.6038816571235657|0.1526802182197571|0.08550006151199341|XArbitraryZVertical|0.6468482668955269|0.6369553542070028|-0.007394171172098299|-0.4193098453322816|-0.5245974659919739|0.5518792271614075|0.648249626159668|0|0|0|-1|-1|3
2021-03-10 21:13:33.993 +0000|291174.210641625|-0.7029266357421875|0.826416015625|-0.34478759765625|291174.190678625|-1.457628212791326|-2.570685092016577|-0.5941844027226176|-1.87244176864624|-3.519582509994507|3.21821117401123|-0.6935824155807495|-0.2902255654335022|-0.6705405116081238|XArbitraryZVertical|0.6725333521297583|0.6295218836332018|-0.03021657979828372|-0.387928074029551|-0.4477750957012177|0.5598331093788147|0.6971977949142456|0|0|0|-1|-1|3
2021-03-10 21:13:34.013 +0000|291174.230604625|-0.2247314453125|0.9648590087890625|0.238922119140625|291174.210641625|-1.542658806284933|-2.693331280520458|-0.5955848229124413|-1.344855546951294|-3.980350971221924|2.988404512405396|-0.4617186784744263|0.1291619539260864|-1.07319712638855|XArbitraryZVertical|0.6964961028554406|0.6228241407360801|-0.05699392103392525|-0.3517597564703097|-0.3587768375873566|0.560992956161499|0.7460334897041321|0|0|0|-1|-1|3
2021-03-10 21:13:34.033 +0000|291174.250567625|-0.0178680419921875|0.680755615234375|1.008529663085938|291174.230604625|-1.622290214927577|-2.821784034570357|-0.5983654218768809|-0.9405929446220398|-4.32013463973999|3.183703184127808|-0.02119717001914978|0.4745492339134216|-0.7717741727828979|XArbitraryZVertical|0.7163463371198284|0.6156536053234245|-0.09006738781106682|-0.3157634768538373|-0.2597629725933075|0.5632926225662231|0.7843628525733948|0|0|0|-1|-1|3
2021-03-10 21:13:34.052 +0000|291174.270529625|0.313751220703125|0.6504669189453125|1.2620849609375|291174.250567625|-1.703984344461534|-2.955081170397063|-0.5942357864719361|-1.102010369300842|-4.423178672790527|3.148780822753906|0.06254968047142029|0.1301266551017761|0.03877490758895874|XArbitraryZVertical|0.7344433525576394|0.6063796860473801|-0.1249328265923756|-0.278007998060847|-0.1536446362733841|0.5598757266998291|0.8142067193984985|0|0|0|-1|-1|3
2021-03-10 21:13:34.072 +0000|291174.290492625|0.33477783203125|0.4298248291015625|1.122299194335938|291174.270529625|-1.770428370344716|-3.078221041913545|-0.5864656231354353|-0.3436704277992249|-4.20661735534668|2.250523567199707|0.2837650775909424|0.1837314963340759|0.4408189058303833|XArbitraryZVertical|0.746435528290094|0.59870620275012|-0.1594360681748959|-0.2428273821930771|-0.05274702981114388|0.5534207224845886|0.8312302231788635|0|0|0|-1|-1|3
2021-03-10 21:13:34.092 +0000|291174.310455625|0.0941925048828125|0.559600830078125|0.91845703125|291174.290492625|-1.815535776149074|3.09605560693833|-0.5823083725159737|-0.3077602982521057|-4.173084259033203|1.567145347595215|0.3570919036865234|-0.1161766052246094|0.3206844925880432|XArbitraryZVertical|0.7507436596883442|0.5945996422333133|-0.1938281608675856|-0.2127577289784409|0.03801918774843216|0.5499533414840698|0.8343295454978943|0|0|0|-1|-1|3
2021-03-10 21:13:34.112 +0000|291174.330418625|0.0809173583984375|0.4332275390625|0.809814453125|291174.310455625|-1.84550508789456|3.000106046302464|-0.5726405057950207|-0.3883192837238312|-3.801403284072876|0.974823534488678|0.00826592743396759|-0.02953928709030151|0.140215277671814|XArbitraryZVertical|0.7508459612755333|0.5935215191335037|-0.2241127425152774|-0.1836739842529627|0.1185193732380867|0.5418531894683838|0.8320748805999756|0|0|0|-1|-1|3
2021-03-10 21:13:34.133 +0000|291174.350381625|0.00140380859375|0.310272216796875|0.728118896484375|291174.330418625|-1.858140029236845|2.91860075378586|-0.5643286328653404|-0.29046630859375|-3.7144775390625|0.2299012243747711|-0.0955502986907959|-0.04093694686889648|-0.002066612243652344|XArbitraryZVertical|0.7460642714706186|0.5961557400683531|-0.2512363142405151|-0.1576919936134542|0.1868589073419571|0.534848690032959|0.8240271210670471|0|0|0|-1|-1|3
2021-03-10 21:13:34.152 +0000|291174.370344625|-0.0483551025390625|0.2476654052734375|0.561676025390625|291174.350381625|-1.856260222777835|2.849353950915445|-0.5612949677449586|0.006348459050059319|-3.263505697250366|-0.2429589927196503|-0.2523922324180603|-0.2039444446563721|-0.05696523189544678|XArbitraryZVertical|0.7368155241017247|0.6020294577711527|-0.276225538475563|-0.135509562052324|0.243893027305603|0.5322829484939575|0.8106731772422791|0|0|0|-1|-1|3
2021-03-10 21:13:34.172 +0000|291174.390307625|-0.0748748779296875|0.1414642333984375|0.435455322265625|291174.370344625|-1.848720406065853|2.794677912985683|-0.5696696452948706|0.5926497578620911|-2.596910238265991|-0.5721486210823059|-0.3203476071357727|-0.2473159432411194|-0.1981174945831299|XArbitraryZVertical|0.7253652600797407|0.6081134401184691|-0.2989342189312818|-0.1211679622196708|0.2863052487373352|0.5393539071083069|0.7919134497642517|0|0|0|-1|-1|3
2021-03-10 21:13:34.192 +0000|291174.410269625|-0.0863037109375|0.0733489990234375|0.34857177734375|291174.390307625|-1.840618574284242|2.753872395372047|-0.5903965081966526|1.008568406105042|-1.900894522666931|-0.823595404624939|-0.3655456006526947|-0.4049112200737|-0.3260958194732666|XArbitraryZVertical|0.713164070519673|0.6131283412458364|-0.3195550723755498|-0.115565209920358|0.3140777945518494|0.5566904544830322|0.7690587043762207|0|0|0|-1|-1|3
2021-03-10 21:13:34.212 +0000|291174.430232625|-0.0858306884765625|-0.030487060546875|0.2784576416015625|291174.410269625|-1.830092972541378|2.728946797206125|-0.6176462089424999|1.131044507026672|-1.175414085388184|-1.066807389259338|-0.4049896597862244|-0.5016031265258789|-0.3767128586769104|XArbitraryZVertical|0.7011135303241509|0.6179379870844606|-0.3360869408476199|-0.1167828535619885|0.3269410729408264|0.5791178345680237|0.7468150854110718|0|0|0|-1|-1|3
2021-03-10 21:13:34.232 +0000|291174.450195625|-0.0907745361328125|-0.0067138671875|0.2388916015625|291174.430232625|-1.814153960760105|2.722674040329359|-0.6466108276650098|0.956296443939209|-0.4020342528820038|-1.306794404983521|-0.4131892621517181|-0.6090308427810669|-0.4360399842262268|XArbitraryZVertical|0.689874693273305|0.6234025609351205|-0.3467459245065028|-0.123326943995408|0.3246577978134155|0.6024848818778992|0.7291156649589539|0|0|0|-1|-1|3
2021-03-10 21:13:34.252 +0000|291174.470158625|-0.089935302734375|0.00787353515625|0.245758056640625|291174.470158625|-1.752713073148879|2.774211557254044|-0.6991115676830847|0.5906103253364563|1.024467706680298|-1.909130334854126|-0.3618603646755219|-0.6391128301620483|-0.4744251370429993|XArbitraryZVertical|0.6697629685444|0.639208268324385|-0.347354354936469|-0.1489141535937527|0.2749158442020416|0.6435379385948181|0.7143393158912659|0|0|0|-1|-1|3
2021-03-10 21:13:34.272 +0000|291174.490121625|-0.0903472900390625|0.0523529052734375|0.274200439453125||||||||||||||||||||||||3
2021-03-10 21:13:34.292 +0000|291174.510084625|-0.1107330322265625|0.113372802734375|0.3271331787109375|291174.490121625|-1.707273311864895|2.830645361372246|-0.7226615943265322|0.4929333925247192|1.638258814811707|-2.132497310638428|-0.3168875575065613|-0.628912627696991|-0.4486370086669922|XArbitraryZVertical|0.6605261518091629|0.6486483720155196|-0.3387161343079304|-0.1680236256421499|0.2294852286577225|0.661383330821991|0.7140790224075317|0|0|0|-1|-1|3
2021-03-10 21:13:34.312 +0000|291174.530047625|-0.1489715576171875|0.200836181640625|0.3952789306640625|291174.510084625|-1.652361759584999|2.905307553956869|-0.7441590068272936|0.4976416230201721|2.146554470062256|-2.385605335235596|-0.2768568098545074|-0.5793612599372864|-0.4047465920448303|XArbitraryZVertical|0.6512161182288063|0.6584271154590383|-0.3254019734127026|-0.1910628395579123|0.1722121089696884|0.6773533821105957|0.7152174115180969|0|0|0|-1|-1|3
2021-03-10 21:13:34.332 +0000|291174.550010625|-0.219512939453125|0.2650146484375|0.4812469482421875|291174.530047625|-1.586843975883775|2.997254117214953|-0.7646658425609838|0.6111865639686584|2.534268140792847|-2.684443950653076|-0.2443288713693619|-0.51726233959198|-0.3384385108947754|XArbitraryZVertical|0.6407035375411106|0.6682470419648883|-0.308688892525206|-0.2183030134817225|0.1037954464554787|0.6922959089279175|0.714110255241394|0|0|0|-1|-1|3
2021-03-10 21:13:34.352 +0000|291174.569972625|-0.267578125|0.389434814453125|0.581878662109375|291174.550010625|-1.509836293609766|3.105072031002403|-0.7837533876946994|0.8411856293678284|2.84535026550293|-3.0005784034729|-0.233364924788475|-0.4560191035270691|-0.244234561920166|XArbitraryZVertical|0.6280998499863512|0.677782389851605|-0.2896824066439018|-0.2493708010401908|0.02586067654192448|0.7059428095817566|0.7077967524528503|0|0|0|-1|-1|3
2021-03-10 21:13:34.372 +0000|291174.589935625|-0.306243896484375|0.5131683349609375|0.630645751953125|291174.569972625|-1.418749471987925|-3.054253739041595|-0.8031256714663744|1.313793063163757|3.041236162185669|-3.337480306625366|-0.1985178291797638|-0.3597585558891296|-0.1279560923576355|XArbitraryZVertical|0.611920025699127|0.6866301539254231|-0.2701143336009757|-0.2848353966709311|-0.06057640537619591|0.7195302844047546|0.6918141841888428|0|0|0|-1|-1|3
2021-03-10 21:13:34.392 +0000|291174.609898625|-0.3688812255859375|0.642120361328125|0.6360931396484375|291174.589935625|-1.310003508335974|-2.913204438289598|-0.8257687702044165|2.137744903564453|3.170892000198364|-3.675893545150757|-0.1429449468851089|-0.2530287504196167|-0.03393691778182983|XArbitraryZVertical|0.5905961500370879|0.6938223874555034|-0.2525612410232655|-0.3256065359006993|-0.1535028219223022|0.735069215297699|0.6603866219520569|0|0|0|-1|-1|3
2021-03-10 21:13:34.412 +0000|291174.629861625|-0.4299468994140625|0.648956298828125|0.6273956298828125|291174.609898625|-1.173629238558032|-2.747648364529193|-0.8534922246753791|3.319876670837402|3.276026725769043|-4.17729377746582|-0.09973564743995667|-0.1421304941177368|0.01384615898132324|XArbitraryZVertical|0.5617582005936523|0.6985194878246566|-0.239358965834322|-0.3731025411225069|-0.2523150742053986|0.753580629825592|0.6070035099983215|0|0|0|-1|-1|3
2021-03-10 21:13:34.432 +0000|291174.649824625|-0.5348663330078125|0.680511474609375|0.46484375|291174.629861625|-0.9934043149119802|-2.542790658579563|-0.8801882593363192|4.614016532897949|3.438114166259766|-4.825929164886475|-0.0551643967628479|-0.1166381239891052|0.1201574206352234|XArbitraryZVertical|0.5224127357847821|0.7001229926476431|-0.2307228263337894|-0.4285788543508128|-0.3590507209300995|0.7708588242530823|0.5261745452880859|0|0|0|-1|-1|3
2021-03-10 21:13:34.452 +0000|291174.66978825|-0.7896728515625|0.78533935546875|0.1022186279296875|291174.649824625|-0.7538997443119789|-2.288326769824998|-0.891723936109128|6.412968635559082|3.332192897796631|-5.739937305450439|-0.04014229774475098|-0.1174500584602356|0.07060813903808594|XArbitraryZVertical|0.4682537886347778|0.6980151194186658|-0.227592703239787|-0.4916451011312757|-0.4732091426849365|0.7781556844711304|0.4129734337329865|0|0|0|-1|-1|3
2021-03-10 21:13:34.472 +0000|291174.68975125|-1.167633056640625|0.7527008056640625|0.0069580078125|291174.66978825|-0.4560878956380363|-1.996697328638882|-0.8644129945199766|8.185914993286133|2.689798355102539|-6.96651029586792|-0.1138235926628113|-0.007006466388702393|-0.03220272064208984|XArbitraryZVertical|0.3935836521258806|0.6922241431708961|-0.2317812493557238|-0.5587442737662774|-0.5911019444465637|0.7607143521308899|0.268164724111557|0|0|0|-1|-1|3
2021-03-10 21:13:34.492 +0000|291174.70971325|-1.565093994140625|0.3787384033203125|0.308349609375|291174.68975125|-0.1365073133789875|-1.71952844335096|-0.7669851723907216|10.40954208374023|1.678673505783081|-8.427119255065918|-0.3535404801368713|0.08845716714859009|-0.1376841068267822|XArbitraryZVertical|0.2915367737832407|0.6843632995841763|-0.2415621005720948|-0.6231379050927586|-0.7120569348335266|0.6939677000045776|0.1066936329007149|0|0|0|-1|-1|3
2021-03-10 21:13:34.512 +0000|291174.72967625|-1.8592529296875|-0.009185791015625|0.3963623046875|291174.70971325|0.160421689709559|-1.50957868674505|-0.5962627941191075|11.51944541931152|0.3261222541332245|-9.412937164306641|-0.633796215057373|-0.002578914165496826|0.2952054738998413|XArbitraryZVertical|0.1607982622813873|0.669949829717215|-0.2563904635037858|-0.677919619725463|-0.8258900046348572|0.5615540742874146|-0.05062228813767433|0|0|0|-1|-1|3
2021-03-10 21:13:34.532 +0000|291174.74963925|-2.112716674804688|1.277938842773438|0.058349609375|291174.72967625|0.3945815428155141|-1.414624968551898|-0.3822031727238632|11.3587589263916|-1.972144722938538|-9.149419784545898|-0.8851739168167114|-0.4263255596160889|0.5196350812911987|XArbitraryZVertical|0.01652566556515409|0.6538880808984561|-0.2673074456972248|-0.7076045042957678|-0.9165534377098083|0.3729655742645264|-0.1443145573139191|0|0|0|-1|-1|3
2021-03-10 21:13:34.551 +0000|291174.76960225|-1.722503662109375|1.7520751953125|0.402313232421875|291174.74963925|0.6053707620994829|-1.418005899956499|-0.1819169271043236|11.97656059265137|-3.871050119400024|-7.215799808502197|-1.09996509552002|0.6045767664909363|0.286739706993103|XArbitraryZVertical|-0.1274646799623378|0.6394608342269837|-0.2817651720050227|-0.7038827695867096|-0.972041130065918|0.1809152066707611|-0.1496851891279221|0|0|0|-1|-1|3
2021-03-10 21:13:34.572 +0000|291174.78956525|-1.416427612304688|-0.2867889404296875|0.823089599609375|291174.76960225|0.839508059505496|-1.465116364797611|-0.03528482978639096|12.65612697601318|-2.872133493423462|-4.242874622344971|-0.8608273863792419|2.005432844161987|0.3004097938537598|XArbitraryZVertical|-0.2605295824928978|0.615967110154235|-0.3137158563919554|-0.6740113484525487|-0.9938021898269653|0.03527750819921494|-0.1054177135229111|0|0|0|-1|-1|3
2021-03-10 21:13:34.591 +0000|291174.80952825|-1.26470947265625|-0.299285888671875|0.8358154296875|291174.78956525|1.055149237967636|-1.513342336182846|0.03918430876231689|8.787276268005371|-2.209331750869751|-1.52902364730835|-0.4930474758148193|0.1395924389362335|0.8743491768836975|XArbitraryZVertical|-0.3578552527438342|0.5858758092410972|-0.3543725736649183|-0.6349088289961159|-0.9975836277008057|-0.03917428106069565|-0.05737830698490143|0|0|0|-1|-1|3
2021-03-10 21:13:34.612 +0000|291174.82949125|-1.340301513671875|-0.3404388427734375|0.573883056640625|291174.80952825|1.189430162614734|-1.568364321472137|0.05383811646632409|5.092069625854492|-2.582489967346191|0.3293409049510956|-0.260729193687439|-0.342031329870224|0.838198184967041|XArbitraryZVertical|-0.4113310787327793|0.5741014753830875|-0.3807649649164276|-0.5968520167900576|-0.998548150062561|-0.05381211265921593|-0.002428479259833694|0|0|0|-1|-1|3
2021-03-10 21:13:34.631 +0000|291174.84945325|-1.11822509765625|-0.254302978515625|0.414764404296875|291174.82949125|1.268457095908357|-1.6238209752465|0.03871957396781172|3.003942966461182|-2.590394020080566|0.8917055726051331|-0.3806787133216858|-0.2809464335441589|0.5429567098617554|XArbitraryZVertical|-0.4406105082864294|0.5764914717650296|-0.3963545164208241|-0.5625148375141558|-0.9978459477424622|-0.03870990127325058|0.05296007543802261|0|0|0|-1|-1|3
2021-03-10 21:13:34.652 +0000|291174.86941625|-1.100433349609375|-0.1439361572265625|0.13946533203125|291174.84945325|1.311064643316931|-1.677521581734474|0.01405024861478426|1.52152943611145|-2.651572704315186|1.168640494346619|-0.1396379470825195|-0.2509953379631042|0.361383318901062|XArbitraryZVertical|-0.4571269708427266|0.5867632076002094|-0.4032827530398038|-0.5330168431459378|-0.9942122101783752|-0.01404978614300489|0.1065122559666634|0|0|0|-1|-1|3
2021-03-10 21:13:34.672 +0000|291174.88937925|-1.091949462890625|-0.0012969970703125|-0.0496063232421875|291174.86941625|1.326134679757616|-1.729278184853903|-0.01158357552996255|0.3750500082969666|-2.530223846435547|1.181610226631165|-0.1244146227836609|-0.170869767665863|0.05581437051296234|XArbitraryZVertical|-0.4653684320821154|0.6019439870190189|-0.4028974037816577|-0.5086937467800784|-0.9874017238616943|0.01158331613987684|0.1578086763620377|0|0|0|-1|-1|3
2021-03-10 21:13:34.691 +0000|291174.90934225|-1.005950927734375|0.0525054931640625|-0.1786651611328125|291174.88937925|1.322812481886692|-1.778327455597096|-0.03463910016598556|-0.1598483771085739|-2.355583429336548|1.140366435050964|-0.1266738772392273|-0.06502765417098999|-0.2181737571954727|XArbitraryZVertical|-0.4682927150404012|0.6194049168671631|-0.3975557341084816|-0.4888649392119055|-0.9779555797576904|0.03463217243552208|0.2059210389852524|0|0|0|-1|-1|3
2021-03-10 21:13:34.711 +0000|291174.92930525|-1.017501831054688|0.115814208984375|-0.33807373046875|291174.90934225|1.314485108610398|-1.824601786756797|-0.05524298171470131|-0.1298799067735672|-2.271750450134277|1.037066102027893|-0.0525708794593811|-0.02510926127433777|-0.4044690132141113|XArbitraryZVertical|-0.469633968523236|0.6362366578480763|-0.3909990965294908|-0.4709210350420055|-0.9664873480796814|0.05521488934755325|0.250706285238266|0|0|0|-1|-1|3
2021-03-10 21:13:34.731 +0000|291174.94926825|-1.116714477539062|0.176177978515625|-0.50762939453125|291174.92930525|1.308311110833956|-1.869812363069992|-0.07366171442399456|0.0288810171186924|-2.229602098464966|0.8890439867973328|-0.05834764242172241|0.03744311630725861|-0.5750617384910583|XArbitraryZVertical|-0.4718699045432431|0.6513289449001923|-0.3846425651587875|-0.4529453467810288|-0.9530353546142578|0.07359511405229568|0.293781191110611|0|0|0|-1|-1|3
2021-03-10 21:13:34.751 +0000|291174.96923125|-1.222061157226562|0.2789764404296875|-0.6374359130859375|291174.94926825|1.304617989676964|-1.912940895232135|-0.08949222370790402|0.1445072740316391|-2.024772644042969|0.7577428817749023|-0.1433364748954773|0.05290018767118454|-0.8012369871139526|XArbitraryZVertical|-0.475050038487687|0.6643870953380487|-0.3785903320866285|-0.4354154427460936|-0.9382675290107727|0.08937281370162964|0.3341655135154724|0|0|0|-1|-1|3
2021-03-10 21:13:34.771 +0000|291174.98919325|-1.3697509765625|0.2697601318359375|-0.6428680419921875|291174.96923125|1.30447446721983|-1.950520951633735|-0.1046705609007186|0.389047771692276|-1.692172527313232|0.7074962258338928|-0.2699045538902283|0.1632664799690247|-0.986143946647644|XArbitraryZVertical|-0.4784669020978458|0.6748240284383922|-0.3744292265180081|-0.4189089546601518|-0.9236836433410645|0.1044795364141464|0.3686361014842987|0|0|0|-1|-1|3
2021-03-10 21:13:34.791 +0000|291175.00915625|-1.444900512695312|0.26409912109375|-0.553924560546875|291174.98919325|1.306412248227879|-1.978731220956454|-0.1209946531262144|0.3826429843902588|-1.138742923736572|0.7456048727035522|-0.4266290664672852|0.1532871872186661|-1.044631958007812|XArbitraryZVertical|-0.4805717845991595|0.6826110403038816|-0.3732942451612137|-0.40465328011355|-0.9112309813499451|0.1206996515393257|0.3938141465187073|0|0|0|-1|-1|3
2021-03-10 21:13:34.811 +0000|291175.02911925|-1.474136352539062|0.3346405029296875|-0.33392333984375|291175.00915625|1.306654087646424|-1.995777144165621|-0.1381674197643183|0.512644350528717|-0.5840877294540405|0.9000222682952881|-0.5190680623054504|0.1380133628845215|-0.9946015477180481|XArbitraryZVertical|-0.4798466677130238|0.6884287799987031|-0.3747673330004971|-0.3941602912506512|-0.9023643136024475|0.1377282291650772|0.408374011516571|0|0|0|-1|-1|3
2021-03-10 21:13:34.831 +0000|291175.04908225|-1.526641845703125|0.089599609375|-0.12933349609375|291175.02911925|1.316698779121295|-1.999093431486153|-0.1611180155619517|1.329794526100159|0.01681549847126007|0.7894163131713867|-0.6066849231719971|0.2086120247840881|-0.7843482494354248|XArbitraryZVertical|-0.4785866161491508|0.6898742718312019|-0.3832709821905479|-0.3848788545216423|-0.8978927731513977|0.1604218482971191|0.4099433124065399|0|0|0|-1|-1|3
2021-03-10 21:13:34.851 +0000|291175.06904525|-1.474639892578125|-0.2282562255859375|0.0916748046875|291175.04908225|1.341797576688032|-1.990118422809636|-0.1896460123512533|2.121145963668823|0.4791508615016937|0.7654354572296143|-0.6101363897323608|-0.02484546601772308|-0.5855412483215332|XArbitraryZVertical|-0.4787489678828815|0.6860905899683702|-0.3991655347714749|-0.3751612983109991|-0.8969894647598267|0.1885112673044205|0.3998417556285858|0|0|0|-1|-1|3
2021-03-10 21:13:34.871 +0000|291175.08900825|-1.33062744140625|-0.66748046875|0.433319091796875|291175.06904525|1.384141066279506|-1.965201841927739|-0.2220352643458763|3.10706639289856|1.15161919593811|0.4791236519813538|-0.5995913743972778|-0.3613896071910858|-0.3325442969799042|XArbitraryZVertical|-0.4802924081053512|0.6758198082375876|-0.4228597120738924|-0.3657548548696278|-0.9005613923072815|0.220215380191803|0.3748264312744141|0|0|0|-1|-1|3
2021-03-10 21:13:34.891 +0000|291175.10897125|-1.041290283203125|-0.8820343017578125|0.817474365234375|291175.08900825|1.45038178664709|-1.923349282816765|-0.2547834132923504|3.910304546356201|1.436832427978516|0.1100038588047028|-0.4839683771133423|-0.8322360515594482|-0.00643494725227356|XArbitraryZVertical|-0.4851810508863009|0.6570185350792968|-0.4543967363262593|-0.3555974988606345|-0.9081976413726807|0.2520358264446259|0.3341480195522308|0|0|0|-1|-1|3
2021-03-10 21:13:34.911 +0000|291175.12893325|-0.815155029296875|-0.60247802734375|0.739013671875|291175.10897125|1.525782305121523|-1.873506734016207|-0.2761496547734099|3.535756587982178|1.484198689460754|-0.5155357122421265|-0.1697523593902588|-1.198403835296631|0.4505823850631714|XArbitraryZVertical|-0.4924714976283194|0.6331498781421667|-0.4856180187962512|-0.3475173350286203|-0.9183672070503235|0.2726532220840454|0.286813884973526|0|0|0|-1|-1|3
2021-03-10 21:13:34.931 +0000|291175.14889625|-0.753265380859375|-0.2825469970703125|0.2840118408203125|291175.12893325|1.591481743789758|-1.830205194250392|-0.2750127391851703|2.402388572692871|1.048663020133972|-1.368350982666016|0.0892632007598877|-0.8370803594589233|0.5695972442626953|XArbitraryZVertical|-0.5024104468909962|0.6091131328826178|-0.5074811154041896|-0.3450043971652849|-0.9302210211753845|0.2715592086315155|0.2468701303005219|0|0|0|-1|-1|3
2021-03-10 21:13:34.951 +0000|291175.16885925|-0.849578857421875|-0.0640411376953125|0.06390380859375|291175.14889625|1.63212095421291|-1.802163902084986|-0.2516480713081604|1.052831292152405|0.6866053938865662|-1.744876861572266|0.2005546092987061|-0.6188429594039917|0.1627707183361053|XArbitraryZVertical|-0.5132216722678523|0.5896157292898559|-0.5160246661092257|-0.3502502717667458|-0.942696213722229|0.2490004599094391|0.2220863848924637|0|0|0|-1|-1|3
2021-03-10 21:13:34.971 +0000|291175.18882225|-0.856109619140625|0.0499420166015625|-0.1383514404296875|291175.16885925|1.656352848519377|-1.783724876062539|-0.2198043640063942|0.5414263010025024|0.6555526256561279|-1.837736368179321|0.1099666357040405|-0.2803860306739807|-0.08305451273918152|XArbitraryZVertical|-0.5232967307353148|0.5738291989658895|-0.5175506198975259|-0.3591964128203305|-0.9538998603820801|0.2180386930704117|0.2062388360500336|0|0|0|-1|-1|3
2021-03-10 21:13:34.991 +0000|291175.20878525|-0.9044189453125|-0.0834197998046875|-0.2174224853515625|291175.18882225|1.669656575895136|-1.766754551876951|-0.1854025754385071|0.01213226281106472|0.7578326463699341|-1.816607713699341|0.1116957068443298|-0.156082883477211|-0.3035217225551605|XArbitraryZVertical|-0.5309574772267392|0.5601508730277834|-0.5163216674427101|-0.3711161984356534|-0.9640518426895142|0.1843422204256058|0.1913696825504303|0|0|0|-1|-1|3
2021-03-10 21:13:35.011 +0000|291175.22874825|-0.9033203125|-0.1457672119140625|-0.1894989013671875|291175.20878525|1.668799130336468|-1.750923001444246|-0.1484584151278438|-0.7950834631919861|0.8262568116188049|-1.777506828308105|0.07726258039474487|-0.2139384150505066|-0.3876785039901733|XArbitraryZVertical|-0.5354111541771955|0.5494785523370548|-0.5115855353690376|-0.3868960092978008|-0.9729993343353271|0.1479136794805527|0.1771835684776306|0|0|0|-1|-1|3
2021-03-10 21:13:35.031 +0000|291175.24871125|-0.944610595703125|-0.0769500732421875|-0.149444580078125|291175.22874825|1.650000129857781|-1.737767541745796|-0.1099119525049944|-1.606577038764954|0.7352352142333984|-1.738566398620605|0.08161330223083496|-0.2284651249647141|-0.3637714385986328|XArbitraryZVertical|-0.5359945083643805|0.5434212872753204|-0.5020275747333502|-0.4066591634321881|-0.9801425337791443|0.10969078540802|0.1651936173439026|0|0|0|-1|-1|3
2021-03-10 21:13:35.051 +0000|291175.26867325|-1.027130126953125|0.0751190185546875|-0.1510772705078125|291175.24871125|1.618426735600058|-1.72698804665893|-0.06884991013464928|-2.007820844650269|0.6649134159088135|-1.860198974609375|0.05499029159545898|-0.1911404430866241|-0.3082956075668335|XArbitraryZVertical|-0.5343720390976544|0.5404081448042338|-0.4880536068591459|-0.4291960721149827|-0.9854865074157715|0.06879552453756332|0.1551888734102249|0|0|0|-1|-1|3
2021-03-10 21:13:35.071 +0000|291175.28863625|-1.179580688476562|0.1420135498046875|-0.0639495849609375|291175.26867325|1.58430568064769|-1.715753210695475|-0.02435599539090737|-2.002895832061768|0.5976137518882751|-1.995104551315308|-0.01061344146728516|0.04144236445426941|-0.2969337701797485|XArbitraryZVertical|-0.532861887474959|0.5369000631837461|-0.4720282593562915|-0.4527537327025866|-0.9892187714576721|0.02435358799993992|0.1444069445133209|0|0|0|-1|-1|3
2021-03-10 21:13:35.091 +0000|291175.30859925|-1.210205078125|0.256744384765625|0.0014495849609375|291175.28863625|1.550908278762181|-1.70293749660542|0.01961674564420456|-1.890144228935242|0.7296737432479858|-1.8844393491745|-0.1604741811752319|0.1351550817489624|-0.216677188873291|XArbitraryZVertical|-0.5311941849970137|0.532633588908936|-0.4559509643585586|-0.4756500530544334|-0.9910913705825806|-0.01961548812687397|0.1317315995693207|0|0|0|-1|-1|3
2021-03-10 21:13:35.110 +0000|291175.32856225|-1.152420043945312|0.3097076416015625|0.042388916015625|291175.30859925|1.520407329865794|-1.685167958065413|0.05812438091938119|-1.603712558746338|0.9256581664085388|-1.54780900478363|-0.2152117490768433|0.2921462655067444|-0.1290511935949326|XArbitraryZVertical|-0.5280951014981761|0.5273333249179171|-0.4426897909521208|-0.49705234471385|-0.9917891621589661|-0.0580916590988636|0.1139297410845757|0|0|0|-1|-1|3
2021-03-10 21:13:35.131 +0000|291175.34852525|-1.111663818359375|0.357208251953125|0.0583648681640625|291175.32856225|1.495108586593697|-1.663179313072788|0.08800690066872356|-1.223737239837646|1.059269309043884|-1.153861880302429|-0.1780855655670166|0.3815792798995972|-0.05638741701841354|XArbitraryZVertical|-0.5236563758305601|0.5212785328559666|-0.4337309871650618|-0.5156842057903896|-0.9918822050094604|-0.08789333701133728|0.09189461916685104|0|0|0|-1|-1|3
2021-03-10 21:13:35.151 +0000|291175.36848825|-1.023849487304688|0.3714752197265625|0.024658203125|291175.34852525|1.476455094422722|-1.63953080736753|0.1083325390186711|-0.772386908531189|1.124085903167725|-0.724762499332428|-0.1268314719200134|0.4571503400802612|-0.01249158382415771|XArbitraryZVertical|-0.5185423243436125|0.5150269278650798|-0.4292892894803598|-0.5306334970139918|-0.9917904138565063|-0.1081207692623138|0.0682777538895607|0|0|0|-1|-1|3
2021-03-10 21:13:35.170 +0000|291175.38845125|-0.972564697265625|0.3509063720703125|0.0004425048828125|291175.36848825|1.467547299143337|-1.61523275638271|0.119463666065001|-0.1366712898015976|1.18241274356842|-0.3220902979373932|-0.06244391202926636|0.49091437458992|-0.003669384866952896|XArbitraryZVertical|-0.5137177577657682|0.5080813568593853|-0.4300331558834887|-0.5413121927346577|-0.9918925762176514|-0.1191797107458115|0.04410519823431969|0|0|0|-1|-1|3
