loggingTime(txt)|accelerometerTimestamp_sinceReboot(s)|accelerometerAccelerationX(G)|accelerometerAccelerationY(G)|accelerometerAccelerationZ(G)|motionTimestamp_sinceReboot(s)|motionYaw(rad)|motionRoll(rad)|motionPitch(rad)|motionRotationRateX(rad/s)|motionRotationRateY(rad/s)|motionRotationRateZ(rad/s)|motionUserAccelerationX(G)|motionUserAccelerationY(G)|motionUserAccelerationZ(G)|motionAttitudeReferenceFrame(txt)|motionQuaternionX(R)|motionQuaternionY(R)|motionQuaternionZ(R)|motionQuaternionW(R)|motionGravityX(G)|motionGravityY(G)|motionGravityZ(G)|motionMagneticFieldX(µT)|motionMagneticFieldY(µT)|motionMagneticFieldZ(µT)|motionHeading(°)|motionMagneticFieldCalibrationAccuracy(Z)|label
2021-02-25 22:37:02.042 +0000|165198.0665345|-0.3833465576171875|0.2072601318359375|-0.907501220703125|165198.0465715|-0.7695084488513223|-0.3152362572726198|-0.2037179509468163|0.1287266910076141|0.1438911706209183|0.1434914320707321|-0.1134385764598846|-0.02483688294887543|-0.01301324367523193|XArbitraryZVertical|0.1516896600509572|0.1070448157565939|0.3539635221639607|-0.9166468850930772|-0.3036298155784607|0.202311784029007|-0.9310632944107056|0|0|0|-1|-1|3
2021-02-25 22:37:02.053 +0000|165198.0864975|-0.36505126953125|0.2103118896484375|-0.881683349609375|165198.0665345|-0.7661270323184571|-0.3137820215134861|-0.2020735308088363|0.1335672736167908|0.1432610601186752|0.1445863395929337|-0.05177861452102661|0.006543710827827454|0.001566946506500244|XArbitraryZVertical|0.1505076694878606|0.1069481974213458|0.3526726020627619|-0.9173502572031462|-0.3023777902126312|0.2007011026144028|-0.9318190217018127|0|0|0|-1|-1|3
2021-02-25 22:37:02.054 +0000|165198.1064605|-0.34246826171875|0.2028045654296875|-0.8593292236328125|165198.1064605|-0.7584626054586319|-0.3075117715921082|-0.1983146919524854|0.1380406767129898|0.1541106253862381|0.1748234331607819|-0.05793508887290955|0.00772501528263092|0.06168264150619507|XArbitraryZVertical|0.147295323724808|0.105354283767034|0.3499581384667832|-0.9190940572857537|-0.2967553734779358|0.1970173418521881|-0.9344091415405273|0|0|0|-1|-1|3
2021-02-25 22:37:02.054 +0000|165198.1264235|-0.330841064453125|0.211883544921875|-0.852264404296875||||||||||||||||||||||||3
2021-02-25 22:37:02.075 +0000|165198.1463865|-0.3294525146484375|0.1865234375|-0.86322021484375|165198.1264235|-0.7545314236654506|-0.3060657606202494|-0.1963337751355279|0.1364166289567947|0.1235910058021545|0.1971697509288788|-0.03850910067558289|0.01017104089260101|0.0821496844291687|XArbitraryZVertical|0.1459360878328978|0.1053512421471439|0.3484323809955419|-0.9198904516461532|-0.2955209314823151|0.1950748562812805|-0.9352075457572937|0|0|0|-1|-1|3
2021-02-25 22:37:02.093 +0000|165198.1663485|-0.320281982421875|0.149200439453125|-0.8881378173828125|165198.1463865|-0.749963336908803|-0.3039964881020583|-0.195233676087925|0.1112171187996864|0.1195122078061104|0.2158688604831696|-0.04045718908309937|0.01154002547264099|0.08026260137557983|XArbitraryZVertical|0.1448361536469019|0.104937418857216|0.3465775510410132|-0.9208118194785532|-0.2936491370201111|0.1939957737922668|-0.9360212683677673|0|0|0|-1|-1|3
2021-02-25 22:37:02.113 +0000|165198.1863115|-0.311248779296875|0.1799468994140625|-0.89239501953125|165198.1663485|-0.74566257293379|-0.3026456119263385|-0.1954212274173954|0.04954922944307327|0.1064692214131355|0.2139288336038589|-0.02932736277580261|-0.02602797746658325|0.06341171264648438|XArbitraryZVertical|0.144462779424744|0.1045912609203178|0.3446778362423337|-0.9216226560371704|-0.2923735976219177|0.1941797584295273|-0.9363823533058167|0|0|0|-1|-1|3
2021-02-25 22:37:02.133 +0000|165198.2062745|-0.283538818359375|0.200836181640625|-0.9138031005859375|165198.1863115|-0.741729245679893|-0.3014095835989578|-0.1965668659618695|0.01597525738179684|0.1143095716834068|0.21262326836586|-0.02504280209541321|-0.0347047746181488|0.04305154085159302|XArbitraryZVertical|0.144567137711078|0.1040930481982009|0.3428538994300651|-0.9223426771040514|-0.2911497354507446|0.1953034698963165|-0.9365299344062805|0|0|0|-1|-1|3
2021-02-25 22:37:02.153 +0000|165198.2262375|-0.2730560302734375|0.208892822265625|-0.96539306640625|165198.2062745|-0.7376161145122879|-0.2997298976466324|-0.1978865174213845|0.03004428930580616|0.1079922318458557|0.2261709421873093|-0.009587526321411133|-0.002475321292877197|0.03711235523223877|XArbitraryZVertical|0.1446684549268996|0.1033717813980727|0.3409628215713545|-0.9231086474167457|-0.2894999086856842|0.1965975314378738|-0.9367706179618835|0|0|0|-1|-1|3
2021-02-25 22:37:02.172 +0000|165198.2462005|-0.2789306640625|0.2385711669921875|-1.032150268554688|165198.2262375|-0.7332807768136111|-0.2982615032168451|-0.1993598408252366|0.01323246862739325|0.08653733134269714|0.2353080660104752|0.011229008436203|0.01223939657211304|0.002010822296142578|XArbitraryZVertical|0.1448679589954913|0.1027368265846881|0.3389394165371166|-0.9238930868274995|-0.2880386114120483|0.1980418860912323|-0.9369168281555176|0|0|0|-1|-1|3
2021-02-25 22:37:02.192 +0000|165198.2661635|-0.29315185546875|0.3329620361328125|-1.04443359375|165198.2462005|-0.7291638523964729|-0.2972535827269137|-0.2006871966460566|-0.02755414322018623|0.05206936597824097|0.22243532538414|0.01301488280296326|0.02187906205654144|-0.06534957885742188|XArbitraryZVertical|0.1450929716002603|0.1023268154989415|0.3369950463127495|-0.924614194590166|-0.2870168685913086|0.1993427872657776|-0.9369544982910156|0|0|0|-1|-1|3
2021-02-25 22:37:02.212 +0000|165198.2861265|-0.25811767578125|0.377593994140625|-0.98321533203125|165198.2661635|-0.7251014274051627|-0.2963222380271612|-0.2019430460990057|-0.04313571378588676|0.06903455406427383|0.2476881295442581|0.002379477024078369|0.08316382765769958|-0.1131439208984375|XArbitraryZVertical|0.1453031764820257|0.1019625681409186|0.3350753234464976|-0.9253188974111416|-0.2860707938671112|0.2005732655525208|-0.9369812607765198|0|0|0|-1|-1|3
2021-02-25 22:37:02.232 +0000|165198.3060885|-0.2345428466796875|0.330047607421875|-0.899749755859375|165198.2861265|-0.7197396771444908|-0.2940499298629163|-0.2041791483045664|-0.02691373601555824|0.09185939282178879|0.3482023179531097|-0.005648910999298096|0.1565809845924377|-0.08718633651733398|XArbitraryZVertical|0.1456753104586278|0.1008963447986366|0.3325660449923438|-0.9262819601431785|-0.2838102579116821|0.2027634233236313|-0.9371972680091858|0|0|0|-1|-1|3
2021-02-25 22:37:02.252 +0000|165198.3260515|-0.2069091796875|0.2235565185546875|-0.839447021484375|165198.3060885|-0.7117392962290753|-0.290989803207972|-0.2070845222679603|-0.01985471136868|0.06072404980659485|0.4774461388587952|0.04253539443016052|0.1541793197393417|-0.0004952549934387207|XArbitraryZVertical|0.1460998109726278|0.09954045815407087|0.3288321843363131|-0.9276938872889297|-0.2807707786560059|0.2056075930595398|-0.9374930858612061|0|0|0|-1|-1|3
2021-02-25 22:37:02.272 +0000|165198.3460145|-0.1807403564453125|0.1425628662109375|-0.7971954345703125|165198.3260515|-0.7017406749110568|-0.2878300185804797|-0.2107377401851152|-0.07384465634822845|0.01363904681056738|0.5481842756271362|0.05923888087272644|0.06540042161941528|0.06979018449783325|XArbitraryZVertical|0.1467669530068781|0.0981576431604993|0.3241104598135571|-0.9293959160738989|-0.2775920331478119|0.2091813683509827|-0.9376490712165833|0|0|0|-1|-1|3
2021-02-25 22:37:02.292 +0000|165198.3659775|-0.15325927734375|0.1519317626953125|-0.7687225341796875|165198.3460145|-0.6916330746909809|-0.2852169305409348|-0.2171512856320414|-0.2129707783460617|-0.01788654923439026|0.5545541644096375|0.06781819462776184|-0.0382789671421051|0.1195444464683533|XArbitraryZVertical|0.1488042909220624|0.09656603268871701|0.3190589735416297|-0.9309852729743883|-0.2747578024864197|0.2154486924409866|-0.9370645880699158|0|0|0|-1|-1|3
2021-02-25 22:37:02.312 +0000|165198.3859405|-0.1352996826171875|0.1416168212890625|-0.80487060546875|165198.3659775|-0.6823290312013693|-0.2838840630161691|-0.2268921976669818|-0.2803660035133362|-0.06525006890296936|0.5353465676307678|0.1114240884780884|-0.06833434104919434|0.1615670919418335|XArbitraryZVertical|0.1526337607342068|0.09496059101771306|0.3139993609362701|-0.9322498285388343|-0.2729077935218811|0.2249504625797272|-0.9353708624839783|0|0|0|-1|-1|3
2021-02-25 22:37:02.332 +0000|165198.4059035|-0.1733245849609375|0.1635589599609375|-0.9010009765625|165198.3859405|-0.6737490258176685|-0.2836507119677249|-0.2367934442376195|-0.321687787771225|-0.1387547999620438|0.5036771297454834|0.1287423670291901|-0.08961308002471924|0.150810182094574|XArbitraryZVertical|0.1567564531621393|0.09382012894036079|0.3091715147891951|-0.9332942192107201|-0.2720528244972229|0.2345867604017258|-0.933250367641449|0|0|0|-1|-1|3
2021-02-25 22:37:02.352 +0000|165198.4258665|-0.2341461181640625|0.1962890625|-1.05059814453125|165198.4059035|-0.6661408862767831|-0.2851309870671184|-0.2460073283592464|-0.3535062074661255|-0.1809761375188828|0.4620144367218018|0.1219508647918701|-0.09501974284648895|0.0797501802444458|XArbitraryZVertical|0.1608770403454341|0.09355279048964484|0.3047095150644588|-0.9340869853200524|-0.2728144228458405|0.2435334473848343|-0.9307329058647156|0|0|0|-1|-1|3
2021-02-25 22:37:02.372 +0000|165198.4458295|-0.32537841796875|0.2437591552734375|-1.229324340820312|165198.4258665|-0.6600933840693745|-0.2874939595982086|-0.255170286936963|-0.3568345308303833|-0.1975923925638199|0.3409985601902008|0.0771489143371582|-0.07163938879966736|-0.04159098863601685|XArbitraryZVertical|0.1651792974997335|0.09360788743059618|0.3008940945150596|-0.9345671979602859|-0.2743686735630035|0.2524101734161377|-0.9279067516326904|0|0|0|-1|-1|3
2021-02-25 22:37:02.392 +0000|165198.4657915|-0.3841705322265625|0.349639892578125|-1.265914916992188|165198.4458295|-0.6575473548790476|-0.2904565057322708|-0.2632532230366942|-0.3574095964431763|-0.1411792933940887|0.1186394244432449|0.004779428243637085|-0.04313638806343079|-0.2200215458869934|XArbitraryZVertical|0.1692323393040553|0.09385100460826107|0.2987435173567243|-0.9345076355832592|-0.27652308344841|0.2602230608463287|-0.9251047968864441|0|0|0|-1|-1|3
2021-02-25 22:37:02.413 +0000|165198.4857545|-0.3212738037109375|0.3618011474609375|-1.11517333984375|165198.4657915|-0.6597237214078104|-0.2915711658014284|-0.2701204517403323|-0.364067941904068|0.09089361876249313|-0.09252554178237915|-0.09003150463104248|0.01510429382324219|-0.3478114604949951|XArbitraryZVertical|0.1726654124865824|0.09303406474783024|0.29905180403016|-0.9338625720961969|-0.2770338654518127|0.2668475210666656|-0.9230626225471497|0|0|0|-1|-1|3
2021-02-25 22:37:02.432 +0000|165198.5057175|-0.1810455322265625|0.2354888916015625|-0.981292724609375|165198.4857545|-0.6640993357709322|-0.2876361445432403|-0.2756754357738667|-0.3055854737758636|0.3927334547042847|-0.140322282910347|-0.1096698343753815|0.09892725944519043|-0.2845197319984436|XArbitraryZVertical|0.1748326508463117|0.08988088799980587|0.3009390052278185|-0.9331616830179236|-0.2729747295379639|0.2721969187259674|-0.9227099418640137|0|0|0|-1|-1|3
2021-02-25 22:37:02.452 +0000|165198.5256805|-0.142608642578125|0.157562255859375|-0.929473876953125|165198.5057175|-0.6677326933605802|-0.2806789074026954|-0.2806185751422529|-0.278618723154068|0.3802438974380493|-0.04653950408101082|0.03428494930267334|0.0122343897819519|-0.1238823533058167|XArbitraryZVertical|0.1762159721305516|0.08547887834153196|0.3028060405125234|-0.9327109174063332|-0.2661726772785187|0.2769500911235809|-0.9232825636863708|0|0|0|-1|-1|3
2021-02-25 22:37:02.473 +0000|165198.5456435|-0.1490325927734375|0.130279541015625|-0.9343414306640625|165198.5256805|-0.6693517495687095|-0.2743554907287525|-0.2864047930280029|-0.3300076723098755|0.2966468930244446|0.05549818277359009|0.1050902605056763|-0.08374440670013428|-0.01672005653381348|XArbitraryZVertical|0.1779858628808528|0.08140289005095749|0.3036139125285612|-0.9324768662325491|-0.2598905861377716|0.2825053036212921|-0.923389196395874|0|0|0|-1|-1|3
2021-02-25 22:37:02.492 +0000|165198.5656065|-0.156890869140625|0.1258087158203125|-0.9370269775390625|165198.5456435|-0.6696988318326935|-0.2697772740441071|-0.2941484722037032|-0.4437001943588257|0.185416504740715|0.1201780140399933|0.1177254319190979|-0.1605152785778046|-0.01131319999694824|XArbitraryZVertical|0.1808648777448597|0.07791866992453235|0.3035134484386102|-0.9322532207814708|-0.2550697028636932|0.2899250090122223|-0.9224331378936768|0|0|0|-1|-1|3
2021-02-25 22:37:02.512 +0000|165198.5855695|-0.166595458984375|0.1607208251953125|-0.93170166015625|165198.5656065|-0.6696697798033254|-0.2665344637381494|-0.3047869797325025|-0.5793299674987793|0.1307873427867889|0.1668123602867126|0.08842399716377258|-0.1776993274688721|-0.0133202075958252|XArbitraryZVertical|0.1852603365879927|0.07459695918086243|0.3028742470729375|-0.9318696643741305|-0.2512504458427429|0.3000899851322174|-0.9202278256416321|0|0|0|-1|-1|3
2021-02-25 22:37:02.532 +0000|165198.6055315|-0.1582183837890625|0.2321319580078125|-0.9163055419921875|165198.5855695|-0.6694010064199971|-0.2643379502406016|-0.3175955600871605|-0.6235452890396118|0.0881703794002533|0.1958209425210953|0.09010764956474304|-0.176037609577179|-0.01553386449813843|XArbitraryZVertical|0.1907984565007387|0.07141461950275414|0.3018416058433982|-0.9313363623686396|-0.2482038885354996|0.3122832775115967|-0.9169918298721313|0|0|0|-1|-1|3
2021-02-25 22:37:02.552 +0000|165198.6254945|-0.167236328125|0.2725372314453125|-0.895721435546875|165198.6055315|-0.6686578188083966|-0.2628351228064634|-0.3300005438367988|-0.5446708798408508|0.0295979306101799|0.1921881139278412|0.08033384382724762|-0.1225055754184723|-0.01434975862503052|XArbitraryZVertical|0.1962348929534821|0.06867051289799521|0.3005558050487379|-0.9308288142934751|-0.2458000630140305|0.3240435421466827|-0.913552463054657|0|0|0|-1|-1|3
2021-02-25 22:37:02.572 +0000|165198.6454575|-0.1938934326171875|0.228057861328125|-0.9080963134765625|165198.6254945|-0.6676138659313453|-0.2625646334800308|-0.3404848493624771|-0.4380271136760712|-0.03379089385271072|0.1775116175413132|0.0819990336894989|-0.07077589631080627|0.006814897060394287|XArbitraryZVertical|0.2009622587707354|0.06685995447872894|0.2991730641255312|-0.930397439072314|-0.2446576505899429|0.3339441418647766|-0.9102878570556641|0|0|0|-1|-1|3
2021-02-25 22:37:02.592 +0000|165198.6654205|-0.2511138916015625|0.10321044921875|-0.927215576171875|165198.6454575|-0.6660637124882386|-0.2613505221020384|-0.3451323034294839|-0.4144455194473267|-0.0681556835770607|0.1079967170953751|0.06977835297584534|-0.0756564736366272|0.007051706314086914|XArbitraryZVertical|0.2028577077621664|0.0656597941435738|0.2981633331586318|-0.9303956751610201|-0.2431486397981644|0.338321179151535|-0.9090750813484192|0|0|0|-1|-1|3
2021-02-25 22:37:02.612 +0000|165198.6853835|-0.3015899658203125|-0.0360870361328125|-0.9111328125|165198.6654205|-0.6674813471867547|-0.2607404015173327|-0.350713518005958|-0.6164481639862061|0.01968079805374146|-0.06195254996418953|0.0176924467086792|-0.1705029010772705|-0.01325440406799316|XArbitraryZVertical|0.2053672713341674|0.06428018418184225|0.298390158606971|-0.9298685367023568|-0.2421033829450607|0.343567967414856|-0.9073846936225891|0|0|0|-1|-1|3
2021-02-25 22:37:02.632 +0000|165198.7053465|-0.31573486328125|-0.0867156982421875|-0.8697662353515625|165198.6853835|-0.6749357371011734|-0.259267304454143|-0.3626822177903539|-1.090823292732239|0.2452593743801117|-0.2940095663070679|-0.04062411189079285|-0.3261425793170929|-0.02320963144302368|XArbitraryZVertical|0.2108481915811383|0.06076709524526408|0.3009382755533392|-0.9280552253415935|-0.2396950274705887|0.3547832369804382|-0.9037008285522461|0|0|0|-1|-1|3
2021-02-25 22:37:02.652 +0000|165198.7253095|-0.3372039794921875|-0.112274169921875|-0.7457427978515625|165198.7053465|-0.6911976558534403|-0.256820265134342|-0.3860636134500874|-1.804352045059204|0.4276650846004486|-0.5849348902702332|-0.07749395072460175|-0.4463995397090912|-0.001919031143188477|XArbitraryZVertical|0.2215816413803971|0.05379696688414361|0.3066176965170428|-0.9241173614159804|-0.2353111207485199|0.3765446841716766|-0.896014928817749|0|0|0|-1|-1|3
2021-02-25 22:37:02.672 +0000|165198.7452725|-0.2978363037109375|-0.0875701904296875|-0.6488494873046875|165198.7253095|-0.7183993417827118|-0.2568417701724861|-0.4252895486481467|-2.624603271484375|0.6511815786361694|-0.8401432037353516|-0.102921724319458|-0.5296958684921265|0.07372641563415527|XArbitraryZVertical|0.239954791383842|0.04361718906221695|0.315474657097018|-0.9170577246590182|-0.231398269534111|0.4125845432281494|-0.88103848695755|0|0|0|-1|-1|3
2021-02-25 22:37:02.692 +0000|165198.7652345|-0.362518310546875|0.162841796875|-0.5916290283203125|165198.7452725|-0.7559155967082489|-0.2582662272859597|-0.4785965732795521|-3.39657187461853|0.8118537664413452|-1.055467009544373|-0.08818762004375458|-0.5474632978439331|0.1636531352996826|XArbitraryZVertical|0.2646245743769255|0.02953715550926127|0.3271547236538426|-0.9066813425003802|-0.226707935333252|0.4605338871479034|-0.8582027554512024|0|0|0|-1|-1|3
2021-02-25 22:37:02.712 +0000|165198.7851975|-0.369384765625|0.2586669921875|-0.515472412109375|165198.7652345|-0.8038151488454792|-0.2648096962172692|-0.5437630916748546|-3.937059640884399|0.9382269382476807|-1.305152535438538|-0.08496825397014618|-0.4963029623031616|0.2114663124084473|XArbitraryZVertical|0.2947278834130445|0.01290736037748346|0.3408799075637222|-0.8926194794771828|-0.223976343870163|0.5173599720001221|-0.8259377479553223|0|0|0|-1|-1|3
2021-02-25 22:37:02.731 +0000|165198.8051605|-0.332977294921875|0.4672088623046875|-0.4578704833984375|165198.7851975|-0.8611121036529527|-0.2740708824570912|-0.6157886879871654|-4.278747081756592|1.235426068305969|-1.384713768959045|-0.1762323081493378|-0.377361536026001|0.2370988726615906|XArbitraryZVertical|0.327147703915141|-0.006999640643465517|0.3563990339069552|-0.8751600347537731|-0.2209386378526688|0.5776025056838989|-0.7858507633209229|0|0|0|-1|-1|3
2021-02-25 22:37:02.752 +0000|165198.8251235|-0.310028076171875|0.5584564208984375|-0.3302154541015625|165198.8051605|-0.9263208724933941|-0.2879318265870744|-0.691709379666807|-4.419163227081299|1.363086104393005|-1.484950304031372|-0.1212034225463867|-0.2534705400466919|0.2502316236495972|XArbitraryZVertical|0.3604511534729493|-0.02913762538535768|0.3724619131332488|-0.8546918029464328|-0.2187012732028961|0.6378545761108398|-0.7384519577026367|0|0|0|-1|-1|3
2021-02-25 22:37:02.772 +0000|165198.8450865|-0.28662109375|0.6117706298828125|-0.286834716796875|165198.8251235|-0.9996064725723101|-0.3083020790774571|-0.7662333121945395|-4.327630043029785|1.488725066184998|-1.584322452545166|-0.11014324426651|-0.184454083442688|0.2825937271118164|XArbitraryZVertical|0.3924471020321308|-0.05203650789974888|0.3888632045529383|-0.831903193435644|-0.2186377942562103|0.6934261322021484|-0.6865549683570862|0|0|0|-1|-1|3
2021-02-25 22:37:02.792 +0000|165198.8650495|-0.290374755859375|0.7642822265625|-0.2449798583984375|165198.8450865|-1.083217584161816|-0.3387340222217107|-0.8377108833336089|-4.358914852142334|1.495253562927246|-1.641342639923096|-0.05309233069419861|-0.1668499708175659|0.3027564883232117|XArbitraryZVertical|0.4229025499637993|-0.07471904099488078|0.4054693154087787|-0.8069479757213596|-0.2223592549562454|0.7431132793426514|-0.6311410069465637|0|0|0|-1|-1|3
2021-02-25 22:37:02.812 +0000|165198.8850125|-0.25360107421875|0.89715576171875|-0.2331390380859375|165198.8650495|-1.176774973232334|-0.3809446322021818|-0.9074268707377651|-4.367632865905762|1.469599366188049|-1.584383249282837|-0.04077056050300598|-0.1598549485206604|0.3138962984085083|XArbitraryZVertical|0.4524522361487058|-0.09731733190037174|0.4208176326282203|-0.78021073362162|-0.2289437055587769|0.7879219055175781|-0.5716326236724854|0|0|0|-1|-1|3
2021-02-25 22:37:02.832 +0000|165198.9049745|-0.323089599609375|1.259323120117188|-0.2165679931640625|165198.8850125|-1.288019223382899|-0.4429958930166772|-0.976838623389339|-4.563114166259766|1.294168710708618|-1.594874858856201|-0.04796616733074188|-0.007641732692718506|0.2564931511878967|XArbitraryZVertical|0.4825552829784704|-0.1197025691570259|0.4348141538699511|-0.7508316126352682|-0.2398907840251923|0.8287322521209717|-0.5056234002113342|0|0|0|-1|-1|3
2021-02-25 22:37:02.851 +0000|165198.9249375|-0.3495635986328125|1.274887084960938|-0.155364990234375|165198.9049745|-1.41949659471158|-0.5302675401994641|-1.042706142559999|-4.503357887268066|1.217878699302673|-1.514073014259338|-0.009542167186737061|0.2221054434776306|0.1987555027008057|XArbitraryZVertical|0.5126558837204788|-0.140856130942334|0.4463299406037018|-0.7198145757180019|-0.2548467516899109|0.8637709617614746|-0.4346869885921478|0|0|0|-1|-1|3
2021-02-25 22:37:02.871 +0000|165198.9449005|-0.2343292236328125|1.255584716796875|-0.1374969482421875|165198.9249375|-1.570191122682425|-0.6354864260590972|-1.100040003103259|-4.301363945007324|1.46553909778595|-1.345424771308899|-0.1142643094062805|0.4080908298492432|0.1571930050849915|XArbitraryZVertical|0.5394901581773247|-0.162608307875377|0.4569607432696668|-0.6882556306983062|-0.2692194879055023|0.8912255167961121|-0.3650178015232086|0|0|0|-1|-1|3
2021-02-25 22:37:02.891 +0000|165198.9648635|-0.207305908203125|1.107803344726562|-0.065032958984375|165198.9449005|-1.746698364822081|-0.7645796181755309|-1.14932810325532|-4.393411159515381|1.550189852714539|-1.337062120437622|-0.004572182893753052|0.3668227791786194|0.1658576726913452|XArbitraryZVertical|0.5639088195338993|-0.1854408556635419|0.466693046170976|-0.6556036469253612|-0.2831932604312897|0.9124892950057983|-0.2952370643615723|0|0|0|-1|-1|3
2021-02-25 22:37:02.911 +0000|165198.9848265|-0.1856536865234375|1.155441284179688|0.01544189453125|165198.9648635|-1.965574504111602|-0.9339133956927183|-1.189957626789708|-4.774370670318604|1.675695896148682|-1.248597741127014|0.08685386180877686|0.2409583330154419|0.08004006743431091|XArbitraryZVertical|0.5878209794846615|-0.2096261836734927|0.4753366299005388|-0.6201439180177257|-0.2988288700580597|0.9283531904220581|-0.2210467159748077|0|0|0|-1|-1|3
2021-02-25 22:37:02.931 +0000|165199.0047895|-0.210906982421875|1.174209594726562|0.0651397705078125|165198.9848265|-2.240412023193174|-1.156795190603179|-1.219724660834524|-5.148116588592529|1.717475771903992|-1.151671171188354|0.1223153173923492|0.1933499574661255|0.1350940465927124|XArbitraryZVertical|0.6122629120309033|-0.2365628918459844|0.4815206261396635|-0.5807838952915724|-0.3148505985736847|0.9390047192573547|-0.1383442431688309|0|0|0|-1|-1|3
2021-02-25 22:37:02.951 +0000|165199.0247517917|-0.2896881103515625|1.236083984375|0.101470947265625|165199.0047895|-2.554771659944967|-1.418615001888209|-1.227268809118858|-5.314453601837158|1.668875455856323|-1.106219053268433|0.1398333311080933|0.1937273144721985|0.09538530558347702|XArbitraryZVertical|0.6361034547726341|-0.2642783846414715|0.4853908944209005|-0.5384468302286758|-0.3329179286956787|0.9415724277496338|-0.05105866119265556|0|0|0|-1|-1|3
2021-02-25 22:37:02.973 +0000|165199.0447137917|-0.405029296875|1.428497314453125|0.005950927734375|165199.0247517917|-2.868653040961074|-1.680643164218843|-1.208010813564883|-5.413781642913818|1.609092593193054|-1.030238151550293|0.109545886516571|0.2634521722793579|0.05690574273467064|XArbitraryZVertical|0.6589222351867258|-0.2920162571726934|0.486510716311124|-0.4938168860497342|-0.3527403473854065|0.9349119067192078|0.03890401124954224|0|0|0|-1|-1|3
2021-02-25 22:37:02.991 +0000|165199.0646767917|-0.5568695068359375|1.565780639648438|0.0767669677734375|165199.0447137917|-3.122565282795046|-1.885724570137864|-1.16632865823101|-4.590531826019287|1.475474834442139|-1.174206495285034|0.05062761902809143|0.340117871761322|-0.06327080726623535|XArbitraryZVertical|0.6785418363117338|-0.3170622364700102|0.486117181615601|-0.4502693726628943|-0.3741748631000519|0.9193120002746582|0.121894970536232|0|0|0|-1|-1|3
2021-02-25 22:37:03.011 +0000|165199.0846397917|-0.6148681640625|1.174041748046875|0.2606353759765625|165199.0646767917|3.000656666321442|-2.002983688931014|-1.126147674539802|-2.983761548995972|1.449225425720215|-0.3650707006454468|0.0007890164852142334|0.6569611430168152|-0.1158217042684555|XArbitraryZVertical|0.6902169899198409|-0.3371712491764344|0.4863521550144742|-0.4163863909392027|-0.3905900120735168|0.9027618765830994|0.1801678836345673|0|0|0|-1|-1|3
2021-02-25 22:37:03.031 +0000|165199.1046027917|-0.5643463134765625|1.0726318359375|0.49481201171875|165199.0846397917|2.90243832908015|-2.061574826817829|-1.103194819596853|-2.079022645950317|1.429926156997681|0.2313067615032196|-0.2341097295284271|0.4955315589904785|-0.03631031513214111|XArbitraryZVertical|0.6931386406766228|-0.3546548160035208|0.4883825587602815|-0.3940319310375558|-0.3975430130958557|0.8926519751548767|0.2124424278736115|0|0|0|-1|-1|3
2021-02-25 22:37:03.051 +0000|165199.1245657917|-0.43084716796875|1.064285278320312|0.5720977783203125|165199.1046027917|2.814692348126628|-2.113881312109683|-1.090876802597559|-2.02499794960022|1.15147590637207|0.6856372356414795|-0.1969172060489655|0.1886513829231262|0.1454473584890366|XArbitraryZVertical|0.6930761366438514|-0.3727545393704462|0.4881328216203003|-0.377393336856637|-0.3952762484550476|0.8870320916175842|0.238600954413414|0|0|0|-1|-1|3
2021-02-25 22:37:03.071 +0000|165199.1445287917|-0.1660919189453125|0.726104736328125|0.2978668212890625|165199.1245657917|2.719370696931631|-2.178445841441617|-1.084969355312208|-2.074959278106689|0.8566928505897522|1.142274022102356|-0.1113362908363342|0.2168611884117126|0.3236311078071594|XArbitraryZVertical|0.6920663251402273|-0.3928628019251754|0.4837464570041097|-0.3642693700531439|-0.3833535015583038|0.8842890858650208|0.2665939629077911|0|0|0|-1|-1|3
2021-02-25 22:37:03.091 +0000|165199.1644917917|0.24151611328125|0.2513885498046875|0.30059814453125|165199.1445287917|2.610036211855321|-2.258023194937886|-1.077057274232097|-2.599860668182373|0.9027751684188843|1.302101612091064|0.02726432681083679|0.08778607845306396|0.1476798951625824|XArbitraryZVertical|0.6911985837520646|-0.4154170973323017|0.4759297022984621|-0.3509471377177362|-0.3663449883460999|0.8805670142173767|0.3006536960601807|0|0|0|-1|-1|3
2021-02-25 22:37:03.111 +0000|165199.1844547917|0.2339935302734375|0.96771240234375|0.5628814697265625|165199.1644917917|2.486526013916826|-2.345681784757872|-1.055641096149303|-3.198200464248657|1.13845682144165|1.096380949020386|0.4035117626190186|-0.4731062054634094|-0.1112904250621796|XArbitraryZVertical|0.691267781525838|-0.4410138681760358|0.4663628304424641|-0.3319056058445772|-0.3520132601261139|0.8702162504196167|0.34468874335289|0|0|0|-1|-1|3
2021-02-25 22:37:03.131 +0000|165199.2044167917|0.179962158203125|1.45257568359375|0.680023193359375|165199.1844547917|2.377598754692903|-2.416351789740705|-1.025865538268994|-2.52806544303894|1.262422800064087|0.9139502048492432|0.6050357818603516|-0.3691096305847168|0.08572417497634888|XArbitraryZVertical|0.691039023696866|-0.4652089633119957|0.4578352177078489|-0.3105360627258186|-0.3438356816768646|0.8551631569862366|0.3879086375236511|0|0|0|-1|-1|3
2021-02-25 22:37:03.151 +0000|165199.2243797917|0.03173828125|1.055252075195312|0.7283172607421875|165199.2044167917|2.314682611515471|-2.440355105758178|-1.014274138031699|-0.4509741067886353|1.697690844535828|0.7903790473937988|0.5438477993011475|0.4691247940063477|0.2792194485664368|XArbitraryZVertical|0.6847568794693345|-0.4826034203870821|0.458209988977943|-0.2970615886455242|-0.3407990038394928|0.8490973711013794|0.4035961031913757|0|0|0|-1|-1|3
2021-02-25 22:37:03.171 +0000|165199.2443427917|-0.0636444091796875|0.9364471435546875|0.7902984619140625|165199.2243797917|2.29799616253861|-2.417759382245867|-1.026099742343424|0.2282695174217224|1.986903786659241|0.7023177146911621|0.4821030795574188|0.3825998902320862|0.1712672412395477|XArbitraryZVertical|0.6722473627023918|-0.4921426791932746|0.4693764477847223|-0.2925144851580462|-0.3431564271450043|0.855284571647644|0.3882418572902679|0|0|0|-1|-1|3
2021-02-25 22:37:03.191 +0000|165199.2643057917|-0.1182708740234375|1.26385498046875|0.71807861328125|165199.2443427917|2.271314939774861|-2.398438416710908|-1.028764101712111|-1.078028202056885|2.166530847549438|0.4464685916900635|0.3177239000797272|0.07999873161315918|0.4372780919075012|XArbitraryZVertical|0.6602888591545221|-0.5039333736171815|0.4798851103256456|-0.2824535205476204|-0.3490500748157501|0.8566620945930481|0.3798604309558868|0|0|0|-1|-1|3
2021-02-25 22:37:03.211 +0000|165199.2842687917|-0.4768524169921875|1.416717529296875|0.7642822265625|165199.2643057917|2.225639076768073|-2.39863104893647|-1.011015534617433|-1.642869353294373|1.660306692123413|0.1342883408069611|0.304092139005661|0.2277932167053223|0.3726068735122681|XArbitraryZVertical|0.6535191203881136|-0.518116968320681|0.4843671148660113|-0.2643028167283963|-0.3592067956924438|0.847371518611908|0.39106485247612|0|0|0|-1|-1|3
2021-02-25 22:37:03.231 +0000|165199.3042317917|-0.968994140625|0.4628448486328125|0.5587005615234375|165199.2842687917|2.182439813838012|-2.406502883574728|-0.9935434855358122|-1.202964782714844|1.28426730632782|0.4712201952934265|0.1087439060211182|0.5602894425392151|0.3497756123542786|XArbitraryZVertical|0.6488450128023217|-0.5304725107918581|0.4854701037253943|-0.248832852517278|-0.3659917414188385|0.8379650115966797|0.4048018753528595|0|0|0|-1|-1|3
2021-02-25 22:37:03.251 +0000|165199.3241947917|-0.9933929443359375|0.820404052734375|0.5637969970703125|165199.3042317917|2.129098305353792|-2.425524769625337|-0.9780038328594506|-2.201113939285278|1.083561778068542|0.6400014162063599|-0.4044642746448517|0.2218551635742188|0.2504725456237793|XArbitraryZVertical|0.6432923647690332|-0.5448914198270819|0.4838947928244333|-0.2347638349340925|-0.3667300641536713|0.8293837904930115|0.4214634597301483|0|0|0|-1|-1|3
2021-02-25 22:37:03.271 +0000|165199.3441567917|-1.008636474609375|1.150314331054688|0.6481170654296875|165199.3241947917|2.052258280834307|-2.478007888222796|-0.9524269745930108|-1.874311089515686|-0.1344365924596786|1.157866835594177|-0.6185640096664429|-0.3701074123382568|0.1027458310127258|XArbitraryZVertical|0.641309036816841|-0.5630863674277826|0.4721724149285443|-0.2207025956263477|-0.3570676147937775|0.8148248195648193|0.4566870629787445|0|0|0|-1|-1|3
2021-02-25 22:37:03.296 +0000|165199.3641197917|-0.7647705078125|1.326019287109375|0.847808837890625|165199.3441567917|2.004076302802156|-2.533061077774046|-0.9633435312683538|1.049165368080139|-1.396409630775452|1.742856502532959|-0.7602702975273132|0.2716536521911621|0.06381839513778687|XArbitraryZVertical|0.6376557430540285|-0.5723228562468488|0.4617528338387689|-0.2294036943026448|-0.3262927234172821|0.8211045861244202|0.4683165848255157|0|0|0|-1|-1|3
2021-02-25 22:37:03.311 +0000|165199.3840827917|-0.4700469970703125|1.3026123046875|0.86663818359375|165199.3641197917|1.984375423631718|-2.585799015555518|-1.014820043227391|2.370563268661499|-2.11060905456543|1.958063244819641|-0.5976365208625793|0.322565495967865|0.3758549988269806|XArbitraryZVertical|0.6307675591156732|-0.5712256837790799|0.4562732649958689|-0.2600923025584984|-0.2784619331359863|0.8493855595588684|0.4483329951763153|0|0|0|-1|-1|3
2021-02-25 22:37:03.330 +0000|165199.4040457917|-0.1228179931640625|1.02923583984375|0.68499755859375|165199.3840827917|1.958661083028468|-2.651149897297126|-1.075938188524539|2.093970537185669|-2.157849073410034|2.251864194869995|-0.4008379876613617|0.4839774966239929|0.4292787313461304|XArbitraryZVertical|0.6221840883293571|-0.5677590465998995|0.4502164104981468|-0.2963811006540423|-0.2236888706684113|0.8800361156463623|0.4189267456531525|0|0|0|-1|-1|3
2021-02-25 22:37:03.350 +0000|165199.4240087917|0.2525634765625|0.464691162109375|0.3416595458984375|165199.4040457917|1.894114315104829|-2.753171838024799|-1.127000772330857|1.355950593948364|-2.292750120162964|2.474721193313599|-0.1331315934658051|0.2889947295188904|0.4610434174537659|XArbitraryZVertical|0.6130932094625039|-0.568163193616714|0.4385490004098739|-0.330124087276874|-0.1626141220331192|0.903128445148468|0.3973853886127472|0|0|0|-1|-1|3
2021-02-25 22:37:03.370 +0000|165199.4439717917|0.52838134765625|0.412689208984375|0.2579345703125|165199.4240087917|1.806479071156792|-2.875586794082964|-1.163894800304945|0.9973832368850708|-1.877989172935486|2.123183012008667|0.1585889756679535|-0.1498733758926392|0.06368055939674377|XArbitraryZVertical|0.6051470923113162|-0.5698418199014096|0.424268722160775|-0.359267509386325|-0.1040386632084846|0.9183514714241028|0.3818454146385193|0|0|0|-1|-1|3
2021-02-25 22:37:03.390 +0000|165199.4639347917|0.296295166015625|0.75311279296875|0.2733612060546875|165199.4439717917|1.720478781999298|-2.990587385460952|-1.18782073836366|0.7965413928031921|-1.809286713600159|1.602126121520996|0.492248922586441|-0.6092587113380432|-0.05068844556808472|XArbitraryZVertical|0.5988755890544908|-0.5710189080944658|0.4113520471718825|-0.3821972660291674|-0.05621366947889328|0.9275568127632141|0.3694291412830353|0|0|0|-1|-1|3
2021-02-25 22:37:03.411 +0000|165199.4838977917|0.0045928955078125|0.5601806640625|0.3110504150390625|165199.4639347917|1.650747824357835|-3.092408073609509|-1.211431291858064|1.354483485221863|-1.805158734321594|1.163670301437378|0.483476847410202|-0.2930234670639038|-0.07081317901611328|XArbitraryZVertical|0.5943977290607225|-0.5677309975246454|0.4009177278186132|-0.4045216277208218|-0.01729024015367031|0.936120331287384|0.3512542843818665|0|0|0|-1|-1|3
2021-02-25 22:37:03.430 +0000|165199.5038597917|0.023193359375|0.231475830078125|0.151275634765625|165199.4838977917|1.598417990860816|3.110267364263013|-1.242062102035649|1.50521194934845|-1.252676963806152|0.6058348417282104|0.1137441098690033|-0.2572429180145264|-0.04100942611694336|XArbitraryZVertical|0.5892451952665911|-0.560476040364852|0.3965454471044672|-0.4259205770274904|0.0101115582510829|0.946451723575592|0.3226865828037262|0|0|0|-1|-1|3
2021-02-25 22:37:03.450 +0000|165199.5238227917|-0.0677947998046875|0.229400634765625|0.1534576416015625|165199.5038597917|1.573285085408451|3.066186613208148|-1.268739328525492|1.136439085006714|-0.8615174889564514|0.0368657298386097|-0.01769578643143177|-0.5977779626846313|-0.1315690577030182|XArbitraryZVertical|0.5856161437140303|-0.5526056244301837|0.3967668267684294|-0.440745554313496|0.02241082675755024|0.9547265768051147|0.2966384887695312|0|0|0|-1|-1|3
2021-02-25 22:37:03.470 +0000|165199.5437857917|-0.1812744140625|0.3180389404296875|0.183258056640625|165199.5238227917|1.58998965394167|3.066147613774857|-1.283032794188157|0.3355806767940521|-0.7150807976722717|-0.6191200017929077|-0.0301195103675127|-0.7082098126411438|-0.08936646580696106|XArbitraryZVertical|0.5873343125977815|-0.5445535143613555|0.3971924541442413|-0.4480377669836194|0.02139156684279442|0.9588810205459595|0.283000260591507|0|0|0|-1|-1|3
2021-02-25 22:37:03.490 +0000|165199.5637487917|-0.31170654296875|0.5149078369140625|0.2296600341796875|165199.5437857917|1.652394496147778|3.114241443579279|-1.286390196920546|-0.07349997758865356|-0.4819117784500122|-1.140345811843872|-0.1350842416286469|-0.7258960008621216|-0.135600209236145|XArbitraryZVertical|0.5939258294400693|-0.5361839799037502|0.3983555127886076|-0.4484101713558432|0.007673443760722876|0.9598284363746643|0.280482292175293|0|0|0|-1|-1|3
2021-02-25 22:37:03.510 +0000|165199.5837117917|-0.4869842529296875|0.741241455078125|0.3019866943359375|165199.5637487917|1.748626625090409|-3.085010746697098|-1.281926636530136|-0.3679249584674835|-0.3730249404907227|-1.56694483757019|-0.2241702675819397|-0.545343279838562|-0.08169984817504883|XArbitraryZVertical|0.6037512842213151|-0.5269636955692386|0.4008493932451674|-0.4439744781087014|-0.01610980927944183|0.9585664868354797|0.2844127118587494|0|0|0|-1|-1|3
2021-02-25 22:37:03.530 +0000|165199.6036747917|-0.58172607421875|0.9258575439453125|0.254791259765625|165199.5837117917|1.859027817099747|-2.985359287775048|-1.267108459635705|-0.7748482227325439|-0.1974937468767166|-1.765843749046326|-0.3533718883991241|-0.3354505896568298|-0.03306984901428223|XArbitraryZVertical|0.6162072087179806|-0.5176756818602285|0.403473616748494|-0.435326939510042|-0.04653036221861839|0.9542401432991028|0.2953988611698151|0|0|0|-1|-1|3
2021-02-25 22:37:03.550 +0000|165199.6236377917|-0.551361083984375|0.9866790771484375|0.1656036376953125|165199.6036747917|1.963637370569351|-2.888752986087817|-1.245478453464824|-0.6728482246398926|-0.1026510745286942|-1.837101340293884|-0.4733927249908447|-0.1273585557937622|-0.03138786554336548|XArbitraryZVertical|0.6291791496971739|-0.5087808719477652|0.4065825350836655|-0.4242244403777718|-0.07995194941759109|0.9475491642951965|0.3094487488269806|0|0|0|-1|-1|3
2021-02-25 22:37:03.570 +0000|165199.6435997917|-0.43658447265625|0.8609466552734375|0.055511474609375|165199.6236377917|2.06017136768122|-2.799081488284302|-1.224549739082829|-0.3519975244998932|-0.08514057844877243|-1.791935563087463|-0.4654283225536346|0.04184496402740479|-0.1186680793762207|XArbitraryZVertical|0.6409201811746118|-0.4990487653599086|0.4110787222896618|-0.4137461166118048|-0.1139783188700676|0.9406531453132629|0.3196566998958588|0|0|0|-1|-1|3
2021-02-25 22:37:03.590 +0000|165199.6635627917|-0.3134613037109375|0.552032470703125|0.0271453857421875|165199.6435997917|2.146414117224897|-2.720620967135309|-1.209045454906674|-0.1312854886054993|-0.169704794883728|-1.520883202552795|-0.3521093726158142|0.003609776496887207|-0.2013848125934601|XArbitraryZVertical|0.650361980254325|-0.4884010073604433|0.4163601653492478|-0.4063715054896941|-0.1446251422166824|0.935278594493866|0.323012501001358|0|0|0|-1|-1|3
2021-02-25 22:37:03.610 +0000|165199.6835257917|-0.2666015625|1.180206298828125|0.02972412109375|165199.6635627917|2.198166499134695|-2.67897087731343|-1.184439534332202|-1.388672947883606|-0.5371150970458984|-1.23556125164032|-0.2074996680021286|-0.188342273235321|-0.3403967916965485|XArbitraryZVertical|0.6612568247522385|-0.4809815633692617|0.4163393076845853|-0.3975648659287375|-0.1681716740131378|0.9262880086898804|0.337207704782486|0|0|0|-1|-1|3
2021-02-25 22:37:03.630 +0000|165199.7034887917|-0.0684814453125|1.895462036132812|0.3467559814453125|165199.6835257917|2.206728330028621|-2.68518085515915|-1.139792971449486|-2.149010896682739|-0.8315181732177734|-1.049823522567749|-0.1112350523471832|-0.216072678565979|-0.3472167253494263|XArbitraryZVertical|0.6771512518391124|-0.4785135484333344|0.4068567730222816|-0.3833516255955714|-0.1841292530298233|0.908547043800354|0.3750180602073669|0|0|0|-1|-1|3
2021-02-25 22:37:03.650 +0000|165199.7234517917|0.0300445556640625|2.183761596679688|0.4492340087890625|165199.7034887917|2.206207954864933|-2.70373596898933|-1.103717490197418|-1.092248320579529|-1.004943609237671|-0.4149194061756134|0.00860634446144104|0.6783252954483032|-0.2216442823410034|XArbitraryZVertical|0.690628485974661|-0.4763748278935893|0.3957963782823322|-0.3734226031071899|-0.1909182518720627|0.8928874135017395|0.4078013598918915|0|0|0|-1|-1|3
2021-02-25 22:37:03.670 +0000|165199.7434147917|0.1826629638671875|2.024795532226562|0.53033447265625|165199.7234517917|2.198946613620644|-2.731223097536272|-1.092127178846478|-0.2267015278339386|-1.03688907623291|0.2388018667697906|0.1757591515779495|1.253870487213135|-0.01085695624351501|XArbitraryZVertical|0.6973824164032134|-0.474168359166304|0.3859956826648611|-0.3739374592737658|-0.1837545782327652|0.8876087069511414|0.4223557412624359|0|0|0|-1|-1|3
2021-02-25 22:37:03.690 +0000|165199.7633777917|0.2448272705078125|1.749343872070312|0.4789886474609375|165199.7434147917|2.171500262409569|-2.774910290675179|-1.092121892465689|-0.3701308965682983|-0.9334695935249329|0.9227107167243958|0.2731525897979736|1.200406432151794|0.06775867938995361|XArbitraryZVertical|0.699188650750206|-0.475527792931387|0.3759082107810223|-0.3790798504372072|-0.1651355028152466|0.8876062631607056|0.4299829006195068|0|0|0|-1|-1|3
2021-02-25 22:37:03.709 +0000|165199.7833407917|0.3492584228515625|1.525436401367188|0.3360748291015625|165199.7633777917|2.112653679833234|-2.84530573962834|-1.088754395407875|-0.8353573679924011|-0.9062599539756775|1.56159496307373|0.3458496928215027|1.019574165344238|0.0684666633605957|XArbitraryZVertical|0.6989437361980879|-0.4828791831921667|0.3619677650080898|-0.3837767817960991|-0.1353545635938644|0.8860501646995544|0.4433892965316772|0|0|0|-1|-1|3
2021-02-25 22:37:03.729 +0000|165199.8033027917|0.3321380615234375|1.395339965820312|0.3000030517578125|165199.7833407917|2.025787610579425|-2.939965141846347|-1.077150679565728|-1.168115735054016|-0.9265131950378418|2.034458637237549|0.4074083268642426|0.7537270188331604|-0.03208079934120178|XArbitraryZVertical|0.6972463136316162|-0.4959511953028941|0.3434573417161626|-0.3871910787813387|-0.09489297121763229|0.8806112408638|0.4642400145530701|0|0|0|-1|-1|3
2021-02-25 22:37:03.749 +0000|165199.8232657917|0.2566986083984375|1.087493896484375|0.2527313232421875|165199.8033027917|1.929196427666138|-3.043828161208174|-1.066406812237566|-0.5210367441177368|-0.9594197273254395|2.357003688812256|0.4107124507427216|0.6129793524742126|-0.1693502962589264|XArbitraryZVertical|0.6927416050773737|-0.5104817558187311|0.3238355077197245|-0.3932530019663513|-0.0471716932952404|0.8754696846008301|0.4809651076793671|0|0|0|-1|-1|3
2021-02-25 22:37:03.769 +0000|165199.8432287917|0.2555389404296875|0.8418426513671875|0.257110595703125|165199.8232657917|1.82737452532492|3.132501346005774|-1.064546295616509|0.1090799048542976|-0.8066452145576477|2.509037733078003|0.2886368036270142|0.3407323956489563|-0.2144798338413239|XArbitraryZVertical|0.6836277665453903|-0.5244934703408135|0.306888024293937|-0.4042020480616804|0.004408320412039757|0.8745689988136292|0.484880656003952|0|0|0|-1|-1|3
2021-02-25 22:37:03.789 +0000|165199.8631917917|0.281341552734375|0.718994140625|0.2028656005859375|165199.8432287917|1.722506526704332|3.025504378183554|-1.06970317399569|0.676918089389801|-0.7428602576255798|2.492873668670654|0.1932748854160309|0.07126057147979736|-0.2210935950279236|XArbitraryZVertical|0.6708732612964389|-0.5371262839418084|0.2936478504935423|-0.4185634062577271|0.05564182996749878|0.8770579695701599|0.4771511554718018|0|0|0|-1|-1|3
2021-02-25 22:37:03.809 +0000|165199.8831547917|0.2319488525390625|0.6082763671875|0.070709228515625|165199.8631917917|1.615567506665309|2.91567084951647|-1.081390846873006|1.351762175559998|-0.8449345827102661|2.322505235671997|0.1762504130601883|-0.1192917823791504|-0.2292271256446838|XArbitraryZVertical|0.6558058278752824|-0.5468052278997324|0.2836171458254815|-0.4364445989579267|0.1053048223257065|0.8826125264167786|0.4581544697284698|0|0|0|-1|-1|3
2021-02-25 22:37:03.830 +0000|165199.9031177917|0.24273681640625|0.399810791015625|0.0063018798828125|165199.8831547917|1.502660764056762|2.79826370316917|-1.104465351615043|2.327893972396851|-0.8993097543716431|2.000298261642456|0.09254668653011322|-0.2243093252182007|-0.2716386914253235|XArbitraryZVertical|0.6380898383547138|-0.5518399416212509|0.2784527479525287|-0.4591056015137173|0.1513498723506927|0.8932239413261414|0.4233719408512115|0|0|0|-1|-1|3
2021-02-25 22:37:03.849 +0000|165199.9230807917|0.172760009765625|0.26800537109375|-0.0487518310546875|165199.9031177917|1.372991055017396|2.662445324889048|-1.142285638747232|3.395011901855469|-0.9424536824226379|1.612650871276855|0.06286251544952393|-0.4098755121231079|-0.3496818244457245|XArbitraryZVertical|0.6172201923859199|-0.5508190327646437|0.2796623012497974|-0.487264482690505|0.1915626674890518|0.9095855951309204|0.3687247335910797|0|0|0|-1|-1|3
2021-02-25 22:37:03.869 +0000|165199.9430427917|0.1215057373046875|0.3009490966796875|0.13604736328125|165199.9230807917|1.20602251102363|2.492774271269532|-1.193078745767575|4.407355785369873|-0.5716329216957092|1.199994802474976|-0.01260975003242493|-0.6229140758514404|-0.3139243125915527|XArbitraryZVertical|0.5921872990420585|-0.5442826747966014|0.2890186451902652|-0.5191711560715413|0.2228453904390335|0.9295088052749634|0.2938588559627533|0|0|0|-1|-1|3
2021-02-25 22:37:03.889 +0000|165199.9630057917|0.1224365234375|0.416778564453125|0.3715362548828125|165199.9430427917|0.9843064984962414|2.279716229266582|-1.244854204774339|4.189074993133545|0.1023775935173035|0.8754450082778931|-0.1185872703790665|-0.6504747271537781|-0.2115986794233322|XArbitraryZVertical|0.5634438116339108|-0.5354985093036698|0.3064717756142666|-0.5494062649217799|0.2430532276630402|0.947349488735199|0.2084551602602005|0|0|0|-1|-1|3
2021-02-25 22:37:03.909 +0000|165199.9829687917|0.0725250244140625|0.993194580078125|0.5320587158203125|165199.9630057917|0.7850863825568357|2.094651985808792|-1.273509914208634|2.047330856323242|0.2986530363559723|0.2416352033615112|-0.1264927983283997|-0.6771889328956604|0.0900435596704483|XArbitraryZVertical|0.5410068785657141|-0.5296940842151557|0.3220466298633227|-0.5683499838209224|0.2536443769931793|0.9561349153518677|0.1465285271406174|0|0|0|-1|-1|3
2021-02-25 22:37:03.929 +0000|165200.0029317917|0.05010986328125|1.1805419921875|0.287445068359375|165199.9829687917|0.7545053413163395|2.069727694592738|-1.281266684257284|-0.7021909952163696|0.06941933184862137|-0.5103297233581543|-0.1455334424972534|-0.3203626275062561|0.3524200916290283|XArbitraryZVertical|0.5376703691674797|-0.528407957101702|0.3269570931893968|-0.5699075540244987|0.2506970763206482|0.9583782553672791|0.1366087943315506|0|0|0|-1|-1|3
2021-02-25 22:37:03.949 +0000|165200.022895375|0.084625244140625|1.350997924804688|0.0960693359375|165200.0029317917|0.8473090854073047|2.156344384986429|-1.282858125581536|-1.254799485206604|-0.2093185633420944|-0.8977417945861816|-0.1565290987491608|0.2091374397277832|0.2531234622001648|XArbitraryZVertical|0.5481821436532522|-0.5272257018115347|0.3248074936314052|-0.5621650612494365|0.2366684079170227|0.9588314294815063|0.1569412052631378|0|0|0|-1|-1|3
2021-02-25 22:37:03.969 +0000|165200.042858375|0.1221771240234375|1.102737426757812|0.197265625|165200.022895375|0.9374895303542943|2.236543214572497|-1.287971624148085|-0.5474281311035156|-0.4954892098903656|-0.9443346858024597|-0.1612324118614197|0.2270305156707764|-0.05578887462615967|XArbitraryZVertical|0.5591140200688025|-0.5230434714709163|0.3237485634168999|-0.5558811042263798|0.2194752395153046|0.9602710008621216|0.1723659187555313|0|0|0|-1|-1|3
2021-02-25 22:37:03.989 +0000|165200.062821375|0.2465667724609375|0.9113006591796875|0.4869537353515625|165200.042858375|0.974202400896627|2.256803487703316|-1.296075216943196|0.1834046095609665|-0.8941150307655334|-0.2306096404790878|-0.09461447596549988|0.4515157341957092|-0.08242547512054443|XArbitraryZVertical|0.5656078442432212|-0.5157602963839502|0.3223071688419943|-0.5569533878635817|0.2099099606275558|0.9625008702278137|0.1718418300151825|0|0|0|-1|-1|3
2021-02-25 22:37:04.009 +0000|165200.082783375|0.0458221435546875|1.147903442382812|0.2784271240234375|165200.062821375|0.9729136808333944|2.236515798176428|-1.289154644569883|-0.797285258769989|-1.227305054664612|0.7358962893486023|-0.03496217727661133|-0.208906888961792|0.1676512956619263|XArbitraryZVertical|0.5683277497897274|-0.5126721082136307|0.3142932642781399|-0.561596433330278|0.2185864895582199|0.9606004357337952|0.1716582477092743|0|0|0|-1|-1|3
2021-02-25 22:37:04.029 +0000|165200.102746375|0.4402923583984375|0.0916900634765625|-0.109619140625|165200.082783375|0.9883899448586201|2.233681504566144|-1.276402696053993|-0.01598305627703667|-0.4670233428478241|0.004754932131618261|-0.1846421957015991|0.257209300994873|0.2095600366592407|XArbitraryZVertical|0.572370356978536|-0.5115401841930037|0.3042912583233188|-0.5640262826186238|0.2287096232175827|0.9569782614707947|0.1785623729228973|0|0|0|-1|-1|3
2021-02-25 22:37:04.049 +0000|165200.122709375|0.13946533203125|1.16827392578125|-0.356964111328125|165200.102746375|0.9273294296882935|2.162695587499885|-1.290248807634503|2.340789794921875|-1.098208785057068|0.2311577945947647|0.1040523052215576|-0.515454113483429|-0.01716934144496918|XArbitraryZVertical|0.5682385151921291|-0.5043277887735675|0.3066662509778935|-0.5733361452450673|0.2297795563936234|0.9609040021896362|0.1544830501079559|0|0|0|-1|-1|3
2021-02-25 22:37:04.069 +0000|165200.142672375|0.2634124755859375|0.9252777099609375|-0.55609130859375|165200.122709375|0.6666634206506187|1.884339162558201|-1.307167103206175|4.521848201751709|-1.299594044685364|1.013124585151672|0.03255993127822876|-0.2311062812805176|-0.3242082595825195|XArbitraryZVertical|0.5479703234791355|-0.4898110353149154|0.3119818983707019|-0.602063863265035|0.2478813976049423|0.9654505848884583|0.080372653901577|0|0|0|-1|-1|3
2021-02-25 22:37:04.090 +0000|165200.162635375|0.3234405517578125|0.9254608154296875|-0.2816925048828125|165200.142672375|0.2545634371724136|1.46461634782895|-1.297439911334918|5.915216445922852|-0.8731452822685242|1.0141441822052|-0.06650936603546143|0.1015065908432007|-0.4852135181427002|XArbitraryZVertical|0.5132730178336103|-0.4714290033859702|0.3254512392453998|-0.6390516141625843|0.2684442400932312|0.962870180606842|-0.02861100807785988|0|0|0|-1|-1|3
2021-02-25 22:37:04.109 +0000|165200.182598375|0.337738037109375|0.9884033203125|0.133514404296875|165200.162635375|-0.09042202375098199|1.124860215388348|-1.247085938539677|4.743855953216553|-0.03728746622800827|1.042850375175476|0.02017998695373535|-0.01761150360107422|-0.3158880472183228|XArbitraryZVertical|0.4739001470598875|-0.4547779708699555|0.3420897177132147|-0.6719896493388713|0.2869794368743896|0.9480617046356201|-0.1371912956237793|0|0|0|-1|-1|3
2021-02-25 22:37:04.129 +0000|165200.202561375|0.359344482421875|1.278640747070312|0.3810272216796875|165200.182598375|-0.2225266199876856|1.007579826924246|-1.198642720524861|1.556080460548401|0.5659723281860352|0.9327543377876282|0.01795122027397156|-0.01135009527206421|0.09746119379997253|XArbitraryZVertical|0.446686037505145|-0.4510001353923809|0.3509180321713291|-0.6884234061400962|0.3074577152729034|0.9315463900566101|-0.1941409260034561|0|0|0|-1|-1|3
2021-02-25 22:37:04.149 +0000|165200.222523375|0.2146148681640625|1.075210571289062|-0.0489501953125|165200.202561375|-0.2243638324647546|1.007596795664441|-1.180746722923092|-0.4134706854820251|-0.4643275141716003|0.6040424108505249|0.04757228493690491|0.2153226137161255|0.4551867544651031|XArbitraryZVertical|0.4395481334315178|-0.4530949647857908|0.3484903390221493|-0.6928612793461728|0.3215073645114899|0.9248902201652527|-0.203004777431488|0|0|0|-1|-1|3
2021-02-25 22:37:04.169 +0000|165200.242486375|0.2965545654296875|1.153289794921875|-0.1466522216796875|165200.222523375|-0.1683390804304813|1.047136639315609|-1.18481158089826|-1.340485811233521|-0.8632427453994751|0.1129749640822411|-0.07173457741737366|0.3304839134216309|0.4590989351272583|XArbitraryZVertical|0.4469787979624342|-0.4539627493772798|0.3385779947739765|-0.692454050498516|0.3260223269462585|0.9264281392097473|-0.1882555484771729|0|0|0|-1|-1|3
2021-02-25 22:37:04.189 +0000|165200.262449375|0.2499237060546875|1.063552856445312|-0.1419677734375|165200.242486375|-0.06086298782780211|1.123274324763137|-1.204156550882888|-3.286824703216553|-1.479913592338562|0.02108632400631905|-0.0925869345664978|0.08578020334243774|0.06560267508029938|XArbitraryZVertical|0.4657783131258412|-0.4533072906154542|0.3227109210459967|-0.6880556093968221|0.3231777548789978|0.9335371851921082|-0.1551261246204376|0|0|0|-1|-1|3
2021-02-25 22:37:04.209 +0000|165200.282412375|0.1306610107421875|0.567596435546875|0.4022979736328125|165200.262449375|0.1324565842115016|1.272766400553507|-1.231733832179579|-3.583491802215576|-1.617328405380249|0.008980214595794678|-0.01490092277526855|0.176027774810791|-0.1820595860481262|XArbitraryZVertical|0.4956740610616169|-0.4532934047795883|0.2991029354664456|-0.6777680878565343|0.3179404735565186|0.9430668950080872|-0.09766463190317154|0|0|0|-1|-1|3
2021-02-25 22:37:04.229 +0000|165200.302375375|0.17596435546875|1.325286865234375|0.0673370361328125|165200.282412375|0.3089621843281627|1.418997094739513|-1.241414614999296|-1.908926486968994|-0.4884725511074066|0.3348029851913452|-0.1774500906467438|-0.1003411412239075|0.2933579683303833|XArbitraryZVertical|0.5175465430374728|-0.4557295453942542|0.2794181672955269|-0.668117964714219|0.3197383880615234|0.9462425112724304|-0.04891231283545494|0|0|0|-1|-1|3
2021-02-25 22:37:04.249 +0000|165200.322338375|0.0025482177734375|0.393035888671875|0.0399017333984375|165200.302375375|0.3879521833270102|1.484625847990132|-1.226702066703428|-0.8217839002609253|-0.4229497313499451|1.286364197731018|-0.09391993284225464|-0.1828671097755432|0.3538773655891418|XArbitraryZVertical|0.5227708879005604|-0.4606452392710598|0.2656564552701192|-0.6662905663833504|0.3360922336578369|0.9413813948631287|-0.0290331244468689|0|0|0|-1|-1|3
2021-02-25 22:37:04.269 +0000|165200.342301375|0.310272216796875|0.035980224609375|-0.4109649658203125|165200.322338375|0.3985741857194799|1.494253491334254|-1.209390897703086|0.3752623796463013|0.4439774751663208|0.5298737287521362|-0.4010309875011444|0.3458186388015747|-0.003525141626596451|XArbitraryZVertical|0.5195029259636426|-0.4654004314278408|0.2591912664591411|-0.6680860818317237|0.3525538444519043|0.9354007840156555|-0.02703829668462276|0|0|0|-1|-1|3
2021-02-25 22:37:04.289 +0000|165200.362264375|0.133758544921875|0.9351806640625|-0.4994049072265625|165200.342301375|0.3863074258149281|1.485329566269686|-1.19685089483524|0.4474965333938599|-0.1971199512481689|0.6559140682220459|-0.08102932572364807|-1.262115955352783|-0.1659919023513794|XArbitraryZVertical|0.5145316390936928|-0.4686854606586937|0.2570435371513721|-0.6704623914924501|0.3639578819274902|0.9308933615684509|-0.03118226304650307|0|0|0|-1|-1|3
2021-02-25 22:37:04.309 +0000|165200.382226375|0.1659393310546875|0.8254241943359375|-0.367950439453125|165200.362264375|0.3192746723822227|1.420347573086141|-1.177826197200463|2.095084428787231|0.07747964560985565|0.8960546851158142|-0.1773598492145538|-0.2270596027374268|-0.5364010334014893|XArbitraryZVertical|0.5019981191421005|-0.4682952986357845|0.2573074366173205|-0.6800663401480518|0.3786080479621887|0.9237757921218872|-0.05739480257034302|0|0|0|-1|-1|3
2021-02-25 22:37:04.329 +0000|165200.402189375|0.086273193359375|0.9884185791015625|-0.2465362548828125|165200.382226375|0.2131057636761794|1.328235810674484|-1.152771069718262|2.417135953903198|0.4312392771244049|0.7027608156204224|-0.2417744398117065|-0.07519316673278809|-0.3133672475814819|XArbitraryZVertical|0.4816904747873343|-0.468210596600243|0.2637947743049924|-0.6922177197848223|0.3940724730491638|0.913892388343811|-0.09750624746084213|0|0|0|-1|-1|3
2021-02-25 22:37:04.349 +0000|165200.422152375|0.0679473876953125|0.7752532958984375|-0.0284576416015625|165200.402189375|0.1087675130261176|1.246498007805736|-1.128883567853523|2.319170713424683|0.9051109552383423|0.3724060654640198|-0.2748528718948364|0.02796459197998047|-0.195635199546814|XArbitraryZVertical|0.4605309368340489|-0.4688008383762745|0.2744819395596568|-0.7019947093990425|0.4053765535354614|0.9039353132247925|-0.136274054646492|0|0|0|-1|-1|3
2021-02-25 22:37:04.369 +0000|165200.442115375|0.105804443359375|0.7687835693359375|0.1230316162109375|165200.422152375|0.0294844073960901|1.196373881305263|-1.111972952819467|1.34716796875|1.147740125656128|0.0335601270198822|-0.3422476351261139|-0.01698148250579834|0.05640596151351929|XArbitraryZVertical|0.4431403396347195|-0.4718430149173861|0.2868382716080674|-0.7061972385647766|0.4122092425823212|0.8965742588043213|-0.161981612443924|0|0|0|-1|-1|3
2021-02-25 22:37:04.389 +0000|165200.462078375|0.0007476806640625|0.9124603271484375|0.1119537353515625|165200.442115375|0.01382336447018009|1.204051629919518|-1.111569023933585|-0.7715109586715698|0.9538248777389526|-0.2483740746974945|-0.3262543976306915|-0.1668878793716431|0.208197221159935|XArbitraryZVertical|0.4381654588745294|-0.4780586377630694|0.2939462553998115|-0.7021869959136483|0.4137789309024811|0.8963952660560608|-0.1589419394731522|0|0|0|-1|-1|3
2021-02-25 22:37:04.409 +0000|165200.482041375|-0.0542144775390625|0.9363555908203125|0.0982208251953125|165200.462078375|0.08245726691166763|1.27963627561507|-1.130790734066689|-2.432883024215698|0.3539174199104309|-0.6426842212677002|-0.3339816331863403|-0.06841504573822021|0.2743422985076904|XArbitraryZVertical|0.4501943969751847|-0.4859921550793274|0.2916783677791249|-0.689971363617839|0.4080173969268799|0.9047492742538452|-0.1222732588648796|0|0|0|-1|-1|3
2021-02-25 22:37:04.429 +0000|165200.502004375|-0.0168304443359375|0.9672088623046875|0.217864990234375|165200.482041375|0.1952674008702761|1.382509829982018|-1.159613594763226|-2.723570823669434|-0.2738160192966461|-1.035510420799255|-0.441610187292099|0.02472686767578125|0.1367177963256836|XArbitraryZVertical|0.472075439958538|-0.4896307464106167|0.2847734006184736|-0.6755076138861447|0.3926295340061188|0.9166487455368042|-0.07481302320957184|0|0|0|-1|-1|3
2021-02-25 22:37:04.448 +0000|165200.521966375|0.0045166015625|0.85357666015625|0.2806549072265625|165200.502004375|0.3500050116160658|1.518299450647551|-1.190326721344539|-3.644282102584839|-0.4144232571125031|-1.329002976417542|-0.4114941656589508|0.02339863777160645|0.2031712532043457|XArbitraryZVertical|0.4997266356216652|-0.4904388244893747|0.2754134170253575|-0.6587036141288873|0.3708448112010956|0.9284903407096863|-0.01948609761893749|0|0|0|-1|-1|3
2021-02-25 22:37:04.468 +0000|165200.541929375|0.00201416015625|0.811553955078125|0.3544921875|165200.521966375|0.5787608501037481|1.723626162671612|-1.217075441740389|-4.32565450668335|-0.3492302894592285|-1.716148853302002|-0.3403694033622742|-0.01943504810333252|0.1845563650131226|XArbitraryZVertical|0.5344284060905405|-0.4906656301126029|0.2634338344155781|-0.635795613793617|0.3423530757427216|0.9380903244018555|0.05273296311497688|0|0|0|-1|-1|3
2021-02-25 22:37:04.489 +0000|165200.561892375|0.03131103515625|1.052413940429688|0.39154052734375|165200.541929375|0.8579453461433998|1.983634117152815|-1.229171948234427|-4.317602157592773|0.03626755252480507|-2.07970118522644|-0.3231526911258698|-0.1354033350944519|0.1896228790283203|XArbitraryZVertical|0.5713633176980566|-0.4906630841267272|0.252970846660642|-0.6072885496638341|0.306871622800827|0.9422116875648499|0.1344126015901566|0|0|0|-1|-1|3
2021-02-25 22:37:04.508 +0000|165200.581855375|0.016326904296875|1.043319702148438|0.3174896240234375|165200.561892375|1.120271060626877|2.234456360773705|-1.227700281276183|-3.03732967376709|0.3648988008499146|-2.257428407669067|-0.2288517355918884|-0.02068203687667847|0.1901277154684067|XArbitraryZVertical|0.6042188333742858|-0.4883981297396144|0.2483504829853386|-0.5785402540778173|0.2649998664855957|0.9417176842689514|0.2072262614965439|0|0|0|-1|-1|3
2021-02-25 22:37:04.528 +0000|165200.601818375|0.1009063720703125|1.033065795898438|0.2733306884765625|165200.581855375|1.292331162348858|2.408085150034695|-1.235630823848349|-0.7471720576286316|0.8058627247810364|-2.17504620552063|-0.2118620574474335|0.1460371017456055|0.09562981128692627|XArbitraryZVertical|0.6240199583853923|-0.4824593465754647|0.2557177074653185|-0.5589637630615959|0.2202086746692657|0.9443559050559998|0.2443358600139618|0|0|0|-1|-1|3
2021-02-25 22:37:04.548 +0000|165200.621781375|-0.0920867919921875|0.5337066650390625|0.384368896484375|165200.601818375|1.415967475802447|2.544688170759955|-1.25266118612286|-1.034746289253235|1.040451884269714|-2.025663614273071|-0.1040248870849609|0.09162235260009766|0.01608872413635254|XArbitraryZVertical|0.6345114406460853|-0.4761811923259541|0.2706972172059368|-0.5453160478462414|0.175817534327507|0.9498203992843628|0.2587065994739532|0|0|0|-1|-1|3
2021-02-25 22:37:04.568 +0000|165200.641744375|-0.01416015625|0.7222442626953125|0.588348388671875|165200.621781375|1.605118069327898|2.748549169152812|-1.243257564536532|-2.112477540969849|1.446701049804688|-2.864615440368652|-0.1664754897356033|-0.08512741327285767|0.01383736729621887|XArbitraryZVertical|0.6523700653133454|-0.4722335524526033|0.2827244305776026|-0.5210333336491229|0.1232169345021248|0.9468370079994202|0.2971824705600739|0|0|0|-1|-1|3
2021-02-25 22:37:04.588 +0000|165200.661706375|-0.19989013671875|1.054336547851562|0.6381072998046875|165200.641744375|1.798783615320921|2.957310345960202|-1.227690856793222|-1.074452757835388|1.161553144454956|-2.733885765075684|-0.0176381841301918|-0.5161775350570679|0.1817497909069061|XArbitraryZVertical|0.6702682040759047|-0.4648642285926282|0.297922954276253|-0.4958664564557133|0.06164458766579628|0.9417144656181335|0.3307164311408997|0|0|0|-1|-1|3
2021-02-25 22:37:04.608 +0000|165200.681669375|-0.1735687255859375|0.8907012939453125|0.6009368896484375|165200.661706375|1.95475165158609|3.128277148258714|-1.222687379669137|-0.1064740121364594|1.304496765136719|-2.525728225708008|-0.1581674516201019|0.05767643451690674|0.3023114204406738|XArbitraryZVertical|0.6809981410733293|-0.4547381434186188|0.3164361955610615|-0.4788766776378843|0.004542060662060976|0.9400194883346558|0.3410905003547668|0|0|0|-1|-1|3
2021-02-25 22:37:04.628 +0000|165200.701632375|-0.161163330078125|1.235748291015625|0.7512969970703125|165200.681669375|2.100738090867784|-2.992623407845468|-1.219214637488246|-0.01052291132509708|1.171438455581665|-2.388890981674194|-0.1297951489686966|0.00996243953704834|0.2435067594051361|XArbitraryZVertical|0.6881689451289095|-0.4435178264546767|0.3368433885253203|-0.4650290380773744|-0.05111298337578773|0.9388291835784912|0.3405691087245941|0|0|0|-1|-1|3
2021-02-25 22:37:04.648 +0000|165200.721595375|-0.12908935546875|1.456893920898438|0.8189697265625|165200.701632375|2.223120479811616|-2.854496259682298|-1.204784222938493|-0.4776495397090912|1.212568640708923|-2.152704000473022|-0.07890747487545013|0.1382747888565063|0.350174218416214|XArbitraryZVertical|0.6950841508405928|-0.4341440344391962|0.3542390429653638|-0.4504350140462232|-0.1013445407152176|0.9337620139122009|0.3432460427284241|0|0|0|-1|-1|3
2021-02-25 22:37:04.668 +0000|165200.741558375|-0.0348358154296875|1.437088012695312|0.7482147216796875|165200.721595375|2.315680208316935|-2.74307063091357|-1.179998730248215|-0.5966331958770752|1.305482745170593|-1.882524251937866|-0.0005709230899810791|0.4134070873260498|0.4610742330551147|XArbitraryZVertical|0.7018344351007418|-0.4277449757281065|0.3695140355704566|-0.4334996645522221|-0.1478207409381866|0.9246055483818054|0.3510746657848358|0|0|0|-1|-1|3
2021-02-25 22:37:04.688 +0000|165200.761521375|-0.005767822265625|1.164306640625|0.6746826171875|165200.741558375|2.383190777454507|-2.65529281504389|-1.156690206781809|-0.5044594407081604|1.246225476264954|-1.512480616569519|0.1092703193426132|0.5593158602714539|0.4191328585147858|XArbitraryZVertical|0.7062814980157565|-0.4231172250885843|0.3836851543222754|-0.4182388780594595|-0.1880512982606888|0.915476381778717|0.3557234704494476|0|0|0|-1|-1|3
2021-02-25 22:37:04.708 +0000|165200.781484375|0.0578460693359375|1.041213989257812|0.657012939453125|165200.761521375|2.423356650785235|-2.594429899213726|-1.129981865530308|-1.063745021820068|1.181108832359314|-1.262630939483643|0.1935886442661285|0.4118796586990356|0.3379940986633301|XArbitraryZVertical|0.7104676990370541|-0.4212210204776938|0.394806607123613|-0.4024129238161525|-0.2219851166009903|0.9044044613838196|0.3643830120563507|0|0|0|-1|-1|3
2021-02-25 22:37:04.728 +0000|165200.801447375|0.0064849853515625|1.055770874023438|0.61712646484375|165200.781484375|2.434096709039732|-2.562093173248153|-1.09486651576162|-1.622894048690796|1.081118106842041|-1.010081648826599|0.2844173610210419|0.1893342733383179|0.2703836560249329|XArbitraryZVertical|0.7160874509484491|-0.4229665251817987|0.4016462397775052|-0.3834037794005737|-0.2508937418460846|0.8888670802116394|0.3833638429641724|0|0|0|-1|-1|3
2021-02-25 22:37:04.748 +0000|165200.821409375|0.0439910888671875|1.076065063476562|0.55938720703125|165200.801447375|2.429719317985199|-2.545002385467428|-1.059244640547067|-1.295255064964294|1.019888162612915|-0.7710404992103577|0.3080505430698395|0.1443559527397156|0.2322856783866882|XArbitraryZVertical|0.7214442619774445|-0.4266165043676933|0.4060043527331806|-0.3642482667198919|-0.2750303745269775|0.8719859719276428|0.4049669206142426|0|0|0|-1|-1|3
2021-02-25 22:37:04.768 +0000|165200.841372375|0.0391387939453125|0.8474578857421875|0.649169921875|165200.821409375|2.431676587789878|-2.524747152770173|-1.039383749112402|-0.3164532780647278|0.7874557971954346|-0.4466627538204193|0.3175826966762543|0.2378530502319336|0.1570276618003845|XArbitraryZVertical|0.7230671670037901|-0.4287824348462383|0.4115073501003652|-0.352109652460354|-0.2931380271911621|0.8620920777320862|0.4133610129356384|0|0|0|-1|-1|3
2021-02-25 22:37:04.788 +0000|165200.861335375|0.0434417724609375|1.073394775390625|0.6876068115234375|165200.841372375|2.435641254752042|-2.509129981885382|-1.036338084586004|0.05646126344799995|0.4776766002178192|0.05113903060555458|0.3487460017204285|0.06737256050109863|0.1866399645805359|XArbitraryZVertical|0.721501507315186|-0.4299531014474555|0.4162344940590224|-0.3483167290541561|-0.3011079132556915|0.860544741153717|0.4108482003211975|0|0|0|-1|-1|3
2021-02-25 22:37:04.808 +0000|165200.881298375|0.085113525390625|1.088287353515625|0.7649993896484375|165200.861335375|2.431043971764048|-2.504759340421402|-1.040771074173089|0.2272324562072754|0.4006448686122894|0.3869779109954834|0.348633885383606|0.1203905940055847|0.2571621835231781|XArbitraryZVertical|0.7184093256205774|-0.4325701227476652|0.4189206504425216|-0.3482479778490107|-0.3006296753883362|0.8627942800521851|0.4064577519893646|0|0|0|-1|-1|3
2021-02-25 22:37:04.828 +0000|165200.901261375|0.122100830078125|1.118804931640625|0.62762451171875|165200.881298375|2.427176868865151|-2.49977204412454|-1.055693174189683|0.907278299331665|0.4186814427375793|0.6115763187408447|0.3492640256881714|0.1630681157112122|0.3451042771339417|XArbitraryZVertical|0.7124910194958036|-0.4354934189345084|0.4224211881575107|-0.3525087353721634|-0.2949121296405792|0.8702419400215149|0.3945959508419037|0|0|0|-1|-1|3
2021-02-25 22:37:04.848 +0000|165200.921224375|0.1747283935546875|1.208847045898438|0.5782318115234375|165200.901261375|2.439829981514887|-2.480651324298712|-1.086536641823407|1.840130209922791|0.3815056383609772|0.8094059824943542|0.3965940177440643|0.2404378652572632|0.3302698135375977|XArbitraryZVertical|0.7027124254800355|-0.4358354298237531|0.4289149137047031|-0.3636958716133845|-0.2857845723628998|0.885019838809967|0.3675145506858826|0|0|0|-1|-1|3
2021-02-25 22:37:04.868 +0000|165200.941187375|0.162872314453125|1.230194091796875|0.4368133544921875|165200.941187375|2.49317347590325|-2.416972640102552|-1.171769107906396|1.952231407165527|0.5166146159172058|0.94034743309021|0.4221743941307068|0.3118215799331665|0.2334162890911102|XArbitraryZVertical|0.6761089557779272|-0.4339697085849765|0.4446461489001469|-0.3960260051652424|-0.2575319111347198|0.9214393496513367|0.2909060418605804|0|0|0|-1|-1|3
2021-02-25 22:37:04.888 +0000|165200.961149375|0.172821044921875|1.256790161132812|0.3263397216796875||||||||||||||||||||||||3
2021-02-25 22:37:04.908 +0000|165200.981112375|0.1120452880859375|1.140670776367188|0.2379302978515625|165200.961149375|2.521927974923032|-2.378240825376387|-1.21111296477576|1.626750946044922|0.6899735927581787|0.9579797387123108|0.4328526854515076|0.3012198805809021|0.1257999837398529|XArbitraryZVertical|0.6620458581225552|-0.4345699608963438|0.4527282605716903|-0.4097330332324442|-0.243338406085968|0.9360083341598511|0.2543115317821503|0|0|0|-1|-1|3
2021-02-25 22:37:04.928 +0000|165201.001075375|0.121429443359375|0.9832916259765625|0.1309814453125|165200.981112375|2.534203191911738|-2.351247450138442|-1.243339453900159|0.8753220438957214|0.8529569506645203|1.023682475090027|0.3591992557048798|0.2773034572601318|0.0529935359954834|XArbitraryZVertical|0.6488760625858194|-0.4383051872087609|0.459362705693641|-0.4193260346113619|-0.228553369641304|0.9468633532524109|0.2263031601905823|0|0|0|-1|-1|3
2021-02-25 22:37:04.948 +0000|165201.02103875|0.0954437255859375|1.132186889648438|0.1197357177734375|165201.001075375|2.493493438858159|-2.371941065288052|-1.260082233598458|-0.6497007012367249|0.9160329103469849|1.044034481048584|0.3234458565711975|0.09782636165618896|-0.03643086552619934|XArbitraryZVertical|0.6395068644123021|-0.4481231120421146|0.4614142668048945|-0.4210859354329249|-0.2127584964036942|0.9521154761314392|0.2195667028427124|0|0|0|-1|-1|3
2021-02-25 22:37:04.968 +0000|165201.04100175|0.01934814453125|1.393234252929688|0.053009033203125|165201.02103875|2.382406484468247|-2.46031225618053|-1.251546265450725|-2.199923038482666|0.7734756469726562|0.9718039631843567|0.3162682056427002|0.05495387315750122|-0.1253528743982315|XArbitraryZVertical|0.6370491030117205|-0.4648270082058327|0.456073158517855|-0.412433524101392|-0.197661504149437|0.9494710564613342|0.2437914162874222|0|0|0|-1|-1|3
2021-02-25 22:37:04.988 +0000|165201.06096475|-0.0808868408203125|1.455490112304688|0.112060546875|165201.04100175|2.245924512755058|-2.577819761343579|-1.220182913239489|-2.797260761260986|0.3772113621234894|0.8685148954391479|0.2358369082212448|0.3448799848556519|-0.2299249470233917|XArbitraryZVertical|0.6406039340017741|-0.4845473729075348|0.4438035383600208|-0.3973395211504643|-0.1835449486970901|0.9391621947288513|0.2903191149234772|0|0|0|-1|-1|3
2021-02-25 22:37:05.007 +0000|165201.08092775|-0.1681976318359375|1.142608642578125|0.519927978515625|165201.06096475|2.127591942453508|-2.684166641836899|-1.181515810705618|-2.497731924057007|0.05385874211788177|1.018161058425903|0.1415658444166183|0.5359535217285156|-0.2834828794002533|XArbitraryZVertical|0.6458189567534556|-0.5031603439913162|0.4280196346844551|-0.3828142093633239|-0.1676125228404999|0.9251823425292969|0.340504914522171|0|0|0|-1|-1|3
2021-02-25 22:37:05.027 +0000|165201.10088975|-0.2924957275390625|1.196807861328125|0.5580596923828125|165201.08092775|2.02904305056526|-2.773500404754584|-1.153028544448865|-1.667147040367126|0.1196579933166504|1.345183134078979|0.009045511484146118|0.4133193492889404|-0.07362771034240723|XArbitraryZVertical|0.6472658311436671|-0.5199220159751942|0.4132646048426045|-0.3740859771277319|-0.1459930390119553|0.9139968752861023|0.3785439133644104|0|0|0|-1|-1|3
2021-02-25 22:37:05.048 +0000|165201.12085275|-0.564056396484375|1.761184692382812|-0.0369720458984375|165201.10088975|1.94174138538105|-2.851317718878787|-1.139910084749677|-0.7195765376091003|0.0889706015586853|1.605466246604919|-0.06476550549268723|0.1415595412254333|0.2108814418315887|XArbitraryZVertical|0.6435396988603932|-0.5347502213501962|0.4019448083121941|-0.3719395980894826|-0.1195453181862831|0.9085959196090698|0.4002022743225098|0|0|0|-1|-1|3
2021-02-25 22:37:05.067 +0000|165201.14081575|-0.1815338134765625|0.1196746826171875|-0.0171051025390625|165201.12085275|1.848574056091138|-2.934810075331575|-1.122813789664566|-2.152515411376953|-0.1102228686213493|1.611174702644348|-0.2982764840126038|0.6894362568855286|-0.1282505691051483|XArbitraryZVertical|0.6389672237754841|-0.5510724483419847|0.3887281651642725|-0.3700409152953888|-0.0889304056763649|0.9013227820396423|0.4239199161529541|0|0|0|-1|-1|3
2021-02-25 22:37:05.088 +0000|165201.16077875|-0.3503265380859375|1.284378051757812|-0.4040679931640625|165201.14081575|1.798338691450058|-2.983227656394368|-1.103667133596352|-0.1203345283865929|-0.5508460998535156|0.8003844618797302|-0.5947687029838562|-0.0371672511100769|-0.5638148784637451|XArbitraryZVertical|0.6387210043117643|-0.5606961528605388|0.3779265499144803|-0.3671875773052087|-0.07101792842149734|0.8928647637367249|0.4446893930435181|0|0|0|-1|-1|3
2021-02-25 22:37:05.107 +0000|165201.18074175|-0.190643310546875|0.8453369140625|-0.4693603515625|165201.16077875|1.759192840456787|-3.034980719561787|-1.122823633987231|2.01182746887207|-0.922394335269928|1.093509078025818|-0.1034151911735535|-0.05920994281768799|-0.6572573781013489|XArbitraryZVertical|0.6332075774385479|-0.5607029784785342|0.3736417305689373|-0.3808569376420313|-0.04609031230211258|0.9013270735740662|0.4306793212890625|0|0|0|-1|-1|3
2021-02-25 22:37:05.127 +0000|165201.20070475|-0.0522918701171875|0.7262115478515625|-0.5254669189453125|165201.18074175|1.711697409189989|-3.095421477729951|-1.182646166201354|3.666750907897949|-0.7942773699760437|1.226768851280212|-0.3188808858394623|0.1663843989372253|-0.7849490642547607|XArbitraryZVertical|0.6183066942590489|-0.5538352755629352|0.379832309356686|-0.4082777250677219|-0.01746850647032261|0.9256107807159424|0.3780733644962311|0|0|0|-1|-1|3
2021-02-25 22:37:05.147 +0000|165201.22066775|0.0436859130859375|0.489349365234375|-0.4063720703125|165201.20070475|1.642711094277388|3.109357888191971|-1.26637907538151|4.527396202087402|-0.5181171298027039|1.158145427703857|-0.09944286942481995|-0.1878476142883301|-0.8329672813415527|XArbitraryZVertical|0.5965739268809097|-0.5421162695443975|0.393532736237051|-0.4419743844256174|0.009660269133746624|0.9540218114852905|0.299580991268158|0|0|0|-1|-1|3
2021-02-25 22:37:05.167 +0000|165201.24062975|0.0940093994140625|0.392242431640625|-0.2855682373046875|165201.22066775|1.530188223106316|2.993681247962967|-1.354453379129583|4.375527858734131|-0.1441919207572937|0.935861349105835|-0.04666462540626526|-0.3535354137420654|-0.6917154788970947|XArbitraryZVertical|0.5716786201114176|-0.5285271026056425|0.4108847920712561|-0.4743587414969337|0.03163480013608932|0.9766889810562134|0.2123146802186966|0|0|0|-1|-1|3
2021-02-25 22:37:05.187 +0000|165201.26059275|0.1874847412109375|0.4976043701171875|-0.06982421875|165201.24062975|1.332396429424371|2.800596486499586|-1.428145855369053|3.520501136779785|0.2182157784700394|0.6856700778007507|0.02362298965454102|-0.5912679433822632|-0.4737023115158081|XArbitraryZVertical|0.5476140297169255|-0.5168260355560692|0.4281737029836392|-0.4996767786196886|0.04754408448934555|0.9898426532745361|0.1339805573225021|0|0|0|-1|-1|3
2021-02-25 22:37:05.207 +0000|165201.28055575|0.1953277587890625|0.6347808837890625|0.1098175048828125|165201.26059275|1.031605758417069|2.506267693371718|-1.474694606318236|2.217818975448608|0.0928942933678627|0.3093388974666595|0.08244684338569641|-0.5552613735198975|-0.260732889175415|XArbitraryZVertical|0.5295283684981272|-0.5081485929151511|0.4415501603990635|-0.5161570461917541|0.05694228038191795|0.9953857660293579|0.07723057270050049|0|0|0|-1|-1|3
2021-02-25 22:37:05.227 +0000|165201.30051875|0.1464080810546875|0.8459014892578125|0.2630157470703125|165201.28055575|0.6850865597323854|2.157917819188943|-1.49692133899693|1.7299644947052|-0.4021889269351959|0.1042303889989853|0.1609960198402405|-0.4453622102737427|-0.001732349395751953|XArbitraryZVertical|0.519640421740436|-0.5004168085369702|0.4487730606319967|-0.5274082764084502|0.06144668906927109|0.9972724914550781|0.04088630154728889|0|0|0|-1|-1|3
2021-02-25 22:37:05.247 +0000|165201.32048175|0.2613677978515625|1.122512817382812|0.4334716796875|165201.30051875|0.105570407417591|1.569651554460493|-1.508639367031895|2.665263175964355|-0.6279785633087158|-0.096635602414608|0.09868399798870087|-0.2072060704231262|0.2149147391319275|XArbitraryZVertical|0.5109959458015154|-0.4887203603543332|0.4560694195962564|-0.5404035593529244|0.0621131956577301|0.9980688691139221|-7.110549631761387e-05|0|0|0|-1|-1|3
2021-02-25 22:37:05.267 +0000|165201.34044475|0.086700439453125|1.105819702148438|0.3335418701171875|165201.32048175|-0.7034650859253356|0.7477414664192165|-1.483986763713802|3.12580418586731|-0.7363877296447754|-0.1427232921123505|0.1637941300868988|-0.06984299421310425|0.3969742059707642|XArbitraryZVertical|0.4978132221437992|-0.4694647195357034|0.4681063647312942|-0.5591610912477452|0.05895373597741127|0.9962344169616699|-0.06356974691152573|0|0|0|-1|-1|3
2021-02-25 22:37:05.288 +0000|165201.36040775|0.1065673828125|1.546295166015625|0.0381622314453125|165201.34044475|-1.000989135036004|0.4406083353974948|-1.442441648285293|1.710199236869812|-0.4048108458518982|-0.2160831689834595|0.1276599764823914|0.1533370018005371|0.5457531809806824|XArbitraryZVertical|0.48656016844694|-0.4531790710383448|0.4782602987801807|-0.573720129300883|0.05459108576178551|0.9917738437652588|-0.1157758608460426|0|0|0|-1|-1|3
2021-02-25 22:37:05.307 +0000|165201.38037075|-0.2327117919921875|1.991683959960938|0.14886474609375|165201.36040775|-1.078038200083316|0.3568546426574276|-1.44105590005337|-1.198058366775513|-0.3233684897422791|-0.6477881669998169|0.04213174432516098|0.1921810507774353|0.2726372182369232|XArbitraryZVertical|0.488785154719217|-0.4477464788016869|0.4800918692659711|-0.5745639127058725|0.04519437998533249|0.9915955066680908|-0.1212243288755417|0|0|0|-1|-1|3
2021-02-25 22:37:05.327 +0000|165201.40033275|-0.1331939697265625|1.485671997070312|0.29437255859375|165201.38037075|-1.049725949113541|0.3819327489227491|-1.489637752858046|-3.190990447998047|0.0440322645008564|-0.8306521773338318|-0.08609265089035034|0.9606583118438721|0.1554874181747437|XArbitraryZVertical|0.5060059830622484|-0.4542519284286283|0.4730538120281775|-0.5602080375432766|0.03021504357457161|0.9967084527015686|-0.07522626221179962|0|0|0|-1|-1|3
2021-02-25 22:37:05.347 +0000|165201.42029575|-0.1922454833984375|1.282684326171875|0.2691192626953125|165201.40033275|-0.1559745829129234|1.278371462879311|-1.556742301539369|-3.711097717285156|0.2734170854091644|-0.7851757407188416|-0.2051460742950439|0.7171701788902283|0.2223260402679443|XArbitraryZVertical|0.5287033471416792|-0.4673843906791705|0.4620982904681866|-0.5371123438449223|0.01345002558082342|0.9999012351036072|-0.004049204289913177|0|0|0|-1|-1|3
2021-02-25 22:37:05.367 +0000|165201.44025875|-0.129486083984375|0.7174224853515625|0.2523193359375|165201.42029575|1.715169016238854|-3.125584791829757|-1.498164310576062|-3.920320510864258|0.6146840453147888|-0.7250275611877441|-0.1651438474655151|0.4434475898742676|0.2364790439605713|XArbitraryZVertical|0.5502393738294714|-0.4832340745877582|0.4499519551802969|-0.511140467131135|-0.001161582884378731|0.9973634481430054|0.07255707681179047|0|0|0|-1|-1|3
2021-02-25 22:37:05.387 +0000|165201.46022175|-0.108612060546875|0.5322265625|0.211822509765625|165201.44025875|1.81073820612118|-3.01486530802209|-1.421419108403172|-3.554959297180176|0.9231117963790894|-0.8654183745384216|-0.1559648215770721|-0.004275500774383545|0.1075296252965927|XArbitraryZVertical|0.5695032311940211|-0.4994796292604167|0.4397152080399183|-0.4825313933368364|-0.01880926080048084|0.9888639450073242|0.147627666592598|0|0|0|-1|-1|3
2021-02-25 22:37:05.407 +0000|165201.48018475|-0.113555908203125|0.47015380859375|0.2807769775390625|165201.46022175|1.851589835010867|-2.955801597800777|-1.35966584126105|-2.308376312255859|0.9099358916282654|-0.7605759501457214|-0.06550562381744385|-0.4133109450340271|0.02162578701972961|XArbitraryZVertical|0.583702432519045|-0.5121239831060515|0.4339685211322001|-0.4568280206075414|-0.0387117899954319|0.9777946472167969|0.2059590071439743|0|0|0|-1|-1|3
2021-02-25 22:37:05.427 +0000|165201.50014775|-0.0735015869140625|0.2927703857421875|0.27294921875|165201.48018475|1.872983738446328|-2.916813694487658|-1.324250344316419|-1.18139111995697|0.9249665141105652|-0.4373126924037933|-0.06704676896333694|-0.4215281009674072|0.008497744798660278|XArbitraryZVertical|0.5904056319476083|-0.5199801420900976|0.4332872433929841|-0.4396635339222421|-0.05439784377813339|0.9697611927986145|0.2379163205623627|0|0|0|-1|-1|3
2021-02-25 22:37:05.447 +0000|165201.52011075|-0.0531005859375|0.444610595703125|0.2658233642578125|165201.50014775|1.884743293846284|-2.887334157289855|-1.306988326397864|-0.4920789301395416|0.8827883005142212|-0.2818329930305481|-0.02005944401025772|-0.6405749320983887|0.03700760006904602|XArbitraryZVertical|0.5917835538245421|-0.5253378866487802|0.4359533649980327|-0.4286688678226044|-0.06558807194232941|0.9654040336608887|0.2523753345012665|0|0|0|-1|-1|3
2021-02-25 22:37:05.467 +0000|165201.54007275|-0.0283050537109375|0.532470703125|0.346099853515625|165201.52011075|1.897714839392656|-2.857529021643965|-1.302109735495232|0.1725571155548096|0.8587713837623596|-0.1800288558006287|0.01430980116128922|-0.5921418070793152|0.006434887647628784|XArbitraryZVertical|0.5900083266462804|-0.5284914277506586|0.4410374461836661|-0.4219867336129661|-0.07439878582954407|0.9641203880310059|0.2548260390758514|0|0|0|-1|-1|3
2021-02-25 22:37:05.487 +0000|165201.56003575|-0.0109100341796875|0.6672515869140625|0.346435546875|165201.54007275|1.915287684311696|-2.823291180932615|-1.30999485796045|0.5958662033081055|0.850108802318573|-0.0350741483271122|0.03852155059576035|-0.4784210920333862|0.07789686322212219|XArbitraryZVertical|0.5848360638156168|-0.5295452305533715|0.448896364977052|-0.4195720800375716|-0.08069677650928497|0.966183602809906|0.2449027448892593|0|0|0|-1|-1|3
2021-02-25 22:37:05.507 +0000|165201.57999875|-0.0465545654296875|0.9269561767578125|0.4263763427734375|165201.56003575|1.935390154593772|-2.787134516980931|-1.322477939282639|0.7342461347579956|0.8365640640258789|-0.009711358696222305|0.06638288497924805|-0.4047520160675049|0.1029856204986572|XArbitraryZVertical|0.5784057940227572|-0.5298058947054726|0.4574543626789428|-0.418912689277028|-0.08530368655920029|0.9693270921707153|0.2304950952529907|0|0|0|-1|-1|3
2021-02-25 22:37:05.527 +0000|165201.59996175|-0.1401824951171875|1.099029541015625|0.5207061767578125|165201.57999875|1.958006122661114|-2.748704693274223|-1.337655804278229|0.9204456210136414|0.8140362501144409|0.05094772577285767|0.0679609403014183|-0.1554101705551147|0.1675805151462555|XArbitraryZVertical|0.5710919531941291|-0.5296882861324055|0.4663411001513235|-0.4192974416807742|-0.08845341205596924|0.9729456305503845|0.2134314030408859|0|0|0|-1|-1|3
2021-02-25 22:37:05.552 +0000|165201.61992475|-0.21905517578125|1.131011962890625|0.6672821044921875|165201.59996175|1.988094762586473|-2.702761069453789|-1.355194635283866|0.8253487348556519|0.8824954032897949|0.07369786500930786|0.002014555037021637|0.03867018222808838|0.2691044509410858|XArbitraryZVertical|0.5629902637745277|-0.5290311146892388|0.4758097987661201|-0.4204437465870698|-0.09089691936969757|0.9768478274345398|0.1936639100313187|0|0|0|-1|-1|3
2021-02-25 22:37:05.566 +0000|165201.63988775|-0.307861328125|1.220321655273438|0.720489501953125|165201.61992475|2.001401603097032|-2.669515914055157|-1.365161186550655|0.1432047486305237|1.138475179672241|0.1096254214644432|-0.09841683506965637|0.156703770160675|0.3987259864807129|XArbitraryZVertical|0.5555031858320936|-0.5313604847611887|0.4837690382846057|-0.4183774313260038|-0.09285201132297516|0.9789314866065979|0.1818555146455765|0|0|0|-1|-1|3
2021-02-25 22:37:05.587 +0000|165201.65985075|-0.325103759765625|1.232833862304688|0.3710479736328125|165201.63988775|1.974281029193641|-2.67078230534208|-1.361155706846787|-0.7740516662597656|1.436874747276306|0.2230869978666306|-0.1593536287546158|0.1836374402046204|0.5326422452926636|XArbitraryZVertical|0.5497804572318645|-0.5389571733053774|0.488462754871936|-0.4106955337282236|-0.09439994394779205|0.9781057834625244|0.1854667663574219|0|0|0|-1|-1|3
2021-02-25 22:37:05.607 +0000|165201.67981275|-0.1645355224609375|1.311798095703125|-0.0255279541015625|165201.67981275|1.875316692750388|-2.70852280182595|-1.34753135041031|0.445926696062088|1.341026782989502|0.6515049338340759|-0.1512522399425507|0.3255863189697266|-0.08389374613761902|XArbitraryZVertical|0.5359811592705644|-0.559652882066714|0.4959014416087383|-0.3919115300661147|-0.09291882812976837|0.9751797318458557|0.2009743005037308|0|0|0|-1|-1|3
2021-02-25 22:37:05.629 +0000|165201.69977575|0.0728759765625|1.03436279296875|-0.3986358642578125||||||||||||||||||||||||3
2021-02-25 22:37:05.646 +0000|165201.71973875|0.32470703125|1.482177734375|-0.5350189208984375|165201.69977575|1.844887399997499|-2.710784289434061|-1.36921642438957|1.129553556442261|1.339503288269043|0.8093478083610535|-0.0163787379860878|0.1538087129592896|-0.3845145702362061|XArbitraryZVertical|0.5215793876064995|-0.5647271319737792|0.5050263535207048|-0.3924113164624194|-0.08361203968524933|0.9797514677047729|0.18192358314991|0|0|0|-1|-1|3
2021-02-25 22:37:05.666 +0000|165201.73970175|0.3477325439453125|1.562896728515625|-0.5635223388671875|165201.71973875|1.814511745685532|-2.715665635905312|-1.399812876987076|1.616034746170044|1.211889386177063|0.8958004117012024|0.3395724892616272|0.2274420857429504|-0.6338157653808594|XArbitraryZVertical|0.5051362746258224|-0.5677252219393544|0.5151377733168135|-0.3964321260608364|-0.07030051946640015|0.985417902469635|0.1549491733312607|0|0|0|-1|-1|3
2021-02-25 22:37:05.686 +0000|165201.75966475|0.4130096435546875|1.540924072265625|-0.5334320068359375|165201.75966475|2.045452423692932|-2.433720547406546|-1.504558303257039|3.109314203262329|1.252830743789673|0.7595441937446594|0.4110489785671234|0.5611985921859741|-0.58219313621521|XArbitraryZVertical|0.4611666960419039|-0.5589890645500314|0.5499550628279959|-0.4152178974977821|-0.04303739219903946|0.9978070855140686|0.05028699338436127|0|0|0|-1|-1|3
2021-02-25 22:37:05.706 +0000|165201.77962775|0.40887451171875|1.345748901367188|-0.49993896484375||||||||||||||||||||||||3
2021-02-25 22:37:05.726 +0000|165201.79959075|0.359344482421875|1.0921630859375|-0.444915771484375|165201.77962775|-2.971210990885118|-1.144939432408373|-1.538774112389202|3.098321199417114|1.073849081993103|0.6872051358222961|0.4547514319419861|0.4725431203842163|-0.5096333622932434|XArbitraryZVertical|0.4374766438766482|-0.5495470937296904|0.5695511486856635|-0.4268764755210332|-0.02915319800376892|0.9994873404502869|-0.01322435587644577|0|0|0|-1|-1|3
2021-02-25 22:37:05.746 +0000|165201.81955275|0.3261260986328125|0.9578857421875|-0.405609130859375|165201.79959075|-2.05726045347328|-0.211706720479743|-1.499327388683907|2.475613594055176|0.9093344807624817|0.6481698155403137|0.3997549116611481|0.2074934244155884|-0.3957490921020508|XArbitraryZVertical|0.415867101259818|-0.5405077468875764|0.5862983777979536|-0.4372184657701138|-0.0150044783949852|0.9974471926689148|-0.0698118582367897|0|0|0|-1|-1|3
2021-02-25 22:37:05.766 +0000|165201.83951575|0.2773590087890625|0.870025634765625|-0.3300018310546875|165201.81955275|-1.870336902039087|-0.01023311844544433|-1.4575996509002|1.885024666786194|0.6527456641197205|0.6059060096740723|0.3469201028347015|0.02834200859069824|-0.3146781921386719|XArbitraryZVertical|0.3984440668149973|-0.5336362245984|0.598253985960396|-0.4456084644748336|-0.00115586502943188|0.993600070476532|-0.1129494085907936|0|0|0|-1|-1|3
2021-02-25 22:37:05.786 +0000|165201.85947875|0.245697021484375|0.7375946044921875|-0.2939605712890625|165201.83951575|-1.788156190087879|0.08222815263404816|-1.424422540200613|1.456496834754944|0.4314309656620026|0.5670942664146423|0.2945543229579926|-0.08854973316192627|-0.226406455039978|XArbitraryZVertical|0.3846509517997|-0.5285492335761227|0.6064406431713841|-0.4526688345438041|0.01197959017008543|0.9893064498901367|-0.1453587114810944|0|0|0|-1|-1|3
2021-02-25 22:37:05.806 +0000|165201.87944175|0.2350616455078125|0.752685546875|-0.3099212646484375|165201.85947875|-1.741899314299296|0.1345552457310759|-1.39535729769068|1.416520476341248|0.1820747703313828|0.4974883794784546|0.2282334864139557|-0.1800846457481384|-0.1463580131530762|XArbitraryZVertical|0.3734515487098273|-0.5235003204803745|0.6126935407576473|-0.459443101476131|0.02341451868414879|0.9846500158309937|-0.1729627102613449|0|0|0|-1|-1|3
2021-02-25 22:37:05.826 +0000|165201.89940475|0.239776611328125|0.527008056640625|-0.303955078125|165201.87944175|-1.719742838720279|0.156937652531776|-1.366909446998106|1.354042768478394|-0.1312397867441177|0.3085300922393799|0.2207497358322144|-0.1821679472923279|-0.06996999680995941|XArbitraryZVertical|0.3647337939714806|-0.5166962471726396|0.6180555527114319|-0.4669062875637994|0.03164596110582352|0.9792869687080383|-0.1999884992837906|0|0|0|-1|-1|3
2021-02-25 22:37:05.845 +0000|165201.91936775|0.2500152587890625|0.671142578125|0.2610015869140625|165201.89940475|-1.713673984227734|0.1553692680358109|-1.341293893858226|1.09890353679657|-0.6513466238975525|0.2292208820581436|0.1905657052993774|-0.3678836822509766|-0.0927979052066803|XArbitraryZVertical|0.35979564036679|-0.5081049693184303|0.6218872137647764|-0.4750081753261831|0.03520341217517853|0.9737797379493713|-0.2247528731822968|0|0|0|-1|-1|3
2021-02-25 22:37:05.865 +0000|165201.93933075|-0.189361572265625|0.3490753173828125|0.308197021484375|165201.91936775|-1.712435515690141|0.137664443668216|-1.322278271175425|0.4919372797012329|-1.138805270195007|0.1111839935183525|0.2193434536457062|-0.4124085903167725|-0.001140952110290527|XArbitraryZVertical|0.3604056478093915|-0.4982845458849979|0.6224700033288469|-0.4840984496084954|0.0337541438639164|0.9692779779434204|-0.2436405569314957|0|0|0|-1|-1|3
2021-02-25 22:37:05.885 +0000|165201.95929275|-0.0328369140625|1.597152709960938|0.1603851318359375|165201.93933075|-1.708755439604498|0.1254125418256181|-1.345199967843747|-2.618115663528442|-0.8217901587486267|-0.354395866394043|-0.03335073590278625|-0.3600980043411255|0.6330938339233398|XArbitraryZVertical|0.3713600097381903|-0.5011252024846707|0.6143880633965049|-0.4832106143663991|0.02797972038388252|0.9746608734130859|-0.2219305485486984|0|0|0|-1|-1|3
2021-02-25 22:37:05.905 +0000|165201.97925575|-0.555938720703125|1.25152587890625|0.296417236328125|165201.95929275|-1.723017700628437|0.08989081039424189|-1.397386700160052|-2.015751361846924|-1.101405739784241|-0.3658403754234314|-0.08062869310379028|-0.1717088222503662|0.3008732199668884|XArbitraryZVertical|0.3923949008446077|-0.5100036750741629|0.5992560739014877|-0.4762505700251038|0.01548902690410614|0.9850022196769714|-0.1718449890613556|0|0|0|-1|-1|3
2021-02-25 22:37:05.926 +0000|165201.99921875|-0.197235107421875|1.389785766601562|0.3192901611328125|165201.97925575|-1.738077030832831|0.06043917482204395|-1.431930365154103|-1.577893495559692|-0.54192715883255|-0.1291357576847076|-0.3466634154319763|0.7859325408935547|0.4376817941665649|XArbitraryZVertical|0.4061084409382352|-0.5157444996617696|0.588727011397001|-0.4716821077981697|0.008360887877643108|0.9903736114501953|-0.1381670832633972|0|0|0|-1|-1|3
2021-02-25 22:37:05.945 +0000|165202.01918175|-0.3665924072265625|0.9066162109375|0.3827667236328125|165201.99921875|-1.737638027301633|0.04873791639872331|-1.455724071007503|-0.6342633366584778|-0.5926699042320251|-0.01651298440992832|-0.4097532033920288|0.1446138620376587|0.3927569389343262|XArbitraryZVertical|0.4155687261435929|-0.5195788716694878|0.5803760778930837|-0.4695784002313698|0.005593735724687576|0.9933865070343018|-0.1146808564662933|0|0|0|-1|-1|3
2021-02-25 22:37:05.966 +0000|165202.03914275|-0.1410980224609375|0.9050140380859375|0.3885650634765625|165202.03914275|-1.762921432596048|0.01376498735308939|-1.474677204845914|-0.4831326007843018|-0.02218984439969063|-0.2269080281257629|-0.2641230523586273|-0.1556625366210938|0.4541003108024597|XArbitraryZVertical|0.4236705260487162|-0.5220370004367816|0.5741653298848133|-0.4672416360909331|0.001320989686064422|0.9953840970993042|-0.0959613099694252|0|0|0|-1|-1|3
2021-02-25 22:37:05.986 +0000|165202.05910575|-0.2333526611328125|0.730133056640625|0.3346099853515625||||||||||||||||||||||||3
2021-02-25 22:37:06.005 +0000|165202.07906875|-0.25799560546875|0.865875244140625|0.3262481689453125|165202.05910575|-1.817040972046868|-0.03957304716652328|-1.487387084776946|-0.9084702134132385|0.08152963221073151|-0.2198247462511063|-0.1608273983001709|-0.1984125375747681|0.4370681047439575|XArbitraryZVertical|0.4277044475508828|-0.5248287541331041|0.5720342608823477|-0.4630340072122943|-0.003296072827652097|0.9965234398841858|-0.08324737101793289|0|0|0|-1|-1|3
2021-02-25 22:37:06.025 +0000|165202.09903175|-0.2550811767578125|1.015380859375|0.3584747314453125|165202.07906875|-1.892422344599899|-0.1104142602447863|-1.510561335347029|-1.387967705726624|0.3541826605796814|-0.1355307251214981|-0.2417036890983582|-0.2122368812561035|0.3804777860641479|XArbitraryZVertical|0.4328286481632415|-0.531737281425488|0.5676034098543645|-0.4557861810355781|-0.006633023731410503|0.9981864094734192|-0.05982964858412743|0|0|0|-1|-1|3
2021-02-25 22:37:06.045 +0000|165202.11899375|-0.230926513671875|1.044342041015625|0.393218994140625|165202.09903175|-2.060796377240292|-0.2695730662388622|-1.538818461239472|-1.454869747161865|0.5443590879440308|-0.1081021055579185|-0.2498323619365692|-0.05539709329605103|0.3736950755119324|XArbitraryZVertical|0.4374535961423138|-0.5415043105179723|0.5622785297053305|-0.4463744954611642|-0.008514102548360825|0.9994887709617615|-0.03081486560404301|0|0|0|-1|-1|3
2021-02-25 22:37:06.065 +0000|165202.13895675|-0.1941986083984375|1.03277587890625|0.3957977294921875|165202.11899375|-3.103052760166978|-1.299015341296518|-1.560105024047509|-1.375959157943726|0.7078799605369568|-0.09282497316598892|-0.23456671833992|0.049632728099823|0.3894907236099243|XArbitraryZVertical|0.4406481261457407|-0.551722235134352|0.5578160577390746|-0.4362026994082305|-0.01027574483305216|0.9999428391456604|-0.002863608300685883|0|0|0|-1|-1|3
2021-02-25 22:37:06.085 +0000|165202.15891975|-0.1577606201171875|1.039108276367188|0.277130126953125|165202.13895675|1.761137199658174|-2.702535523901171|-1.542681662911992|-1.503256440162659|0.829045832157135|-0.0453060120344162|-0.1967451572418213|0.03774869441986084|0.3689498901367188|XArbitraryZVertical|0.4429357673821477|-0.5626099011406751|0.553594652017189|-0.4252187018097259|-0.01194924023002386|0.9996048212051392|0.02544398978352547|0|0|0|-1|-1|3
2021-02-25 22:37:06.105 +0000|165202.17888275|-0.121002197265625|0.9420166015625|0.09466552734375|165202.15891975|1.532752119090083|-2.913763549713026|-1.513369513981104|-1.465138912200928|0.8487458229064941|-0.007051393855363131|-0.1689978539943695|0.04612773656845093|0.316464900970459|XArbitraryZVertical|0.4447891408879412|-0.5745588646804147|0.5486994932671286|-0.4134894313654071|-0.01296311616897583|0.998351514339447|0.05591053888201714|0|0|0|-1|-1|3
2021-02-25 22:37:06.125 +0000|165202.19884575|-0.1335906982421875|0.831512451171875|0.04925537109375|165202.17888275|1.460217097568999|-2.968739317643671|-1.487453744197657|-1.250781297683716|0.902157723903656|-0.005906412377953529|-0.1144204139709473|0.004432320594787598|0.08387220650911331|XArbitraryZVertical|0.4454658786120382|-0.5852889599388632|0.5449466548081889|-0.4025297024605175|-0.0143178990110755|0.9965290427207947|0.08200602978467941|0|0|0|-1|-1|3
2021-02-25 22:37:06.145 +0000|165202.21880875|-0.1002349853515625|0.7258453369140625|-0.0202484130859375|165202.19884575|1.416734027373678|-2.993012651713813|-1.460891809055818|-1.48637318611145|1.017593026161194|-0.009146768599748611|-0.1125472486019135|-0.1014494895935059|-0.03828452527523041|XArbitraryZVertical|0.4456688134670524|-0.5963360824345536|0.5412611768306014|-0.3908950158139894|-0.01623684726655483|0.9939665794372559|0.1084748283028603|0|0|0|-1|-1|3
2021-02-25 22:37:06.165 +0000|165202.23877175|-0.14447021484375|0.74169921875|-0.0292205810546875|165202.21880875|1.383877953731616|-3.005000953257552|-1.428370588328064|-1.803205966949463|1.028041124343872|-0.02834523096680641|-0.1062822043895721|-0.2225407958030701|-0.1328089386224747|XArbitraryZVertical|0.4465711915318242|-0.6090031494409524|0.5360833433852729|-0.3772317891828319|-0.01932805962860584|0.9898746013641357|0.1406213343143463|0|0|0|-1|-1|3
2021-02-25 22:37:06.185 +0000|165202.25873475|-0.1413116455078125|0.8083343505859375|0.05621337890625|165202.23877175|1.357446941171621|-3.011257135915021|-1.391013237476504|-1.903504610061646|0.9688564538955688|-0.04431265592575073|-0.08607381582260132|-0.2697713375091553|-0.2165902853012085|XArbitraryZVertical|0.4484770306427873|-0.6225092486090175|0.5290913292434134|-0.362509102169418|-0.02324007824063301|0.9838824868202209|0.177298828959465|0|0|0|-1|-1|3
2021-02-25 22:37:06.205 +0000|165202.27869675|-0.0815887451171875|0.804107666015625|0.120819091796875|165202.25873475|1.337159231300435|-3.012073847056203|-1.35511929886163|-1.670961856842041|0.952263355255127|-0.022937947884202|-0.1316916048526764|-0.189096987247467|-0.1999166458845139|XArbitraryZVertical|0.4500985532382433|-0.6352313603828925|0.5221475095656596|-0.3482157188060164|-0.02764058858156204|0.9768317341804504|0.2122151702642441|0|0|0|-1|-1|3
2021-02-25 22:37:06.225 +0000|165202.29865975|0.0842132568359375|0.9638519287109375|0.1172027587890625|165202.27869675|1.32295332718858|-3.007903822257424|-1.325504330284907|-1.26397693157196|0.7955107688903809|-0.05583402514457703|-0.09394389390945435|-0.1709027290344238|-0.1417193412780762|XArbitraryZVertical|0.4507289426486792|-0.6458944866647306|0.5167760925881905|-0.3355684218458291|-0.03236829489469528|0.9700664877891541|0.2406725287437439|0|0|0|-1|-1|3
2021-02-25 22:37:06.245 +0000|165202.31862275|0.2425537109375|1.061019897460938|0.0068206787109375|165202.29865975|1.319272327103926|-2.998945825021709|-1.30775935944135|-0.4834880232810974|0.4631597101688385|-0.1020548716187477|0.03922287002205849|-0.09181034564971924|-0.1163817942142487|XArbitraryZVertical|0.4509307583993185|-0.6521870003474718|0.5141062956485204|-0.3271210561402088|-0.03696448355913162|0.9656047821044922|0.2573728561401367|0|0|0|-1|-1|3
2021-02-25 22:37:06.265 +0000|165202.33858575|0.363861083984375|1.497222900390625|-0.094573974609375|165202.31862275|1.330702721944962|-2.981432256059978|-1.302876190081292|-0.02739204093813896|0.2188841849565506|-0.3053731024265289|0.1997188925743103|0.02876412868499756|-0.2017371654510498|XArbitraryZVertical|0.4511824138899392|-0.6535314524884861|0.5147420329611704|-0.3230659600677087|-0.04221757501363754|0.9643235802650452|0.2613378465175629|0|0|0|-1|-1|3
2021-02-25 22:37:06.285 +0000|165202.35854875|0.264862060546875|1.96539306640625|-0.1641845703125|165202.33858575|1.366904735544043|-2.944652463155669|-1.302919696168412|0.1946356445550919|-0.02558170072734356|-0.6362003684043884|0.3711418807506561|0.2833912372589111|-0.3191531896591187|XArbitraryZVertical|0.4534931195848288|-0.6512508973709165|0.5172495922765803|-0.3204200436660924|-0.05179058015346527|0.9643350839614868|0.2595674693584442|0|0|0|-1|-1|3
2021-02-25 22:37:06.305 +0000|165202.37851175|0.278472900390625|1.882278442382812|-0.31884765625|165202.35854875|1.425642210685104|-2.890980040987496|-1.303248530258492|0.17084601521492|-0.2495676577091217|-0.8475122451782227|0.4074966907501221|0.8228093385696411|-0.3630878925323486|XArbitraryZVertical|0.4585531460341507|-0.6463615601521059|0.5202012361551402|-0.3183337799319575|-0.06556238979101181|0.9644221067428589|0.2561085224151611|0|0|0|-1|-1|3
2021-02-25 22:37:06.325 +0000|165202.39847475|0.3784332275390625|1.591537475585938|-0.3590545654296875|165202.37851175|1.488564414797749|-2.836578450332026|-1.298984616690493|-0.1394922733306885|-0.3771349489688873|-0.8601783514022827|0.3158854246139526|1.013703584671021|-0.5033684968948364|XArbitraryZVertical|0.4656664031876017|-0.6412464850188438|0.5216594280970437|-0.315957436052462|-0.08062534779310226|0.9632861018180847|0.2560845017433167|0|0|0|-1|-1|3
2021-02-25 22:37:06.345 +0000|165202.41843675|0.4665985107421875|1.248626708984375|-0.27313232421875|165202.39847475|1.538213210232219|-2.796820343258752|-1.288489528052943|-0.3575271666049957|-0.4149281680583954|-0.7572513818740845|0.4297847747802734|0.7966189384460449|-0.6060812473297119|XArbitraryZVertical|0.47381748274087|-0.6376411697379446|0.5205376325886309|-0.3129717094696265|-0.09415236860513687|0.9604153633117676|0.2621785402297974|0|0|0|-1|-1|3
2021-02-25 22:37:06.365 +0000|165202.43839975|0.4769744873046875|1.056869506835938|-0.1131134033203125|165202.41843675|1.576596716012197|-2.768700465117532|-1.277962610822792|-0.194752037525177|-0.463325172662735|-0.6185368895530701|0.5278174877166748|0.448774516582489|-0.6014856100082397|XArbitraryZVertical|0.4814324878495304|-0.6345369380513632|0.5187098844017909|-0.3106858862542301|-0.1051642373204231|0.9574297070503235|0.2688287198543549|0|0|0|-1|-1|3
2021-02-25 22:37:06.385 +0000|165202.45836275|0.4349365234375|0.9823760986328125|0.03326416015625|165202.43839975|1.610926590918034|-2.746010857834309|-1.274744290698859|0.2899069488048553|-0.5570304393768311|-0.4083420038223267|0.5999717116355896|0.1820996403694153|-0.4640391170978546|XArbitraryZVertical|0.4872518073352049|-0.6302325760567637|0.5181100484385459|-0.3113750205655958|-0.1124227494001389|0.9564957618713379|0.2692148387432098|0|0|0|-1|-1|3
2021-02-25 22:37:06.405 +0000|165202.47832575|0.309112548828125|0.958221435546875|0.1001434326171875|165202.45836275|1.647246553967557|-2.723499170887452|-1.282817705046975|0.8877120018005371|-0.6710816621780396|-0.2375803887844086|0.5625200271606445|0.04298055171966553|-0.2982319593429565|XArbitraryZVertical|0.4906317511060184|-0.623743481429937|0.519736859057492|-0.3163828865121379|-0.115315280854702|0.9588199257850647|0.2595508992671967|0|0|0|-1|-1|3
2021-02-25 22:37:06.425 +0000|165202.49828875|0.1343536376953125|1.02593994140625|0.1829681396484375|165202.47832575|1.693810182375846|-2.691779042476432|-1.302188532012529|1.342283606529236|-0.6123626232147217|-0.1215126290917397|0.4938697516918182|-0.002776622772216797|-0.1773909330368042|XArbitraryZVertical|0.4914302144582659|-0.6148102213503792|0.5241931782452643|-0.3251556882742391|-0.1153906509280205|0.964141309261322|0.238990530371666|0|0|0|-1|-1|3
2021-02-25 22:37:06.445 +0000|165202.51825175|0.0224761962890625|1.044540405273438|0.3438568115234375|165202.49828875|1.749541161490378|-2.648418578345485|-1.325866267574533|1.365487456321716|-0.4371300935745239|-0.08111612498760223|0.3422775864601135|0.0291740894317627|-0.07328703999519348|XArbitraryZVertical|0.4902388238541924|-0.605360740328509|0.5303040561141441|-0.3346366701252048|-0.1147994697093964|0.9701542854309082|0.213591456413269|0|0|0|-1|-1|3
2021-02-25 22:37:06.465 +0000|165202.53821475|-0.07733154296875|0.936492919921875|0.4351806640625|165202.51825175|1.807075070693354|-2.599352544381826|-1.346737734632031|1.085844159126282|-0.2632142305374146|-0.02421990595757961|0.1840129792690277|0.06337207555770874|0.06699228286743164|XArbitraryZVertical|0.4882773597429426|-0.5972800879895397|0.5362749908670674|-0.3424190729153032|-0.1146616861224174|0.975003719329834|0.1903165727853775|0|0|0|-1|-1|3
2021-02-25 22:37:06.485 +0000|165202.55817775|-0.1265716552734375|0.8099365234375|0.49359130859375|165202.53821475|1.849573166683929|-2.561722834371382|-1.362648016148048|0.7273270487785339|-0.1241389513015747|0.1060080453753471|0.08611077070236206|0.03183853626251221|0.2188097238540649|XArbitraryZVertical|0.4859372428838532|-0.5918606592061567|0.5406456278883057|-0.3482357961713172|-0.113225556910038|0.9784152507781982|0.172868087887764|0|0|0|-1|-1|3
2021-02-25 22:37:06.505 +0000|165202.57813975|-0.2076568603515625|0.70367431640625|0.5435791015625|165202.55817775|1.862232059380821|-2.551260559946422|-1.372481694708783|0.2267643809318542|-0.0864562913775444|0.212382510304451|0.002214550971984863|-0.1193466186523438|0.304863452911377|XArbitraryZVertical|0.4838042585092366|-0.5897201778856653|0.5424367652981028|-0.3520310117558607|-0.1096668541431427|0.980400025844574|0.1636728942394257|0|0|0|-1|-1|3
2021-02-25 22:37:06.524 +0000|165202.59810275|-0.277587890625|0.636199951171875|0.5448150634765625|165202.57813975|1.840526711643566|-2.574030252200989|-1.374815699740418|-0.2647196352481842|-0.04924607276916504|0.2585656344890594|-0.05820616334676743|-0.219855785369873|0.3607052564620972|XArbitraryZVertical|0.4828451895343596|-0.5907275582116235|0.5411147982896449|-0.3536892834007841|-0.1046813428401947|0.9808571934700012|0.1641970574855804|0|0|0|-1|-1|3
2021-02-25 22:37:06.545 +0000|165202.61806575|-0.3153076171875|0.6526336669921875|0.55377197265625|165202.59810275|1.79734193643483|-2.617252026295731|-1.369122060158109|-0.6327584981918335|-0.03848407417535782|0.1704564541578293|-0.1446196883916855|-0.3270683884620667|0.3675702810287476|XArbitraryZVertical|0.4834422666751449|-0.5941239745734207|0.537382258634913|-0.3528748267443914|-0.1002838015556335|0.9797325730323792|0.1733994483947754|0|0|0|-1|-1|3
2021-02-25 22:37:06.564 +0000|165202.63802875|-0.3493499755859375|0.668701171875|0.58428955078125|165202.61806575|1.754834321327894|-2.659637405451806|-1.358717246685955|-0.6527478098869324|-0.04603035748004913|0.08884664624929428|-0.2025284469127655|-0.3355361223220825|0.3612443208694458|XArbitraryZVertical|0.4852101830975522|-0.5981879857420496|0.5327581580714917|-0.3505865595189431|-0.09756603091955185|0.9775953888893127|0.1865155696868896|0|0|0|-1|-1|3
2021-02-25 22:37:06.585 +0000|165202.65799175|-0.361419677734375|0.6979827880859375|0.63580322265625|165202.63802875|1.728933341887238|-2.686079580159649|-1.348804304062136|-0.4638307988643646|-0.05618589371442795|-0.04326630383729935|-0.2356297671794891|-0.3179291486740112|0.3704531192779541|XArbitraryZVertical|0.4873510592761971|-0.6011243544326209|0.5289850901546633|-0.348300415976776|-0.0968591645359993|0.9754607677459717|0.1977230906486511|0|0|0|-1|-1|3
2021-02-25 22:37:06.604 +0000|165202.67795475|-0.377838134765625|0.710723876953125|0.683746337890625|165202.65799175|1.724023321655465|-2.691782564659039|-1.341224834813074|-0.270117312669754|-0.04034402966499329|-0.1980849951505661|-0.2529560923576355|-0.2925810813903809|0.3988347351551056|XArbitraryZVertical|0.4895600718619434|-0.6023233562056924|0.5269696360944485|-0.34617994361383|-0.09894205629825592|0.9737640023231506|0.2049249857664108|0|0|0|-1|-1|3
2021-02-25 22:37:06.624 +0000|165202.69791775|-0.422271728515625|0.806060791015625|0.7098236083984375|165202.67795475|1.73494397065589|-2.681977863734687|-1.332447591723731|-0.4853959679603577|-0.05344267934560776|-0.404916375875473|-0.2690452933311462|-0.2218512296676636|0.453426867723465|XArbitraryZVertical|0.4927889362614527|-0.6024595510674901|0.5257848015557608|-0.3431499619102036|-0.1047339215874672|0.9717291593551636|0.211596891283989|0|0|0|-1|-1|3
2021-02-25 22:37:06.644 +0000|165202.71787975|-0.4135589599609375|0.8008575439453125|0.63323974609375|165202.69791775|1.746144890051887|-2.672621879169696|-1.314949906776921|-0.9592800140380859|-0.09543652087450027|-0.6071046590805054|-0.2833737730979919|-0.2342647314071655|0.4766354560852051|XArbitraryZVertical|0.4987370122251343|-0.6034337238938282|0.5228145774563924|-0.3373336452999486|-0.114376962184906|0.967449426651001|0.2257417291402817|0|0|0|-1|-1|3
2021-02-25 22:37:06.664 +0000|165202.73784275|-0.35430908203125|0.6685791015625|0.4673614501953125|165202.71787975|1.749759571633386|-2.671674907109099|-1.276821776923144|-1.477393865585327|-0.1820948719978333|-0.7039807438850403|-0.3012124598026276|-0.1253128051757812|0.4304163455963135|XArbitraryZVertical|0.5104358305794922|-0.6071493009747018|0.5150195341594068|-0.3249304400719082|-0.1312062740325928|0.9570997953414917|0.2583500146865845|0|0|0|-1|-1|3
2021-02-25 22:37:06.684 +0000|165202.75780575|-0.2882232666015625|0.6690521240234375|0.3515167236328125|165202.73784275|1.742315481067151|-2.683347076230471|-1.239595340474659|-1.995126366615295|-0.294924795627594|-0.7465096712112427|-0.2512598633766174|-0.2072185873985291|0.2518724501132965|XArbitraryZVertical|0.5215378761135208|-0.6114027913456697|0.5057162460728634|-0.3137450376473206|-0.143851175904274|0.9456524848937988|0.2916302680969238|0|0|0|-1|-1|3
2021-02-25 22:37:06.704 +0000|165202.77776875|-0.24652099609375|0.74774169921875|0.2997894287109375|165202.75780575|1.729519717266717|-2.702552856895835|-1.19549281927009|-2.081706523895264|-0.4379285573959351|-0.8062912225723267|-0.1484637856483459|-0.3100809454917908|0.07503890991210938|XArbitraryZVertical|0.5343881173696414|-0.6167047468394977|0.4933535836697107|-0.3011756888731337|-0.1558116376399994|0.9303964376449585|0.3317908048629761|0|0|0|-1|-1|3
2021-02-25 22:37:06.724 +0000|165202.79773175|-0.23748779296875|0.8174896240234375|0.270263671875|165202.77776875|1.726193544369103|-2.715608895548977|-1.155215656692332|-1.608291745185852|-0.5361616611480713|-0.7365714311599731|-0.1014555394649506|-0.1916612386703491|-0.06609749794006348|XArbitraryZVertical|0.5471696266311518|-0.6200211580547883|0.4815058422381615|-0.2903984528695772|-0.1668243706226349|0.9148820638656616|0.3676416873931885|0|0|0|-1|-1|3
2021-02-25 22:37:06.744 +0000|165202.81769475|-0.1883087158203125|0.8974151611328125|0.3189697265625|165202.79773175|1.730688144055771|-2.72179331845331|-1.125041019629728|-1.093515753746033|-0.4775745570659637|-0.660513699054718|-0.07461303472518921|-0.09314233064651489|-0.110439658164978|XArbitraryZVertical|0.557824672563919|-0.621034235661203|0.4723904993309776|-0.282834329664454|-0.1757225543260574|0.9022852778434753|0.3937037885189056|0|0|0|-1|-1|3
2021-02-25 22:37:06.764 +0000|165202.83765775|-0.18695068359375|0.9672393798828125|0.475830078125|165202.81769475|1.739468184093269|-2.722810086256561|-1.103393608157733|-0.7526466250419617|-0.4303146004676819|-0.5803083777427673|-0.02406744658946991|-0.04384952783584595|-0.1105768978595734|XArbitraryZVertical|0.5662945054045694|-0.6205858870477932|0.4659718271040754|-0.2775856647514104|-0.183223083615303|0.8927415609359741|0.411632627248764|0|0|0|-1|-1|3
2021-02-25 22:37:06.784 +0000|165202.85762075|-0.2192840576171875|1.037826538085938|0.5550384521484375|165202.83765775|1.745803963312713|-2.72517260546856|-1.085296509584272|-0.9016677141189575|-0.3688819110393524|-0.4423673748970032|-0.005992904305458069|0.02447831630706787|-0.04188397526741028|XArbitraryZVertical|0.573362183771853|-0.620194811113113|0.4603057295425402|-0.2733729033320882|-0.1887548863887787|0.8844417929649353|0.4267715811729431|0|0|0|-1|-1|3
2021-02-25 22:37:06.804 +0000|165202.87758275|-0.2333831787109375|1.279754638671875|0.5684967041015625|165202.85762075|1.744016899394568|-2.733873109348364|-1.061145925948202|-1.270184636116028|-0.3571631610393524|-0.4515928030014038|-0.006715387105941772|0.113946795463562|0.08204284310340881|XArbitraryZVertical|0.5807858973517267|-0.621793750346072|0.4524725982374378|-0.2670741959317669|-0.1934492737054825|0.8729151487350464|0.4478794634342194|0|0|0|-1|-1|3
2021-02-25 22:37:06.824 +0000|165202.89754575|-0.2208099365234375|1.34613037109375|0.5117950439453125|165202.87758275|1.74124033186137|-2.743777764381061|-1.034345043996153|-1.181286334991455|-0.4027684926986694|-0.4893079698085785|-0.02795366942882538|0.3194730877876282|0.09800529479980469|XArbitraryZVertical|0.5886601207432125|-0.6237534116953564|0.4436493182165552|-0.2599736567780089|-0.1979984045028687|0.8595278263092041|0.4711781144142151|0|0|0|-1|-1|3
2021-02-25 22:37:06.844 +0000|165202.91750875|-0.1803741455078125|1.361038208007812|0.318115234375|165202.89754575|1.743963672604565|-2.749661740838281|-1.009967705931091|-1.015549063682556|-0.4260966777801514|-0.5949653387069702|-0.03062805533409119|0.4798299670219421|0.06892946362495422|XArbitraryZVertical|0.5966191389615324|-0.6243586355150997|0.4357391101141216|-0.2536791866027718|-0.2031670063734055|0.8468146920204163|0.4915561974048615|0|0|0|-1|-1|3
2021-02-25 22:37:06.864 +0000|165202.93747175|-0.139984130859375|1.296401977539062|0.1477203369140625|165202.91750875|1.755402244643786|-2.749530847969408|-0.9890077976572714|-0.652873158454895|-0.5246738791465759|-0.7734459638595581|0.003104820847511292|0.5097334384918213|-0.09533226490020752|XArbitraryZVertical|0.6050858018178343|-0.6227219529988418|0.4293084821679117|-0.2485610486914344|-0.209968090057373|0.8354811668395996|0.5078229308128357|0|0|0|-1|-1|3
2021-02-25 22:37:06.884 +0000|165202.95743475|-0.065704345703125|1.180618286132812|0.01641845703125|165202.93747175|1.777337734514254|-2.743017712078049|-0.9745593497621098|-0.2360964119434357|-0.6491923332214355|-0.91602623462677|0.05999016761779785|0.5245351195335388|-0.2820432186126709|XArbitraryZVertical|0.6138731567010595|-0.6179952393082444|0.4251331365595299|-0.245974283735917|-0.2179337739944458|0.8274545073509216|0.5175167322158813|0|0|0|-1|-1|3
2021-02-25 22:37:06.904 +0000|165202.97739775|0.0017242431640625|1.0286865234375|-0.0153961181640625|165202.95743475|1.80798290232647|-2.732236551120046|-0.9658104868000075|0.09843647480010986|-0.8067364096641541|-1.009169220924377|0.1177612841129303|0.4149012565612793|-0.4520107507705688|XArbitraryZVertical|0.6230456737311179|-0.6104861730852892|0.4226504516235208|-0.2459415502074909|-0.2263732403516769|0.8225101232528687|0.5217585563659668|0|0|0|-1|-1|3
2021-02-25 22:37:06.924 +0000|165202.99736075|0.0624237060546875|0.907470703125|0.058135986328125|165202.97739775|1.842931212896316|-2.721142762370115|-0.960649210627965|0.1654229462146759|-0.9507589340209961|-1.012742877006531|0.203680157661438|0.2888195514678955|-0.5368931889533997|XArbitraryZVertical|0.6325075298658772|-0.6012288965125345|0.4206429483308162|-0.2480273552443758|-0.2338772416114807|0.8195637464523315|0.5230839252471924|0|0|0|-1|-1|3
2021-02-25 22:37:06.944 +0000|165203.01732375|0.069244384765625|0.9756622314453125|0.1162872314453125|165202.99736075|1.876347594706516|-2.714287324580701|-0.9540694036761213|0.06524087488651276|-1.114064574241638|-1.023214936256409|0.2781089544296265|0.1357316374778748|-0.5186131000518799|XArbitraryZVertical|0.6425934112225997|-0.5918242455988717|0.4172118625288646|-0.2505034048390169|-0.2396872043609619|0.8157758712768555|0.5263644456863403|0|0|0|-1|-1|3
2021-02-25 22:37:06.964 +0000|165203.0372872917|0.00042724609375|1.004791259765625|0.0016632080078125|165203.01732375|1.911630724075164|-2.710330179840478|-0.9494857875775378|0.422962874174118|-1.371742606163025|-1.027721405029297|0.3122985661029816|0.1111847758293152|-0.4213509559631348|XArbitraryZVertical|0.6532048868813795|-0.5811411058876228|0.413054359797371|-0.2549204395070666|-0.2433287650346756|0.8131163120269775|0.5288032293319702|0|0|0|-1|-1|3
2021-02-25 22:37:06.984 +0000|165203.0572502917|-0.016571044921875|0.83978271484375|0.1087188720703125|165203.0372872917|1.952610861313107|-2.705240312563866|-0.9516388202408553|0.8043999671936035|-1.447436571121216|-1.040644526481628|0.2823860645294189|0.2157835364341736|-0.4687038064002991|XArbitraryZVertical|0.6634202618346333|-0.5682063608524861|0.40987072186179|-0.2627183729161586|-0.2452765852212906|0.8143677115440369|0.5259698033332825|0|0|0|-1|-1|3
2021-02-25 22:37:07.004 +0000|165203.0772132917|-0.0191192626953125|0.74981689453125|0.1016387939453125|165203.0572502917|1.993103007095827|-2.700489791184995|-0.9585691788362655|0.6818884611129761|-1.386927843093872|-0.7174597382545471|0.1917681992053986|0.08391249179840088|-0.504393458366394|XArbitraryZVertical|0.6721543515509361|-0.5550223696646758|0.4074084194869596|-0.2723545208387066|-0.2453569769859314|0.8183701038360596|0.5196825861930847|0|0|0|-1|-1|3
2021-02-25 22:37:07.024 +0000|165203.0971762917|-0.0511932373046875|0.8491973876953125|0.200042724609375|165203.0772132917|2.018735843939235|-2.706663467788955|-0.9604331544071061|0.2074475437402725|-1.394557952880859|-0.5981253385543823|0.2391509711742401|0.02791094779968262|-0.4234438538551331|XArbitraryZVertical|0.6800053012416636|-0.5454303173010849|0.4021371048255015|-0.2799716238174845|-0.2415007054805756|0.8194398880004883|0.5198028683662415|0|0|0|-1|-1|3
2021-02-25 22:37:07.044 +0000|165203.1171392917|-0.018798828125|0.838134765625|0.2267303466796875|165203.0971762917|2.037825589854055|-2.718885084426121|-0.9611216783482867|0.4812288880348206|-1.388389706611633|-0.4219216406345367|0.1842699646949768|-0.08968621492385864|-0.3923183083534241|XArbitraryZVertical|0.6874424061404328|-0.5371437249907026|0.3953801871020816|-0.2873567161952815|-0.2348985075950623|0.8198343515396118|0.522200882434845|0|0|0|-1|-1|3
2021-02-25 22:37:07.064 +0000|165203.1371022917|-0.0128936767578125|0.9552459716796875|0.252838134765625|165203.1171392917|2.063317380654916|-2.7268592917403|-0.9730046641390829|1.296920418739319|-1.552477598190308|-0.4773427248001099|0.2269683927297592|0.0645936131477356|-0.2626632452011108|XArbitraryZVertical|0.6929132584403581|-0.526709962720938|0.3910692055240397|-0.2991863874024517|-0.2267851680517197|0.8265805244445801|0.515104353427887|0|0|0|-1|-1|3
2021-02-25 22:37:07.087 +0000|165203.1570652917|-0.1271514892578125|0.9064178466796875|0.34759521484375|165203.1371022917|2.099102645291747|-2.7281581239761|-0.9983056140870047|1.665122866630554|-1.558673501014709|-0.3592579960823059|0.2107762098312378|0.02907454967498779|-0.2590699195861816|XArbitraryZVertical|0.6962575025124961|-0.5130962601315717|0.3895638882086792|-0.3165400350355642|-0.2176425457000732|0.8405542969703674|0.4960845708847046|0|0|0|-1|-1|3
2021-02-25 22:37:07.104 +0000|165203.1770272917|-0.1730499267578125|1.029083251953125|0.4357147216796875|165203.1570652917|2.131921812238478|-2.730327102654121|-1.020387023258876|0.9134463667869568|-1.407147407531738|-0.3260306119918823|0.138872891664505|0.07948243618011475|-0.1917640268802643|XArbitraryZVertical|0.6994709924878969|-0.5004513188712137|0.3871746743318906|-0.3322413403191838|-0.2090936750173569|0.8523105382919312|0.479422390460968|0|0|0|-1|-1|3
2021-02-25 22:37:07.123 +0000|165203.1969902917|-0.264984130859375|1.350112915039062|0.538177490234375|165203.1770272917|2.147469444671433|-2.743423072360015|-1.023946861362574|-0.2630092799663544|-1.268360376358032|-0.2953422069549561|0.04292869567871094|0.07816028594970703|-0.0814780592918396|XArbitraryZVertical|0.7049468852991894|-0.4926561597633436|0.3805409958734013|-0.3398946155895445|-0.201620027422905|0.8541670441627502|0.4793204069137573|0|0|0|-1|-1|3
2021-02-25 22:37:07.143 +0000|165203.2169532917|-0.316864013671875|1.553939819335938|0.6245880126953125|165203.1969902917|2.150763481282123|-2.765486184930777|-1.01003008031537|-0.700243353843689|-1.207329750061035|-0.4114775955677032|-0.007506191730499268|0.3483579158782959|0.007017552852630615|XArbitraryZVertical|0.7133741856784049|-0.4882906068221137|0.3698907716788259|-0.3403679820495643|-0.1953440755605698|0.8468478322029114|0.494660884141922|0|0|0|-1|-1|3
2021-02-25 22:37:07.163 +0000|165203.2369162917|-0.363311767578125|1.288253784179688|0.6086273193359375|165203.2169532917|2.161370495961668|-2.780153298298389|-1.001545764514545|0.2202452719211578|-1.179547905921936|-0.4012356102466583|-0.1184341311454773|0.6259565353393555|0.08122789859771729|XArbitraryZVertical|0.7207228321615446|-0.4823342183072286|0.361423156785108|-0.3424698272802394|-0.1906020045280457|0.8423051834106445|0.5041754245758057|0|0|0|-1|-1|3
2021-02-25 22:37:07.183 +0000|165203.2568792917|-0.39825439453125|1.330825805664062|0.6142730712890625|165203.2369162917|2.180610428542279|-2.787466161469421|-1.00831063317645|0.5608355402946472|-1.189034581184387|-0.3334042727947235|-0.1508856415748596|0.6397703289985657|0.1261125802993774|XArbitraryZVertical|0.7249707413677606|-0.4738324106845214|0.3565517071640166|-0.3503869810932811|-0.1849296987056732|0.8459321260452271|0.5001994371414185|0|0|0|-1|-1|3
2021-02-25 22:37:07.203 +0000|165203.2768422917|-0.4208984375|1.67230224609375|0.79510498046875|165203.2568792917|2.196169739376921|-2.798154258977336|-1.012534562623574|0.1636791676282883|-1.160244584083557|-0.3132491409778595|-0.2072668522596359|0.3798807859420776|0.1138767600059509|XArbitraryZVertical|0.7294749683811461|-0.4661069238117888|0.3505897842118643|-0.357347769542868|-0.178368404507637|0.8481771349906921|0.4987787902355194|0|0|0|-1|-1|3
