loggingTime(txt)|accelerometerTimestamp_sinceReboot(s)|accelerometerAccelerationX(G)|accelerometerAccelerationY(G)|accelerometerAccelerationZ(G)|motionTimestamp_sinceReboot(s)|motionYaw(rad)|motionRoll(rad)|motionPitch(rad)|motionRotationRateX(rad/s)|motionRotationRateY(rad/s)|motionRotationRateZ(rad/s)|motionUserAccelerationX(G)|motionUserAccelerationY(G)|motionUserAccelerationZ(G)|motionAttitudeReferenceFrame(txt)|motionQuaternionX(R)|motionQuaternionY(R)|motionQuaternionZ(R)|motionQuaternionW(R)|motionGravityX(G)|motionGravityY(G)|motionGravityZ(G)|motionMagneticFieldX(µT)|motionMagneticFieldY(µT)|motionMagneticFieldZ(µT)|motionHeading(°)|motionMagneticFieldCalibrationAccuracy(Z)|label
2021-03-10 20:21:00.271 +0000|290346.0150974167|-0.1702728271484375|0.0461273193359375|-1.014083862304688|290345.9901344167|2.566877249977138|-0.165802679867669|-0.0303837603291478|0.01292758248746395|-0.02590639144182205|-0.008557150140404701|0.02141322195529938|-0.008177537471055984|0.04309719800949097|XArbitraryZVertical|-0.07511114333015979|0.03798458532894065|-0.9559488325820994|-0.2812069720644668|-0.164967879652977|0.03037908487021923|-0.9858309626579285|0|0|0|-1|-1|3
2021-03-10 20:21:00.292 +0000|290346.0350604167|-0.16973876953125|0.027496337890625|-0.9875335693359375|290346.0100974167|2.56674448503114|-0.1664023630115921|-0.03059471730339372|0.004162237048149109|-0.009036331437528133|-0.008383511565625668|-0.002899035811424255|0.001377228647470474|0.001274228096008301|XArbitraryZVertical|-0.07536531945078734|0.03817465826911212|-0.9559085803472386|-0.2812501992154355|-0.1655579656362534|0.03058994375169277|-0.9857255220413208|0|0|0|-1|-1|3
2021-03-10 20:21:00.294 +0000|290346.0550234167|-0.158447265625|0.0219573974609375|-0.9736175537109375|290346.0300604167|2.566766928877499|-0.1656776070180761|-0.03117435938470739|0.009892378002405167|0.01262699160724878|-0.004471771419048309|-0.009872540831565857|0.001850718632340431|-0.02456361055374146|XArbitraryZVertical|-0.0749371227820871|0.03834873662335151|-0.9559414956618461|-0.2812290191597985|-0.1648405641317368|0.03116931021213531|-0.985827624797821|0|0|0|-1|-1|3
2021-03-10 20:21:00.295 +0000|290346.0749864167|-0.1695404052734375|0.03955078125|-0.9828643798828125|290346.0500234167|2.566895578648155|-0.1655492667803504|-0.03103116196396841|9.930203668773174e-05|0.003889373503625393|0.005339224822819233|0.007213592529296875|-0.004796314984560013|0.008481919765472412|XArbitraryZVertical|-0.07489855661897805|0.03825747988117439|-0.9559637495306695|-0.2811759510612329|-0.1647147834300995|0.03102618269622326|-0.9858531355857849|0|0|0|-1|-1|3
2021-03-10 20:21:00.313 +0000|290346.0949494167|-0.164642333984375|0.0327606201171875|-0.9847869873046875|290346.0699864167|2.566992807211069|-0.1654955155380185|-0.03111003322441616|-0.01206322200596333|0.001642784103751183|0.001304447301663458|0.002552047371864319|-0.01351162046194077|0.009297072887420654|XArbitraryZVertical|-0.07486353258688531|0.03828395435131916|-0.9559798343242126|-0.2811272723840091|-0.1646613776683807|0.03110501542687416|-0.9858595728874207|0|0|0|-1|-1|3
2021-03-10 20:21:00.333 +0000|290346.1149124167|-0.16510009765625|0.0351409912109375|-0.9833526611328125|290346.0899494167|2.567017473860009|-0.1654550394968532|-0.03113575372989061|-0.006629607174545527|0.003017508424818516|0.001804233994334936|-0.00334736704826355|0.01069362834095955|-0.002308964729309082|XArbitraryZVertical|-0.07484101750463754|0.03828962642548162|-0.9559848666943329|-0.2811151220274554|-0.1646213531494141|0.03113072365522385|-0.9858654737472534|0|0|0|-1|-1|3
2021-03-10 20:21:00.353 +0000|290346.1348754167|-0.1666107177734375|0.03717041015625|-0.98822021484375|290346.1298844167|2.566973558251195|-0.1653337508414958|-0.03130210615638356|-0.002074752701446414|0.00798595417290926|-0.003505931701511145|-0.005146250128746033|0.0042865090072155|0.0001167654991149902|XArbitraryZVertical|-0.07475861324600322|0.03835367469370644|-0.955983929879996|-0.2811314765889036|-0.1645009219646454|0.0312969945371151|-0.9858803153038025|0|0|0|-1|-1|3
2021-03-10 20:21:00.372 +0000|290346.1548384167|-0.166534423828125|0.0417938232421875|-0.9887237548828125|290346.1498474167|2.566950146413479|-0.1651917521528973|-0.03096841003361825|0.01386812701821327|0.004718629643321037|0.001797487260773778|-0.0003712177276611328|0.01020476222038269|-0.001604437828063965|XArbitraryZVertical|-0.07473760798153191|0.03817520602921836|-0.9559845506866612|-0.2811593469046097|-0.1643626242876053|0.03096345998346806|-0.985913872718811|0|0|0|-1|-1|3
2021-03-10 20:21:00.392 +0000|290346.1748004167|-0.1649017333984375|0.036895751953125|-0.990447998046875|290346.1698104167|2.567089817082337|-0.1651212817449907|-0.03069962637705965|0.0330231636762619|0.003860345110297203|0.002514410065487027|-0.001537978649139404|0.008169339969754219|-0.004026055335998535|XArbitraryZVertical|-0.07474469848325425|0.03803169948291481|-0.9560056173334246|-0.2811051028657756|-0.1642945110797882|0.03069480508565903|-0.9859336614608765|0|0|0|-1|-1|3
2021-03-10 20:21:00.412 +0000|290346.1947634167|-0.1614837646484375|0.03021240234375|-0.9826812744140625|290346.1897734167|2.567362095292903|-0.1651045289601697|-0.03005938347830668|0.03449920564889908|-0.0001231050118803978|0.01410067081451416|0.003346771001815796|0.002721032127737999|0.0002225637435913086|XArbitraryZVertical|-0.07483257797525374|0.03771334739849605|-0.9560417528046017|-0.2810020296812655|-0.1642811894416809|0.03005485609173775|-0.9859555959701538|0|0|0|-1|-1|3
2021-03-10 20:21:00.432 +0000|290346.2147264167|-0.1575164794921875|0.036956787109375|-0.9884490966796875|290346.2097364167|2.567752779069928|-0.1651914799425429|-0.02948401610673757|0.04978298395872116|-0.009046184830367565|0.01103146560490131|0.004411906003952026|0.0006105955690145493|-0.0002325773239135742|XArbitraryZVertical|-0.074962979106261|0.03743608511971901|-0.9560907292351607|-0.2808375803040989|-0.1643697321414948|0.02947974391281605|-0.9859581589698792|0|0|0|-1|-1|3
2021-03-10 20:21:00.452 +0000|290346.2346894167|-0.175506591796875|0.0514678955078125|-0.9920806884765625|290346.2296984167|2.568269139400491|-0.1655292500604987|-0.02843753682422886|0.08716513216495514|-0.02559363096952438|0.01726139895617962|0.004856720566749573|0.01888380758464336|-0.006544888019561768|XArbitraryZVertical|-0.07528214636449124|0.03696417675053386|-0.9561455583289861|-0.2806280424447637|-0.164707750082016|0.02843370474874973|-0.985932469367981|0|0|0|-1|-1|3
2021-03-10 20:21:00.472 +0000|290346.2546524167|-0.1748199462890625|0.0088653564453125|-0.9945526123046875|290346.2496614167|2.56825474452064|-0.1654007646165446|-0.02717510110728712|0.08860719949007034|0.08007624000310898|0.02598440460860729|-0.055277019739151|-0.001063957810401917|0.01218760013580322|XArbitraryZVertical|-0.07539900777541107|0.03634356375685568|-0.9561419986501265|-0.2806897606103309|-0.1645868420600891|0.02717175707221031|-0.9859882593154907|0|0|0|-1|-1|3
2021-03-10 20:21:00.492 +0000|290346.2746154167|-0.183807373046875|0.03839111328125|-0.9747772216796875|290346.2696244167|2.568543400591778|-0.1647929909831537|-0.02549868843164572|0.07867281883955002|0.006955737248063087|0.003452020464465022|0.04117684066295624|-0.001234441995620728|-0.001356124877929688|XArbitraryZVertical|-0.07535061976390701|0.03544644337421463|-0.9561964198137988|-0.2806320588088751|-0.1639948040246964|0.02549592591822147|-0.9861316680908203|0|0|0|-1|-1|3
2021-03-10 20:21:00.512 +0000|290346.2945784167|-0.158111572265625|0.0218963623046875|-0.9873504638671875|290346.2895874167|2.568843067820997|-0.1639550132260407|-0.02345370262866153|0.1128745526075363|0.0467720739543438|-0.006180189549922943|-0.007447183132171631|0.008820794522762299|0.004201412200927734|XArbitraryZVertical|-0.07524409546898266|0.03434043350971742|-0.9562582279171731|-0.2805874099310549|-0.1631765514612198|0.0234515517950058|-0.9863181114196777|0|0|0|-1|-1|3
2021-03-10 20:21:00.532 +0000|290346.3145414167|-0.167694091796875|0.0392913818359375|-0.9922027587890625|290346.3095504167|2.569138459739092|-0.1633924746674536|-0.0219332107968988|0.09122266620397568|0.01614630594849586|-0.003244054038077593|0.006941899657249451|0.005305495113134384|-0.005484282970428467|XArbitraryZVertical|-0.07519477861653788|0.03352379940762014|-0.9563114911454603|-0.2805177280284461|-0.1626272946596146|0.02193145267665386|-0.986443817615509|0|0|0|-1|-1|3
2021-03-10 20:21:00.552 +0000|290346.3345044167|-0.1669464111328125|0.0485687255859375|-0.998565673828125|290346.3295134167|2.569448937734317|-0.1634702171617202|-0.01996405839198016|0.1681518107652664|0.02650738693773746|-0.003062603995203972|-0.01078169047832489|0.03287845849990845|-0.01012539863586426|XArbitraryZVertical|-0.07551485397230623|0.03258190408663326|-0.9563392913080372|-0.2804479889638803|-0.1627106964588165|0.01996273174881935|-0.9864718317985535|0|0|0|-1|-1|3
2021-03-10 20:21:00.572 +0000|290346.3544674167|-0.1512451171875|0.04852294921875|-0.9890289306640625|290346.3494764167|2.570146657456095|-0.1627602507810423|-0.01540812755090288|0.314118355512619|0.03111572004854679|0.003253614995628595|0.002813190221786499|0.0401192232966423|-0.007580816745758057|XArbitraryZVertical|-0.0758281582820004|0.03027828842490736|-0.9564309128750247|-0.2803092225698047|-0.1620233505964279|0.01540751755237579|-0.9866666197776794|0|0|0|-1|-1|3
2021-03-10 20:21:00.592 +0000|290346.3744304167|-0.1275787353515625|-0.0360565185546875|-0.9595794677734375|290346.3694394167|2.571938899028203|-0.1624308859718858|-0.01028153743360869|0.2294141352176666|-0.008425189182162285|0.07817010581493378|0.03200934827327728|0.01033327542245388|0.02090358734130859|XArbitraryZVertical|-0.07641686507046072|0.02771281869252431|-0.9566515362129869|-0.2796612031885146|-0.1617090255022049|0.01028135605156422|-0.9867849349975586|0|0|0|-1|-1|3
2021-03-10 20:21:00.612 +0000|290346.3943934167|-0.163330078125|0.0042877197265625|-0.98419189453125|290346.3894024167|2.574031401513587|-0.1629997340027642|-0.007570370341589546|0.1675142496824265|-0.005641813389956951|0.08812288194894791|0.009594857692718506|-0.0519428476691246|0.01657813787460327|XArbitraryZVertical|-0.07709675257816485|0.02641521319414151|-0.9568966709869801|-0.2787598677563585|-0.1622742563486099|0.007570297922939062|-0.986716628074646|0|0|0|-1|-1|3
2021-03-10 20:21:00.633 +0000|290346.4143554167|-0.1833953857421875|-0.0072174072265625|-1.003067016601562|290346.4093654167|2.575774403111755|-0.1631228156740366|-0.005831854426515177|0.1383776366710663|-0.001361101865768433|0.03887952119112015|-0.01124739646911621|-0.00711355172097683|-0.01420736312866211|XArbitraryZVertical|-0.07742071800064006|0.02553326051064272|-0.9571175414998533|-0.2779930411089845|-0.1623975932598114|0.005831821355968714|-0.9867081642150879|0|0|0|-1|-1|3
2021-03-10 20:21:00.652 +0000|290346.4343184167|-0.147735595703125|0.0078277587890625|-0.9764556884765625|290346.4293284167|2.576899319615493|-0.1628124232648086|-0.004086232168880415|0.1458983272314072|0.01900734007358551|0.02512997388839722|-0.01342910528182983|-0.00310965022072196|-0.007541418075561523|XArbitraryZVertical|-0.07752903974895402|0.02461122609503357|-0.9572680370303223|-0.2775273596046183|-0.1620927155017853|0.004086220636963844|-0.986767053604126|0|0|0|-1|-1|3
2021-03-10 20:21:00.672 +0000|290346.4542814167|-0.1617431640625|-0.0294647216796875|-0.9720916748046875|290346.4492914167|2.577907151841206|-0.1626619898871803|-0.002162860966308655|0.09270806610584259|-0.003627132624387741|0.03524332866072655|0.01341623067855835|-0.01575843244791031|0.01803213357925415|XArbitraryZVertical|-0.07773611627717723|0.02363066410526311|-0.9573933510130656|-0.2771222963800372|-0.161945253610611|0.002162859309464693|-0.9867973923683167|0|0|0|-1|-1|3
2021-03-10 20:21:00.692 +0000|290346.4742444167|-0.179229736328125|0.0029144287109375|-0.991424560546875|290346.4692534167|2.578611197714782|-0.1626390824428318|-0.0003086640411812431|0.03084231913089752|0.00660041905939579|0.006439110729843378|-0.01179827749729156|-0.01132550276815891|0.004152595996856689|XArbitraryZVertical|-0.077990190090875|0.02271247448696249|-0.9574713966111003|-0.2768580589972467|-0.1619230210781097|0.0003086640499532223|-0.9868033528327942|0|0|0|-1|-1|3
2021-03-10 20:21:00.712 +0000|290346.4942074167|-0.1942596435546875|-0.02288818359375|-0.9843292236328125|290346.4892164167|2.577857657435493|-0.1627133225736963|0.0003091530336523229|0.005945206619799137|0.001930618658661842|-0.09135057032108307|-0.01953750848770142|-0.01321012619882822|-0.002268135547637939|XArbitraryZVertical|-0.07810280558248082|0.02245641029961323|-0.9573571179374258|-0.2772420349888041|-0.1619962751865387|-0.0003091530234087259|-0.9867913126945496|0|0|0|-1|-1|3
2021-03-10 20:21:00.732 +0000|290346.5141704167|-0.1559295654296875|-0.0288238525390625|-1.0023193359375|290346.5091794167|2.575604314104612|-0.1621474803068312|0.0008322989046445198|0.01210899278521538|0.06456827372312546|-0.1342998147010803|-0.01899731159210205|-0.02812887541949749|-0.004572570323944092|XArbitraryZVertical|-0.0778794799923332|0.0222153029349083|-0.9570601935350403|-0.2783471529693475|-0.1614378392696381|-0.0008322988287545741|-0.9868825078010559|0|0|0|-1|-1|3
2021-03-10 20:21:00.752 +0000|290346.5341334167|-0.1337738037109375|-0.002197265625|-0.97015380859375|290346.5291424167|2.573501894683984|-0.160811114676306|0.002135769743775004|0.03607294708490372|0.06161057204008102|-0.07593095302581787|0.02141618728637695|-0.01503036171197891|-0.01285874843597412|XArbitraryZVertical|-0.07739878494520282|0.021486885401238|-0.9568037600930106|-0.2794180402176786|-0.1601185500621796|-0.002135768067091703|-0.9870954751968384|0|0|0|-1|-1|3
2021-03-10 20:21:00.772 +0000|290346.5540964167|-0.144134521484375|0.01129150390625|-0.95599365234375|290346.5491054167|2.572554312562881|-0.1601139866661195|0.00255089724692077|-0.0107111344113946|0.008878487162292004|-0.03648882731795311|0.02834199368953705|-0.01321142725646496|0.03105968236923218|XArbitraryZVertical|-0.07711319022995557|0.02122741250538265|-0.956693262885066|-0.2798946549642017|-0.1594302207231522|-0.002550894394516945|-0.9872059226036072|0|0|0|-1|-1|3
2021-03-10 20:21:00.792 +0000|290346.5740594167|-0.15631103515625|0.0081939697265625|-0.9888916015625|290346.5690684167|2.571928074541228|-0.160192467298002|0.002592734525058346|0.005681304261088371|-0.003703617490828037|-0.02378350496292114|0.006645157933235168|0.01907223090529442|0.01995390653610229|XArbitraryZVertical|-0.07714993908471314|0.02124253881812949|-0.9566020088549955|-0.2801949213851494|-0.1595076769590378|-0.002592731732875109|-0.9871932864189148|0|0|0|-1|-1|3
2021-03-10 20:21:00.812 +0000|290346.5940224167|-0.168609619140625|0.002655029296875|-0.9989776611328125|290346.5890314167|2.571609910263337|-0.1602618466681371|0.003253265552147765|-0.01046489179134369|0.01179827004671097|-0.01069149561226368|-0.008102923631668091|0.01593332178890705|-0.01399457454681396|XArbitraryZVertical|-0.07727225522518816|0.02094860057261069|-0.9565468980175945|-0.2803716384253384|-0.1595758646726608|-0.003253259928897023|-0.9871802926063538|0|0|0|-1|-1|3
2021-03-10 20:21:00.832 +0000|290346.6139854167|-0.15228271484375|-0.03131103515625|-0.97271728515625|290346.6089944167|2.571291170762847|-0.1598456059113436|0.003380624368944828|-0.03885810077190399|0.01774644106626511|-0.01557253673672676|0.0001072883605957031|-0.02048411965370178|0.002001464366912842|XArbitraryZVertical|-0.077087694599245|0.02084161665220603|-0.9565167293559919|-0.2805332818928183|-0.1591648757457733|-0.003380617825314403|-0.9872462153434753|0|0|0|-1|-1|3
2021-03-10 20:21:00.852 +0000|290346.6339484167|-0.14935302734375|-0.0213775634765625|-0.97698974609375|290346.6289574167|2.570796769723835|-0.1592358318526833|0.00234888769663734|-0.0870850458741188|0.01286300085484982|-0.01557954959571362|0.009210333228111267|-0.02667332254350185|0.01519334316253662|XArbitraryZVertical|-0.07664621143018534|0.02126851647488763|-0.9564830316669262|-0.2807368751020703|-0.1585633158683777|-0.002348885638639331|-0.9873459935188293|0|0|0|-1|-1|3
2021-03-10 20:21:00.872 +0000|290346.6539104167|-0.1620941162109375|0.0133209228515625|-0.999481201171875|290346.6489204167|2.570173068877739|-0.1590733461431705|0.0004863709184601593|-0.06505338847637177|0.0022909976541996|-0.02258890122175217|0.006517365574836731|-0.004320139996707439|-0.003668665885925293|XArbitraryZVertical|-0.07630028567167929|0.02216028315352641|-0.9564231877099245|-0.2809661053713413|-0.1584033071994781|-0.0004863709036726505|-0.9873743653297424|0|0|0|-1|-1|3
2021-03-10 20:21:00.892 +0000|290346.6738734167|-0.1636962890625|0.0222320556640625|-0.99212646484375|290346.6688834167|2.569681334683199|-0.1589126927674902|-0.0005509687983669585|-0.02679131738841534|0.01670050993561745|-0.02024540863931179|-0.005726248025894165|0.01785113848745823|-0.01243239641189575|XArbitraryZVertical|-0.07607217601799085|0.02265249098788615|-0.9563717645635386|-0.2811634885735417|-0.1582446694374084|0.0005509687471203506|-0.9873997569084167|0|0|0|-1|-1|3
2021-03-10 20:21:00.912 +0000|290346.6938364167|-0.1551055908203125|0.007659912109375|-0.9795074462890625|290346.6888464167|2.569335267205924|-0.1586199199063975|-0.0007075043028236109|-0.01456243172287941|0.01321954466402531|-0.01320605166256428|0.001430943608283997|0.01352895330637693|0.0009958148002624512|XArbitraryZVertical|-0.07590623883789516|0.022699319833256|-0.956335952090795|-0.2813263290288351|-0.1579555571079254|0.000707504223100841|-0.9874459505081177|0|0|0|-1|-1|3
2021-03-10 20:21:00.932 +0000|290346.7137994167|-0.1576690673828125|-0.0032958984375|-0.9811553955078125|290346.7088084167|2.56911827354803|-0.158457109338268|-0.0002543733273986328|-0.01548758056014776|-0.00220974488183856|-0.003935499582439661|0.003238588571548462|0.00363662582822144|0.01226741075515747|XArbitraryZVertical|-0.07588969774900675|0.02246798159629434|-0.9563066095923798|-0.2814491726274938|-0.1577948331832886|0.0002543733280617744|-0.987471878528595|0|0|0|-1|-1|3
2021-03-10 20:21:00.952 +0000|290346.7337624167|-0.1686248779296875|-0.021514892578125|-0.988800048828125|290346.7287714167|2.56889486158695|-0.1584394379601295|-0.000545123484594902|-0.04919857159256935|0.006147148087620735|-0.01149949803948402|-0.006544500589370728|-0.01559028122574091|-0.002241015434265137|XArbitraryZVertical|-0.07583780655245803|0.0226129879433529|-0.9562790253513777|-0.2815451199420472|-0.1577773541212082|0.0005451234756037593|-0.9874745607376099|0|0|0|-1|-1|3
2021-03-10 20:21:00.972 +0000|290346.7537254167|-0.1547088623046875|-0.021728515625|-0.9746246337890625|290346.7487344167|2.568417386573137|-0.1582914086193095|-0.00249210888817369|-0.1176374331116676|0.008102547377347946|-0.01443092804402113|-0.001930400729179382|-0.03300967812538147|0.004996836185455322|XArbitraryZVertical|-0.0754872464261859|0.02354108586224283|-0.9562384747506365|-0.2817010805313116|-0.1576307117938995|0.002492106286808848|-0.9874950051307678|0|0|0|-1|-1|3
2021-03-10 20:21:00.992 +0000|290346.7736884167|-0.15362548828125|-0.020111083984375|-0.9832611083984375|290346.7686974167|2.567852006770371|-0.1581424598464261|-0.005890778899698827|-0.1845899820327759|0.003676800057291985|0.0004183247219771147|0.005030855536460876|-0.0293740127235651|0.01500070095062256|XArbitraryZVertical|-0.07492978305358784|0.02516613883939511|-0.9561989931469544|-0.2818433918251053|-0.157481387257576|0.005890744738280773|-0.9875043630599976|0|0|0|-1|-1|3
2021-03-10 20:21:01.012 +0000|290346.7936519167|-0.1723480224609375|-0.014739990234375|-0.9930877685546875|290346.7886609167|2.567224220225181|-0.1581305279267802|-0.01028899999631587|-0.2714498341083527|0.006542627699673176|0.009168762713670731|-0.008093833923339844|-0.01421031914651394|-0.002641201019287109|XArbitraryZVertical|-0.07429454790035103|0.02729021558210647|-0.9561516259347481|-0.2819745911846477|-0.1574639976024628|0.01028881873935461|-0.9874711036682129|0|0|0|-1|-1|3
2021-03-10 20:21:01.031 +0000|290346.8136149167|-0.174530029296875|0.0009613037109375|-0.9937744140625|290346.8086239167|2.566464468220397|-0.1580078335764379|-0.01533548812149116|-0.2913161814212799|0.028512854129076|-0.03966846317052841|-0.01777714490890503|-0.04760721698403358|-0.007354855537414551|XArbitraryZVertical|-0.07351091042023253|0.02971279026915571|-0.9560900483885706|-0.2821439627094178|-0.1573326736688614|0.01533488743007183|-0.9874265789985657|0|0|0|-1|-1|3
2021-03-10 20:21:01.051 +0000|290346.8335779167|-0.1543426513671875|0.01727294921875|-0.9835968017578125|290346.8285869167|2.565015688299237|-0.1576147113290443|-0.02070859978477412|-0.3361391425132751|0.013831433840096|-0.02638754621148109|0.001350700855255127|-0.02154634334146976|-0.005313575267791748|XArbitraryZVertical|-0.07253823605188771|0.03227748299479091|-0.9559367919793222|-0.2826326475756865|-0.1569292843341827|0.02070711925625801|-0.9873927235603333|0|0|0|-1|-1|3
2021-03-10 20:21:01.071 +0000|290346.8535409167|-0.144012451171875|0.040771484375|-0.973663330078125|290346.8485499167|2.563379088815698|-0.1575258852481475|-0.02593821141120799|-0.2813254594802856|-0.0004822053015232086|-0.03870093449950218|0.006050378084182739|0.00693213939666748|0.01005232334136963|XArbitraryZVertical|-0.07172394798419846|0.03482190659946544|-0.9557378947054277|-0.2832103470119242|-0.1568224430084229|0.02593530341982841|-0.9872862100601196|0|0|0|-1|-1|3
2021-03-10 20:21:01.091 +0000|290346.8735039167|-0.152496337890625|0.062744140625|-1.001922607421875|290346.8685129167|2.561693830423769|-0.1576781052834595|-0.02958898877161141|-0.1866071075201035|0.002833429723978043|-0.05021671205759048|0.009343311190605164|0.02469085156917572|0.0002390146255493164|XArbitraryZVertical|-0.07124516963525822|0.03664696935510135|-0.9555104125584495|-0.2838680182025982|-0.1569568067789078|0.02958467230200768|-0.9871622323989868|0|0|0|-1|-1|3
2021-03-10 20:21:01.111 +0000|290346.8934669167|-0.1383514404296875|0.1356353759765625|-0.99737548828125|290346.8884759167|2.560954972447329|-0.1575351569341041|-0.03112458257459224|-0.07858335971832275|0.01349747367203236|0.0119483033195138|0.007424890995025635|0.07029036432504654|-0.01913267374038696|XArbitraryZVertical|-0.07094337965643648|0.03738601097429246|-0.9554167278951682|-0.284162406661281|-0.1568083763122559|0.03111955709755421|-0.9871386289596558|0|0|0|-1|-1|3
2021-03-10 20:21:01.145 +0000|290346.9134289167|-0.1486358642578125|0.0904083251953125|-0.9762115478515625|290346.9084389167|2.56165525548247|-0.1574138874448989|-0.03022965332504383|0.08730566501617432|-0.00895095057785511|0.04739541932940483|0.01959279179573059|0.1013209819793701|-0.005384206771850586|XArbitraryZVertical|-0.07102657006226638|0.03691670645596619|-0.9555170022899344|-0.2838658261324531|-0.1566929668188095|0.03022504970431328|-0.9871847629547119|0|0|0|-1|-1|3
2021-03-10 20:21:01.151 +0000|290346.9333919167|-0.1586456298828125|-0.004119873046875|-0.9788055419921875|290346.9284019167|2.562563901980023|-0.1574744135152473|-0.02848210129409083|0.07705754786729813|-0.001009777653962374|0.02608525007963181|-0.002205267548561096|-0.001195525750517845|0.009671628475189209|XArbitraryZVertical|-0.0713218827283595|0.03605857149171979|-0.9556362781589059|-0.2835000005456478|-0.1567607671022415|0.02847824990749359|-0.9872259497642517|0|0|0|-1|-1|3
2021-03-10 20:21:01.171 +0000|290346.9533549167|-0.1630859375|0.000762939453125|-0.992828369140625|290346.9483649167|2.562891665092097|-0.1575161733129304|-0.02788243270991891|0.04083593189716339|0.0003065159544348717|-0.01145706512033939|-0.004709601402282715|-0.02508645318448544|-0.0005111098289489746|XArbitraryZVertical|-0.07143333372087354|0.03576644326819001|-0.9556786191625375|-0.2833665184321729|-0.1568046510219574|0.02787882089614868|-0.9872360825538635|0|0|0|-1|-1|3
2021-03-10 20:21:01.192 +0000|290346.9733179167|-0.1576995849609375|0.0013275146484375|-0.988250732421875|290346.9683279167|2.56247870107099|-0.1574474870792233|-0.02856005999976476|-0.01002280693501234|0.006047386676073074|-0.02859539352357388|-0.002567887306213379|-0.03179103136062622|-0.002319753170013428|XArbitraryZVertical|-0.07129634751681208|0.03609501702300008|-0.9556254797643507|-0.2835380759342254|-0.1567338407039642|0.02855617739260197|-0.9872279763221741|0|0|0|-1|-1|3
2021-03-10 20:21:01.211 +0000|290346.9932809167|-0.1526336669921875|0.0167694091796875|-0.9780426025390625|290346.9882899167|2.561966715865077|-0.1572627807897378|-0.0313989103046798|-0.08775903284549713|0.01030626054853201|-0.00888800248503685|0.0005170851945877075|-0.01901886984705925|0.006673634052276611|XArbitraryZVertical|-0.07079291442187792|0.03744245735881576|-0.955571031239386|-0.2836731915202936|-0.1565381586551666|0.03139375150203705|-0.9871728420257568|0|0|0|-1|-1|3
2021-03-10 20:21:01.231 +0000|290347.0132439167|-0.1667327880859375|0.047698974609375|-0.9915924072265625|290347.0082529167|2.561553071083619|-0.1572632952427685|-0.03415076263808219|-0.1059660166501999|-0.006853071972727776|-0.002354558557271957|0.001830980181694031|-0.004236891865730286|0.001289665699005127|XArbitraryZVertical|-0.07039150977054023|0.0387708791826514|-0.9555216976168441|-0.283760839118988|-0.1565245389938354|0.03414412587881088|-0.9870837330818176|0|0|0|-1|-1|3
2021-03-10 20:21:01.251 +0000|290347.0332069167|-0.1582489013671875|0.02593994140625|-0.9865875244140625|290347.0282159167|2.56101838667987|-0.1572754261163901|-0.0350668060401749|-0.08280234038829803|0.001419558189809322|-0.01247838698327541|-0.008751600980758667|0.006581619381904602|-0.001718997955322266|XArbitraryZVertical|-0.07025566257761627|0.03922867800037232|-0.9554481430422251|-0.2839793547102343|-0.1565315574407578|0.0350596196949482|-0.9870505332946777|0|0|0|-1|-1|3
2021-03-10 20:21:01.271 +0000|290347.0531699167|-0.1566619873046875|0.04840087890625|-0.986572265625|290347.0481789167|2.560533307245372|-0.1572259284105459|-0.03572648474507353|-0.06514369696378708|0.003268750384449959|-0.008928482420742512|-0.00518779456615448|0.004762694239616394|0.005376279354095459|XArbitraryZVertical|-0.0701278902250418|0.0395535426328286|-0.9553827570291173|-0.284185507142297|-0.1564790457487106|0.035718884319067|-0.9870352149009705|0|0|0|-1|-1|3
2021-03-10 20:21:01.292 +0000|290347.0731329167|-0.160888671875|0.0450897216796875|-0.98858642578125|290347.0681419167|2.560172266817036|-0.1571937165536794|-0.03601005049435395|-0.0302464198321104|0.007667174562811852|-0.01356291584670544|-0.003802120685577393|0.0156029649078846|-0.001998722553253174|XArbitraryZVertical|-0.07006466216126904|0.03969695703090925|-0.9553333430300686|-0.2843472274284148|-0.1564456522464752|0.036002267152071|-0.9870302081108093|0|0|0|-1|-1|3
2021-03-10 20:21:01.311 +0000|290347.0930959167|-0.153564453125|0.0349884033203125|-0.9852142333984375|290347.0881049167|2.559787463415756|-0.1570290373668158|-0.03613837739512125|-0.01865381188690662|0.009735598228871822|-0.01671574264764786|-0.0004100799560546875|-0.0002113133668899536|0.00360715389251709|XArbitraryZVertical|-0.0699599369339798|0.03974825085187032|-0.955284703961965|-0.284529131569638|-0.1562823802232742|0.03613051027059555|-0.9870513677597046|0|0|0|-1|-1|3
2021-03-10 20:21:01.331 +0000|290347.1130589167|-0.157257080078125|0.0286712646484375|-0.9851531982421875|290347.1080679167|2.559352344735503|-0.1569932038883255|-0.03696069376208558|-0.04440050572156906|0.004381366074085236|-0.01216741837561131|0.001899704337120056|-0.007594358175992966|0.004315495491027832|XArbitraryZVertical|-0.06981597450007125|0.04015077911545503|-0.9552261498954855|-0.2847046792473571|-0.156242311000824|0.03695227950811386|-0.9870272874832153|0|0|0|-1|-1|3
2021-03-10 20:21:01.351 +0000|290347.1330219167|-0.1515350341796875|0.030487060546875|-0.98797607421875|290347.1280309167|2.558851923254743|-0.1569037302377237|-0.03794875488576735|-0.0733657106757164|0.003672486171126366|-0.0144003015011549|0.002904251217842102|-0.007361028343439102|0.0004477500915527344|XArbitraryZVertical|-0.06962104114002715|0.04062696019554853|-0.9551603225057873|-0.2849057770370499|-0.156148225069046|0.0379396453499794|-0.9870046973228455|0|0|0|-1|-1|3
2021-03-10 20:21:01.371 +0000|290347.1529849167|-0.15570068359375|0.0512542724609375|-0.991241455078125|290347.1479939167|2.558375488671082|-0.1568257444698138|-0.03939023615237065|-0.05356498807668686|0.009763774462044239|-0.01378999371081591|0.001918300986289978|0.003527674823999405|-0.002143383026123047|XArbitraryZVertical|-0.06936654497573169|0.0413201751174838|-0.9550980275393334|-0.2850767962413935|-0.1560625433921814|0.03938005119562149|-0.986961841583252|0|0|0|-1|-1|3
2021-03-10 20:21:01.391 +0000|290347.1729469167|-0.152801513671875|0.0433502197265625|-0.989471435546875|290347.1679569167|2.557973935983188|-0.1567493494213916|-0.0402647471341971|-0.03583335131406784|0.003918934613466263|-0.01048829592764378|0.0008303672075271606|0.007612962275743484|-0.004775106906890869|XArbitraryZVertical|-0.06919573718546365|0.04174041105178018|-0.9550449192552626|-0.2852348169413358|-0.1559817045927048|0.04025386646389961|-0.9869393706321716|0|0|0|-1|-1|3
2021-03-10 20:21:01.411 +0000|290347.1929099167|-0.15313720703125|0.042388916015625|-0.9851226806640625|290347.1879199167|2.557726378350779|-0.1566590996057207|-0.04069500120969201|-0.02476060763001442|0.004194784909486771|-0.004325208719819784|0.003820866346359253|0.00516890361905098|-0.0003378987312316895|XArbitraryZVertical|-0.069085438053031|0.04194135219274036|-0.9550134052324002|-0.2853375364674722|-0.1558899283409119|0.04068376868963242|-0.9869362711906433|0|0|0|-1|-1|3
2021-03-10 20:21:01.431 +0000|290347.2128729167|-0.1566314697265625|0.044403076171875|-0.983978271484375|290347.2078829167|2.557611983246721|-0.1565888516214298|-0.0409295622058461|-0.02316595613956451|0.001456842757761478|0.0002087343018501997|0.000240519642829895|0.002905115485191345|0.001815080642700195|XArbitraryZVertical|-0.06901566711525729|0.0420471746054281|-0.9549998595309903|-0.2853841591282502|-0.1558191031217575|0.04091813415288925|-0.9869377613067627|0|0|0|-1|-1|3
2021-03-10 20:21:01.451 +0000|290347.2328359167|-0.158721923828125|0.047210693359375|-0.9870147705078125|290347.2278459167|2.557496515616835|-0.1565341570283969|-0.04127107326151304|-0.01905501820147038|0.002446579746901989|0.0004501056391745806|0.0003979653120040894|0.004410207271575928|0.00200808048248291|XArbitraryZVertical|-0.06893785302209926|0.04220626393256259|-0.9549858093147942|-0.2854267027127379|-0.1557629257440567|0.04125935956835747|-0.9869323968887329|0|0|0|-1|-1|3
2021-03-10 20:21:01.471 +0000|290347.2527989167|-0.1590576171875|0.0498046875|-0.98907470703125|290347.2478079167|2.557454372666518|-0.1564806944048127|-0.04171694418056449|-0.009808721952140331|0.004296038299798965|0.002268333919346333|-0.003365546464920044|0.00546007975935936|-0.0004889965057373047|XArbitraryZVertical|-0.06884711210953476|0.04241277744780427|-0.9549822099870668|-0.2854299146576551|-0.1557072848081589|0.04170484468340874|-0.9869224429130554|0|0|0|-1|-1|3
2021-03-10 20:21:01.491 +0000|290347.2727619167|-0.1590728759765625|0.046295166015625|-0.98748779296875|290347.2677709167|2.557410540314652|-0.1564068231732751|-0.04184880789588277|0.003433663165196776|-0.001790616661310196|-0.005931272637099028|-0.002218618988990784|0.006594810634851456|-0.00153583288192749|XArbitraryZVertical|-0.06879188097470419|0.04246664439933453|-0.9549786874004087|-0.2854471069816549|-0.1556335240602493|0.04183659330010414|-0.9869285225868225|0|0|0|-1|-1|3
2021-03-10 20:21:01.511 +0000|290347.2927249167|-0.1556854248046875|0.0445709228515625|-0.986083984375|290347.2877339167|2.55725451702222|-0.1563284785217285|-0.04180526027958496|0.005810534581542015|0.003861144185066223|-0.01003733463585377|-0.001975223422050476|0.001450333744287491|0.0002634525299072266|XArbitraryZVertical|-0.06875744749293285|0.04244005375768933|-0.9549590332574677|-0.2855250052063343|-0.1555564850568771|0.0417930856347084|-0.9869425296783447|0|0|0|-1|-1|3
2021-03-10 20:21:01.531 +0000|290347.3126879167|-0.150665283203125|0.0429229736328125|-0.9844970703125|290347.3076969167|2.55701085608301|-0.1562641343553424|-0.04172843750448006|0.005196192767471075|0.005709591321647167|-0.0162581242620945|0.001211896538734436|0.0009472556412220001|0.005113661289215088|XArbitraryZVertical|-0.0687326424405772|0.0424025963549761|-0.9549263893916644|-0.2856458485396127|-0.1554934829473495|0.0417163297533989|-0.9869557023048401|0|0|0|-1|-1|3
2021-03-10 20:21:01.551 +0000|290347.3326509167|-0.15142822265625|0.043609619140625|-0.9876556396484375|290347.3276599167|2.556804179903333|-0.1561866590137369|-0.04167814238704169|0.002028046874329448|0.004572208039462566|-0.006837546359747648|0.002112314105033875|0.004598580300807953|-0.00128096342086792|XArbitraryZVertical|-0.06869853061660046|0.04237463977171829|-0.9548994922582988|-0.2857482285965208|-0.155417338013649|0.04166607558727264|-0.9869698286056519|0|0|0|-1|-1|3
2021-03-10 20:21:01.570 +0000|290347.3526139167|-0.1530609130859375|0.0436248779296875|-0.98736572265625|290347.3476229167|2.556672039890643|-0.1561373207316985|-0.0416540402621343|0.009399859234690666|0.003344756551086903|-0.009200569242238998|0.004200011491775513|0.002211775630712509|0.001565873622894287|XArbitraryZVertical|-0.06867565777030248|0.04236063186049339|-0.9548822627956212|-0.2858133241555548|-0.1553688049316406|0.04164199531078339|-0.9869784712791443|0|0|0|-1|-1|3
2021-03-10 20:21:01.590 +0000|290347.3725769167|-0.1509857177734375|0.042236328125|-0.985626220703125|290347.3675859167|2.556556144834756|-0.1560982819731616|-0.04146449954051372|0.01513947080820799|0.001854825764894485|-0.006180810276418924|0.003231912851333618|0.003698151558637619|-0.0003276467323303223|XArbitraryZVertical|-0.06868196360397588|0.04226862740199368|-0.9548666763460432|-0.2858770089307835|-0.1553314924240112|0.04145262017846107|-0.9869922995567322|0|0|0|-1|-1|3
2021-03-10 20:21:01.610 +0000|290347.3925399167|-0.153961181640625|0.0373687744140625|-0.985992431640625|290347.3875489167|2.556480201701961|-0.1560928447663371|-0.04121108932755725|0.01102408859878778|0.000377570278942585|-0.006101714912801981|0.002190589904785156|0.003752976655960083|-0.0002401471138000488|XArbitraryZVertical|-0.06871437124718616|0.04214959029494763|-0.9548557447932735|-0.2859236794666441|-0.1553277522325516|0.04119942337274551|-0.98700350522995|0|0|0|-1|-1|3
2021-03-10 20:21:01.649 +0000|290347.4125029167|-0.1504669189453125|0.037322998046875|-0.9857940673828125|290347.4075119167|2.556400564541031|-0.1560159157918231|-0.04120071106578851|-0.001360010239295661|0.001594048924744129|-0.005938640329986811|0.003533810377120972|-0.0112665630877018|0.005021274089813232|XArbitraryZVertical|-0.06867746919848837|0.0421363771179056|-0.9548469500972849|-0.2859637019233569|-0.1552518904209137|0.04118905588984489|-0.9870158433914185|0|0|0|-1|-1|3
2021-03-10 20:21:01.651 +0000|290347.4324649167|-0.157470703125|0.043212890625|-0.98919677734375|290347.4274749167|2.556388428404937|-0.1559831879466503|-0.04133244161499489|-0.0007806229405105114|0.002841472625732422|0.001540758763439953|-0.002755463123321533|0.004821915179491043|0.0005500912666320801|XArbitraryZVertical|-0.06864254619274347|0.04219494423690182|-0.954846558520382|-0.2859649201745226|-0.1552187502384186|0.04132067412137985|-0.9870155453681946|0|0|0|-1|-1|3
2021-03-10 20:21:01.671 +0000|290347.4524279167|-0.157958984375|0.043853759765625|-0.9854736328125|290347.4474379167|2.556393851765302|-0.1559338636384624|-0.04140121428646092|0.002823200076818466|0.002292489632964134|0.002081912942230701|-0.002026394009590149|0.004203885793685913|-0.001352369785308838|XArbitraryZVertical|-0.06860917673343256|0.04222050761065044|-0.9548490846857074|-0.2859605669882602|-0.1551696211099625|0.04138938710093498|-0.9870204329490662|0|0|0|-1|-1|3
2021-03-10 20:21:01.690 +0000|290347.4723909167|-0.157073974609375|0.041290283203125|-0.9860992431640625|290347.4674009167|2.556412684081353|-0.1559112776708148|-0.04138496924766084|0.006622549146413803|-0.0007845265790820122|-8.536782115697861e-05|-0.001316159963607788|0.004418477416038513|0.001871407032012939|XArbitraryZVertical|-0.06860114248118855|0.04220888421868917|-0.9548524981817795|-0.2859526740569118|-0.1551474332809448|0.04137315601110458|-0.9870246052742004|0|0|0|-1|-1|3
2021-03-10 20:21:01.710 +0000|290347.4923539167|-0.15728759765625|0.0416107177734375|-0.9868011474609375|290347.4873639167|2.556384062013191|-0.155915064292662|-0.04108293394979667|0.007163436617702246|-0.001333031803369522|-0.006443309132009745|-0.002226009964942932|-0.0001472979784011841|0.000937044620513916|XArbitraryZVertical|-0.0686459867720436|0.04206634791844518|-0.954847950535302|-0.2859785094111106|-0.1551530957221985|0.04107137769460678|-0.9870362877845764|0|0|0|-1|-1|3
2021-03-10 20:21:01.730 +0000|290347.5123169167|-0.156585693359375|0.0424652099609375|-0.9870452880859375|290347.5073259167|2.556304663134387|-0.1559071405354392|-0.04099580455139249|0.003964697010815144|0.0025760093703866|-0.004693346563726664|-0.0001886039972305298|-0.0001212731003761292|-0.0004925131797790527|XArbitraryZVertical|-0.0686531350929277|0.0420263832266969|-0.954836674820207|-0.2860200176418081|-0.1551458388566971|0.04098432138562202|-0.9870410561561584|0|0|0|-1|-1|3
2021-03-10 20:21:01.750 +0000|290347.5322799167|-0.154205322265625|0.043853759765625|-0.989166259765625|290347.5272889167|2.556258722466008|-0.1558821511333417|-0.0409721712105531|0.008204566314816475|-0.001027354039251804|-0.002931132446974516|-0.0007471740245819092|0.0004821754992008209|-0.0008691549301147461|XArbitraryZVertical|-0.06864365762924506|0.04201311422576525|-0.9548309098009348|-0.2860434073750664|-0.1551213264465332|0.04096071049571037|-0.9870458841323853|0|0|0|-1|-1|3
2021-03-10 20:21:01.770 +0000|290347.5522429167|-0.1525421142578125|0.0382080078125|-0.985107421875|290347.5472519167|2.556305564574719|-0.1559156628614118|-0.04098018648040117|0.005563609302043915|-0.001107994932681322|0.005084804724901915|0.001010105013847351|-0.001524742692708969|0.001353144645690918|XArbitraryZVertical|-0.06865947547550359|0.04202012171352952|-0.9548365299805734|-0.2860200786943449|-0.1551543474197388|0.04096871614456177|-0.9870404005050659|0|0|0|-1|-1|3
2021-03-10 20:21:01.790 +0000|290347.5722059167|-0.1536865234375|0.04022216796875|-0.9862060546875|290347.5672149167|2.556351409443163|-0.155989688470939|-0.04098791487240439|0.002374473726376891|-0.002157013863325119|0.001351851969957352|0.002319082617759705|-0.001532461494207382|0.002180576324462891|XArbitraryZVertical|-0.06869466490293112|0.04203281962880492|-0.9548405390605537|-0.2859963084694724|-0.1552273631095886|0.04097643867135048|-0.9870285987854004|0|0|0|-1|-1|3
2021-03-10 20:21:01.810 +0000|290347.5921689167|-0.1542816162109375|0.041748046875|-0.985565185546875|290347.5871779167|2.556341111981992|-0.1560389303562466|-0.04101730190765062|-0.003619769122451544|-0.001237424556165934|-0.001717707607895136|0.001116260886192322|0.0006659626960754395|0.0007678866386413574|XArbitraryZVertical|-0.06871371018762845|0.04205423129922713|-0.9548374178238449|-0.2859990069225175|-0.1552757769823074|0.04100580140948296|-0.9870197176933289|0|0|0|-1|-1|3
2021-03-10 20:21:01.830 +0000|290347.6121319167|-0.152130126953125|0.0416259765625|-0.985504150390625|290347.6071409167|2.556313971550292|-0.1560546429896383|-0.04111183299375989|-0.002995374379679561|-0.004180643707513809|0.00157369312364608|9.356439113616943e-05|-0.0008322969079017639|-0.0008405447006225586|XArbitraryZVertical|-0.0687069769079026|0.0421024977810914|-0.9548331402313099|-0.2860078351405196|-0.1552906781435013|0.04110025241971016|-0.9870134592056274|0|0|0|-1|-1|3
2021-03-10 20:21:01.850 +0000|290347.6320949167|-0.15338134765625|0.040252685546875|-0.98736572265625|290347.6271039167|2.556386335386172|-0.1561176188965501|-0.04118794673576914|-0.001638726564124227|-0.003343185875564814|0.007611611858010292|0.003115445375442505|0.002570655196905136|0.002472996711730957|XArbitraryZVertical|-0.0687275690175983|0.0421453196594468|-0.9548414073132091|-0.2859688698199107|-0.1553523540496826|0.04117630049586296|-0.987000584602356|0|0|0|-1|-1|3
2021-03-10 20:21:01.870 +0000|290347.6520579167|-0.1606292724609375|0.0418548583984375|-0.990142822265625|290347.6470669167|2.55658619815397|-0.156155662989875|-0.04116511688403558|0.004758934956043959|0.0001940783113241196|0.007334554102271795|-0.002736732363700867|0.0001367963850498199|-0.0014076828956604|XArbitraryZVertical|-0.06875324591977455|0.04213300026293663|-0.9548686070058214|-0.2858735345428416|-0.1553900539875031|0.04115349054336548|-0.9869955778121948|0|0|0|-1|-1|3
2021-03-10 20:21:01.890 +0000|290347.6720209167|-0.1590576171875|0.0396728515625|-0.98284912109375|290347.6670299167|2.556724239928731|-0.1560778269993442|-0.0412628955090859|-0.008254202082753181|0.002697768621146679|0.005629509687423706|-0.003699183464050293|-0.003867149353027344|-0.0001483559608459473|XArbitraryZVertical|-0.06870486740268351|0.04216377032238522|-0.9548911540512472|-0.2858053351985854|-0.1553125977516174|0.04125118628144264|-0.9870037436485291|0|0|0|-1|-1|3
2021-03-10 20:21:01.910 +0000|290347.6919829167|-0.15191650390625|0.032562255859375|-0.980255126953125|290347.6869929167|2.556835229446021|-0.155998432863097|-0.04153259897341086|-0.02441885694861412|0.001403952017426491|0.007912637665867805|0.000355839729309082|5.95487654209137e-05|0.004659473896026611|XArbitraryZVertical|-0.06863034691961331|0.04227725970078039|-0.9549101298980445|-0.2857431820282776|-0.1552325040102005|0.04152065888047218|-0.9870049953460693|0|0|0|-1|-1|3
2021-03-10 20:21:01.930 +0000|290347.7119459167|-0.1602020263671875|0.036895751953125|-0.9913330078125|290347.7069559167|2.55691999669609|-0.1559730310895439|-0.04215997864777567|-0.03152087703347206|0.001136091537773609|0.01190214231610298|0.001822054386138916|-0.01109584793448448|-0.0001385211944580078|XArbitraryZVertical|-0.0685294124659033|0.04256997725116072|-0.9549238914986791|-0.2856779676641916|-0.1552033573389053|0.04214749112725258|-0.986983060836792|0|0|0|-1|-1|3
2021-03-10 20:21:01.950 +0000|290347.7319089167|-0.16168212890625|0.0392608642578125|-0.9847412109375|290347.7269189167|2.557102239800959|-0.1558811044245393|-0.04287790748399041|-0.04442112520337105|0.007365438155829906|0.01759171858429909|-0.00794750452041626|-0.004473645240068436|-0.005159318447113037|XArbitraryZVertical|-0.06838574768022232|0.04289305774550022|-0.9549538368166923|-0.2855639616384266|-0.1551078855991364|0.04286476969718933|-0.986967146396637|0|0|0|-1|-1|3
2021-03-10 20:21:01.970 +0000|290347.7518719167|-0.1513519287109375|0.047882080078125|-0.982025146484375|290347.7468809167|2.557305748927514|-0.1557270125826692|-0.04373565942797188|-0.04389725252985954|0.006538526155054569|0.01904056780040264|-0.0019407719373703|-0.007375273853540421|0.007187545299530029|XArbitraryZVertical|-0.06819272370852444|0.04327326017418261|-0.9549889241878001|-0.2854355161886898|-0.1549500375986099|0.04372171685099602|-0.9869543313980103|0|0|0|-1|-1|3
2021-03-10 20:21:01.990 +0000|290347.7718349167|-0.1509857177734375|0.04986572265625|-0.9867095947265625|290347.7668439167|2.5575500752284|-0.1556602302880381|-0.04451008568834935|-0.03558392822742462|-0.0001242766156792641|0.0194559320807457|0.005251169204711914|0.009856428951025009|0.004310727119445801|XArbitraryZVertical|-0.0680543757256632|0.04362481844368943|-0.955026562252467|-0.2852890064649982|-0.1548788398504257|0.04449538886547089|-0.9869309663772583|0|0|0|-1|-1|3
2021-03-10 20:21:02.010 +0000|290347.7917972917|-0.1475677490234375|0.0438385009765625|-0.9883880615234375|290347.7868062917|2.55776735679332|-0.1555642339141587|-0.04502447671025654|-0.02912606112658978|0.01042082812637091|0.01922334916889668|0.001261875033378601|-0.003032326698303223|0.001022219657897949|XArbitraryZVertical|-0.06793907345652449|0.04384911637794892|-0.9550610452681029|-0.2851665316929668|-0.1547805219888687|0.04500926658511162|-0.9869230985641479|0|0|0|-1|-1|3
2021-03-10 20:21:02.030 +0000|290347.8117602917|-0.150177001953125|0.061004638671875|-0.9832000732421875|290347.8067692917|2.558091414884289|-0.1555022567881229|-0.0454172367483761|-0.0167069099843502|-0.00351368123665452|0.01908548548817635|0.008049175143241882|0.01595397293567657|0.001777231693267822|XArbitraryZVertical|-0.06785994873954686|0.04401664150566571|-0.9551095016642305|-0.2849972723813959|-0.1547166109085083|0.04540162533521652|-0.986915111541748|0|0|0|-1|-1|3
2021-03-10 20:21:02.050 +0000|290347.8317232917|-0.1516876220703125|0.0399017333984375|-0.9862823486328125|290347.8267322917|2.558317796120917|-0.1555709483164967|-0.04562589032639507|-0.015241171233356|-0.0006681466475129128|0.01384039036929607|0.003858298063278198|0.0002120882272720337|0.003939211368560791|XArbitraryZVertical|-0.06786766004687342|0.0441182852750925|-0.9551394964954325|-0.2848792166697506|-0.1547829359769821|0.04561006277799606|-0.9868951439857483|0|0|0|-1|-1|3
2021-03-10 20:21:02.070 +0000|290347.8516862917|-0.1538848876953125|0.0534210205078125|-0.9893798828125|290347.8466952917|2.55841925938382|-0.1555503329601692|-0.04617061933210646|-0.01374001428484917|0.0007785884663462639|0.006321931723505259|0.0003703087568283081|0.004016689956188202|-0.001194000244140625|XArbitraryZVertical|-0.06778154840522332|0.04437177731634472|-0.95515475397785|-0.2848091536161129|-0.1547587066888809|0.0461542159318924|-0.9868736267089844|0|0|0|-1|-1|3
2021-03-10 20:21:02.090 +0000|290347.8716492917|-0.1561279296875|0.03228759765625|-0.984375|290347.8666582917|2.558287131842142|-0.1555182022531126|-0.04649939631068851|-0.02135442569851875|0.006999892182648182|-0.01514722965657711|-0.001296430826187134|0.0003771074116230011|0.002366483211517334|XArbitraryZVertical|-0.06771587482729939|0.0445285218052176|-0.9551370778508324|-0.284859666637807|-0.1547246426343918|0.0464826412498951|-0.9868635535240173|0|0|0|-1|-1|3
2021-03-10 20:21:02.109 +0000|290347.8916122917|-0.15496826171875|0.0332183837890625|-0.987884521484375|290347.8866212917|2.557610608721941|-0.1553321632270784|-0.04693519881180284|-0.0200315322726965|0.01623722538352013|-0.03752319887280464|-0.0007355064153671265|-0.01536278054118156|0.001703739166259766|XArbitraryZVertical|-0.06754907921084136|0.04473277615407261|-0.955046919426665|-0.2851691853247357|-0.1545379012823105|0.04691796749830246|-0.9868721961975098|0|0|0|-1|-1|3
2021-03-10 20:21:02.145 +0000|290347.9115752917|-0.141448974609375|0.0621337890625|-0.973541259765625|290347.9065842917|2.556844249351234|-0.155062473313944|-0.0471360638399495|-0.007571667432785034|0.008916090242564678|-0.0319807156920433|0.004718929529190063|0.01008659973740578|-0.0007206201553344727|XArbitraryZVertical|-0.06737413472596183|0.04481595500624141|-0.9549466818577499|-0.2855330460564346|-0.1542702913284302|0.04711861163377762|-0.986904501914978|0|0|0|-1|-1|3
2021-03-10 20:21:02.149 +0000|290347.9315382917|-0.15655517578125|0.0570220947265625|-0.9850006103515625|290347.9265472917|2.556309759506519|-0.1550997470855632|-0.0471470711622488|-0.002723665209487081|-0.003686041571199894|-0.02100937999784946|0.00838722288608551|0.005055464804172516|0.009282886981964111|XArbitraryZVertical|-0.06737835462121512|0.0448445341219743|-0.9548691241321937|-0.2857870003924565|-0.1543069928884506|0.04712960496544838|-0.9868982434272766|0|0|0|-1|-1|3
2021-03-10 20:21:02.169 +0000|290347.9515002917|-0.15350341796875|0.054595947265625|-0.989044189453125|290347.9465102917|2.555795563930379|-0.1551436197873386|-0.04704206747682445|0.008954478427767754|0.002207428216934204|-0.02549050375819206|-0.006873279809951782|0.01057722046971321|-0.0002710223197937012|XArbitraryZVertical|-0.06740297092059984|0.04481805703079439|-0.9547941226520876|-0.2860357288313055|-0.1543510556221008|0.04702471941709518|-0.9868963360786438|0|0|0|-1|-1|3
2021-03-10 20:21:02.189 +0000|290347.9714632917|-0.1561279296875|0.06610107421875|-0.9891204833984375|290347.9664732917|2.555330382643909|-0.1550803856300854|-0.04635550283277417|0.02650958672165871|0.003677332773804665|-0.02369411289691925|-0.002719312906265259|0.01159872859716415|-0.0007789134979248047|XArbitraryZVertical|-0.06746182216163156|0.0444972995808013|-0.9547296497166377|-0.2862869570749991|-0.1542935967445374|0.04633890464901924|-0.9869377613067627|0|0|0|-1|-1|3
2021-03-10 20:21:02.209 +0000|290347.9914262917|-0.1524658203125|0.0558624267578125|-0.9829864501953125|290347.9864362917|2.555026447952809|-0.1550800542925929|-0.04568101958660602|0.03902878984808922|-9.940285235643387e-05|-0.02179581113159657|0.002244263887405396|0.01654496043920517|0.001952648162841797|XArbitraryZVertical|-0.06755265062825513|0.04418589106814354|-0.9546860214958892|-0.2864593100067706|-0.1542980670928955|0.04566513374447823|-0.9869685173034668|0|0|0|-1|-1|3
2021-03-10 20:21:02.229 +0000|290348.0113892917|-0.1569061279296875|0.0443267822265625|-0.9892425537109375|290348.0063982917|2.55475408346227|-0.1551053747019631|-0.04518710492519928|0.03071114048361778|0.0003386875614523888|-0.01843321695923805|0.002623662352561951|0.005853671580553055|0.0007349252700805664|XArbitraryZVertical|-0.06763032916863518|0.04396321303506055|-0.9546459613778254|-0.2866086803080885|-0.1543265134096146|0.04517173022031784|-0.9869867563247681|0|0|0|-1|-1|3
2021-03-10 20:21:02.249 +0000|290348.0313522917|-0.1505584716796875|0.0457611083984375|-0.9884033203125|290348.0263612917|2.554624753656185|-0.1551013752449448|-0.04499720466877681|0.008938167244195938|-0.001699588727205992|0.006791446823626757|0.004223227500915527|-0.0005331560969352722|-0.001666903495788574|XArbitraryZVertical|-0.06765311675031792|0.04387646709071887|-0.9546274557935175|-0.286678135636693|-0.1543238908052444|0.04498201981186867|-0.9869958162307739|0|0|0|-1|-1|3
2021-03-10 20:21:02.269 +0000|290348.0513152917|-0.158233642578125|0.052520751953125|-0.994720458984375|290348.0463242917|2.554622479629526|-0.1551358932286884|-0.04492685400262015|0.02720988169312477|-0.0005602892488241196|-0.004940488375723362|0.00163327157497406|0.01061500236392021|-0.005453288555145264|XArbitraryZVertical|-0.06767974332245777|0.04384794791597744|-0.9546259353969965|-0.2866813075541907|-0.154358446598053|0.04491174221038818|-0.9869936108589172|0|0|0|-1|-1|3
2021-03-10 20:21:02.289 +0000|290348.0712782917|-0.1569671630859375|0.051300048828125|-0.986968994140625|290348.0662872917|2.55467404225174|-0.1550793353296452|-0.04482429976650342|0.02353719994425774|0.004726085811853409|0.005107086151838303|-0.005273044109344482|0.001943651586771011|-0.002037286758422852|XArbitraryZVertical|-0.06766874757954003|0.04378919728752793|-0.9546351874801272|-0.2866620673124113|-0.1543033421039581|0.04480928927659988|-0.9870069026947021|0|0|0|-1|-1|3
2021-03-10 20:21:02.309 +0000|290348.0912412917|-0.1550140380859375|0.0579376220703125|-0.98834228515625|290348.0862502917|2.55494542506484|-0.1549977765744618|-0.04439739884265133|0.04798978194594383|-0.004617135971784592|0.007280847523361444|-0.001917362213134766|0.01997876539826393|0.0006644129753112793|XArbitraryZVertical|-0.06769763064442512|0.04356476739995299|-0.9546765616719219|-0.2865514609129508|-0.1542257815599442|0.04438281431794167|-0.987038254737854|0|0|0|-1|-1|3
2021-03-10 20:21:02.329 +0000|290348.1112042917|-0.15753173828125|0.0231170654296875|-0.988983154296875|290348.1062132917|2.555300402064864|-0.15497004485373|-0.04345754778239917|0.04005272686481476|0.007381204515695572|0.01059479638934135|-0.006561771035194397|-0.01027125492691994|0.0005568861961364746|XArbitraryZVertical|-0.06782823409811058|0.04310059045228258|-0.9547277452006235|-0.2864204649278813|-0.1542047709226608|0.04344386979937553|-0.9870833158493042|0|0|0|-1|-1|3
2021-03-10 20:21:02.349 +0000|290348.1311672917|-0.153411865234375|0.02899169921875|-0.9853668212890625|290348.1261762917|2.555734421089632|-0.1548008167084852|-0.04310457588047091|0.03136579319834709|0.004925129935145378|0.02161042951047421|-0.002164110541343689|-0.009735506027936935|-0.0002259612083435059|XArbitraryZVertical|-0.0678078717776175|0.04289331453531744|-0.9547953654884691|-0.2862311248077178|-0.1540400832891464|0.04309123009443283|-0.987124502658844|0|0|0|-1|-1|3
2021-03-10 20:21:02.369 +0000|290348.1511302917|-0.1586456298828125|0.0226898193359375|-0.9860687255859375|290348.1461392917|2.556294638189923|-0.1547202966822266|-0.04303480613383477|0.0008593185339123011|0.005080126225948334|0.02880637906491756|0.0002287924289703369|-0.02024014294147491|0.001239001750946045|XArbitraryZVertical|-0.06779153689116173|0.04282952954526296|-0.9548780906811489|-0.2859681058959287|-0.1539610624313354|0.04302152246236801|-0.987139880657196|0|0|0|-1|-1|3
2021-03-10 20:21:02.389 +0000|290348.1710932917|-0.1536865234375|0.0384979248046875|-0.98980712890625|290348.1661022917|2.556962875515811|-0.1544967775358675|-0.04375095691355067|-0.02425189316272736|0.01059420127421618|0.0430913083255291|-0.00315520167350769|-0.01848369464278221|-0.001564919948577881|XArbitraryZVertical|-0.06759567705243844|0.0431165617277121|-0.954981787880792|-0.285625231287052|-0.1537356376647949|0.04373700171709061|-0.9871435761451721|0|0|0|-1|-1|3
2021-03-10 20:21:02.409 +0000|290348.1910552917|-0.1564483642578125|0.0380096435546875|-0.980621337890625|290348.1860652917|2.557593858084745|-0.154337762110163|-0.04450674027236425|-0.03746175765991211|0.006843032315373421|0.02649528719484806|-0.003424108028411865|-0.001706395298242569|0.0009442567825317383|XArbitraryZVertical|-0.06742429988023231|0.04343309430484268|-0.9550775843567351|-0.2852970030779993|-0.1535735428333282|0.04449204728007317|-0.9871350526809692|0|0|0|-1|-1|3
2021-03-10 20:21:02.429 +0000|290348.2110182917|-0.15234375|0.0467681884765625|-0.985443115234375|290348.2060282917|2.557800762298365|-0.154184982653428|-0.04508009901589522|-0.04467149823904037|0.003671207465231419|0.009398236870765686|0.001395493745803833|-0.005041018128395081|0.006282925605773926|XArbitraryZVertical|-0.06727312640054567|0.04367785892850302|-0.9551124692257345|-0.2851785372092304|-0.1534187793731689|0.04506483301520348|-0.9871331453323364|0|0|0|-1|-1|3
2021-03-10 20:21:02.449 +0000|290348.2309812917|-0.1514129638671875|0.0429840087890625|-0.9901580810546875|290348.2259912917|2.557841205032935|-0.1541568800864843|-0.04561983354992004|-0.04349120333790779|0.001144187524914742|0.007029622327536345|-0.0002534389495849609|0.001179445534944534|0.0002205967903137207|XArbitraryZVertical|-0.06718272991218578|0.0439299756705135|-0.955119354021926|-0.2851382236803873|-0.1533872783184052|0.04560401290655136|-0.9871132969856262|0|0|0|-1|-1|3
2021-03-10 20:21:02.469 +0000|290348.2509442917|-0.1542510986328125|0.0363616943359375|-0.9887542724609375|290348.2459532917|2.557794681632391|-0.154116186238491|-0.04614867523286958|-0.05801485106348991|0.004658974707126617|0.003502709325402975|0.0005571693181991577|-0.00281258299946785|-0.005549728870391846|XArbitraryZVertical|-0.06708598851011856|0.04417802019749373|-0.9551140778526639|-0.2851400299166412|-0.1533433943986893|0.04613229632377625|-0.9870955348014832|0|0|0|-1|-1|3
2021-03-10 20:21:02.489 +0000|290348.2709072917|-0.1516571044921875|0.0266876220703125|-0.98175048828125|290348.2659162917|2.557650280054713|-0.1540493045588303|-0.04738555934628735|-0.08624023199081421|0.002301383763551712|0.002303754445165396|0.0001160651445388794|-0.01608730107545853|0.0004001259803771973|XArbitraryZVertical|-0.06687234982364158|0.04476335628970485|-0.9550956862303874|-0.2851608245940596|-0.153268501162529|0.04736782982945442|-0.9870486855506897|0|0|0|-1|-1|3
2021-03-10 20:21:02.509 +0000|290348.2908702917|-0.1513214111328125|0.0352630615234375|-0.980987548828125|290348.2858792917|2.557329558519471|-0.1541011113717989|-0.04937407009067454|-0.131040632724762|-0.000875287689268589|0.0006003074813634157|0.001006931066513062|-0.02193395793437958|0.007682383060455322|XArbitraryZVertical|-0.06660272858655494|0.04572996491835116|-0.9550473017724638|-0.2852326635576101|-0.1533048748970032|0.04935401305556297|-0.9869456887245178|0|0|0|-1|-1|3
2021-03-10 20:21:02.529 +0000|290348.3108332917|-0.1561279296875|0.0222320556640625|-0.9862518310546875|290348.3058422917|2.556678459380424|-0.1542116360523418|-0.05288474020833665|-0.225192591547966|-0.01134342886507511|-0.007351625245064497|0.002095535397529602|-0.0240057110786438|0.002040743827819824|XArbitraryZVertical|-0.06613289586239481|0.04744168695290424|-0.9549468486013811|-0.285398711572917|-0.1533863991498947|0.05286009237170219|-0.9867514371871948|0|0|0|-1|-1|3
2021-03-10 20:21:02.549 +0000|290348.3307962917|-0.1544952392578125|0.060333251953125|-0.9893646240234375|290348.3258052917|2.555542263789402|-0.1543248104569689|-0.05746462268605345|-0.2432817667722702|-0.0002652108669281006|-0.02367467246949673|-0.005522042512893677|-0.01290784031152725|0.000736236572265625|XArbitraryZVertical|-0.06549607403958131|0.04967899919292039|-0.9547714646114791|-0.2857513273110128|-0.1534592509269714|0.05743300169706345|-0.9864845275878906|0|0|0|-1|-1|3
2021-03-10 20:21:02.569 +0000|290348.3507592917|-0.1630401611328125|0.0292205810546875|-0.97991943359375|290348.3457682917|2.553871810899615|-0.1544304066491312|-0.06212587184069938|-0.3122657537460327|-0.003684922587126493|-0.07064440101385117|-0.004041656851768494|-0.01125887781381607|0.001161932945251465|XArbitraryZVertical|-0.06482705772106316|0.05197033410880197|-0.9545145933319141|-0.2863539558773337|-0.1535205692052841|0.06208591535687447|-0.986193060874939|0|0|0|-1|-1|3
2021-03-10 20:21:02.589 +0000|290348.3707222917|-0.161651611328125|0.0030975341796875|-0.9854278564453125|290348.3657312917|2.550936197998508|-0.1544256154606769|-0.06906982789822794|-0.5076761245727539|0.02671537920832634|-0.08818903565406799|-0.008053168654441833|-0.05766236782073975|0.01415592432022095|XArbitraryZVertical|-0.0637330432677535|0.05537217191351074|-0.9540626675853278|-0.2874656466256056|-0.1534458249807358|0.06901492178440094|-0.9857440590858459|0|0|0|-1|-1|3
2021-03-10 20:21:02.608 +0000|290348.3906852917|-0.1368408203125|0.1483917236328125|-1.005386352539062|290348.3856942917|2.547635099244108|-0.1537555866000132|-0.07850084644335982|-0.4614829421043396|0.05710476636886597|-0.08353214710950851|0.002227231860160828|-0.0226493626832962|-0.01253628730773926|XArbitraryZVertical|-0.06193442158473159|0.0598692523321785|-0.9535482420158398|-0.2886617312822307|-0.1526788473129272|0.0784202441573143|-0.9851595759391785|0|0|0|-1|-1|3
2021-03-10 20:21:02.644 +0000|290348.4106482917|-0.1526641845703125|0.15863037109375|-0.9888153076171875|290348.4056572917|2.545245320589246|-0.1532507999961105|-0.08394476881000194|-0.184850811958313|0.01919663697481155|-0.06837493926286697|0.012557253241539|0.1027687937021255|-0.01167517900466919|XArbitraryZVertical|-0.06081752795022841|0.0624596619477626|-0.9531740787048865|-0.2895846673272348|-0.1521141082048416|0.08384621143341064|-0.9848000407218933|0|0|0|-1|-1|3
2021-03-10 20:21:02.648 +0000|290348.4306102917|-0.151031494140625|0.1075286865234375|-0.9654388427734375|290348.4256202917|2.543446327535436|-0.1531292388689534|-0.08503975835649974|-0.05089267715811729|0.01708927936851978|-0.07783875614404678|-0.01040370762348175|0.04392318427562714|0.004456818103790283|XArbitraryZVertical|-0.06054101617305843|0.06301736025302915|-0.9529072105628286|-0.2903989610926308|-0.1519802957773209|0.08493729680776596|-0.9847272038459778|0|0|0|-1|-1|3
2021-03-10 20:21:02.669 +0000|290348.4505732917|-0.150115966796875|0.10357666015625|-0.986602783203125|290348.4455832917|2.541665743830797|-0.1531314806446223|-0.084359703277561|-0.05033790692687035|0.008453338406980038|-0.07760892063379288|0.005934178829193115|0.01333554834127426|0.009655535221099854|XArbitraryZVertical|-0.0605871053972034|0.06274828645044787|-0.9526541902950172|-0.291276133843397|-0.1519912779331207|0.08425968140363693|-0.9847837090492249|0|0|0|-1|-1|3
2021-03-10 20:21:02.688 +0000|290348.4705362917|-0.1465301513671875|0.1020965576171875|-0.9932098388671875|290348.4655462917|2.539920725526366|-0.1530719384896471|-0.08379526118295035|-0.03280942887067795|0.00923652108758688|-0.08372868597507477|-0.001044720411300659|0.02229032665491104|-0.00968247652053833|XArbitraryZVertical|-0.06058815025613699|0.06252417662839441|-0.9524064337535977|-0.2921332294966265|-0.151939868927002|0.08369722962379456|-0.9848396182060242|0|0|0|-1|-1|3
2021-03-10 20:21:02.709 +0000|290348.4904992917|-0.1439361572265625|0.092437744140625|-0.9744415283203125|290348.4855092917|2.538207074056979|-0.1530067637348224|-0.0856218451608647|-0.01003214530646801|0.006755680777132511|-0.0764981135725975|0.00777868926525116|0.004616409540176392|-0.000319063663482666|XArbitraryZVertical|-0.06023036679695146|0.06343435436581354|-0.952141673554615|-0.292873180791613|-0.1518521308898926|0.08551726490259171|-0.9846967458724976|0|0|0|-1|-1|3
2021-03-10 20:21:02.728 +0000|290348.5104622917|-0.145172119140625|0.1033477783203125|-0.97967529296875|290348.5054712917|2.536926787477584|-0.1530421105056302|-0.08648827700607324|0.01921655423939228|0.007419341243803501|-0.05362875387072563|0.008259892463684082|0.01530409604310989|0.008070588111877441|XArbitraryZVertical|-0.06007671869441664|0.06388963530327632|-0.9519450503124051|-0.2934443897641265|-0.1518755853176117|0.0863804891705513|-0.9846178293228149|0|0|0|-1|-1|3
2021-03-10 20:21:02.748 +0000|290348.5304252917|-0.1494598388671875|0.0864410400390625|-0.9868316650390625|290348.5254342917|2.53615693112113|-0.1530967368113021|-0.08633677652699584|0.01155670359730721|-0.001524141058325768|-0.03488249704241753|0.004012688994407654|0.009839795529842377|0.002185285091400146|XArbitraryZVertical|-0.0601008539404949|0.06384882875495065|-0.9518317637840529|-0.2938155399108574|-0.1519313603639603|0.08622955530881882|-0.9846224188804626|0|0|0|-1|-1|3
2021-03-10 20:21:02.768 +0000|290348.5503882917|-0.159912109375|0.1010284423828125|-0.9862518310546875|290348.5453972917|2.535489765566795|-0.1531556540984319|-0.08625985854058753|0.03193714469671249|0.001719110645353794|-0.03097617253661156|-0.004900455474853516|0.003721356391906738|-0.005354940891265869|XArbitraryZVertical|-0.06011913654846486|0.06384100975207023|-0.9517326818425922|-0.2941345114161223|-0.1519903838634491|0.08615292608737946|-0.9846200346946716|0|0|0|-1|-1|3
2021-03-10 20:21:02.788 +0000|290348.5703512917|-0.1444549560546875|0.0894927978515625|-0.976104736328125|290348.5653602917|2.535125942849597|-0.1530453522479387|-0.08569093195308322|0.0414946936070919|0.003663751296699047|-0.01862629503011703|-0.005047380924224854|0.01199387013912201|0.003605961799621582|XArbitraryZVertical|-0.06014055116222446|0.06356555444855158|-0.951687559686608|-0.2943354704555811|-0.1518892198801041|0.08558610081672668|-0.9846850633621216|0|0|0|-1|-1|3
2021-03-10 20:21:02.808 +0000|290348.5903142917|-0.1528472900390625|0.095245361328125|-0.9790802001953125|290348.5853232917|2.535020640971142|-0.1530781352970748|-0.0851065365714823|0.04764941334724426|-0.003335409332066774|-0.008405793458223343|0.004101976752281189|0.01077559590339661|0.007861673831939697|XArbitraryZVertical|-0.06024064128988939|0.06329603763277419|-0.9516763178996505|-0.2944095966135147|-0.15192911028862|0.08500383794307709|-0.9847293496131897|0|0|0|-1|-1|3
2021-03-10 20:21:02.828 +0000|290348.6102772917|-0.153717041015625|0.0848388671875|-0.986480712890625|290348.6052862917|2.535038443146595|-0.1531331178074329|-0.08437026016424518|0.05282769352197647|0.0002428134903311729|-0.009411047212779522|-0.001571670174598694|0.004001908004283905|0.0006517171859741211|XArbitraryZVertical|-0.06037803210708697|0.06295395811309479|-0.9516836965096208|-0.2944308563337824|-0.1519927531480789|0.08427020162343979|-0.9847825765609741|0|0|0|-1|-1|3
2021-03-10 20:21:02.848 +0000|290348.6302402917|-0.150299072265625|0.0940704345703125|-0.9810638427734375|290348.6252492917|2.53507063046789|-0.1531416411592963|-0.08330120057579578|0.06748849898576736|-0.001084345858544111|-0.002419007010757923|0.001532658934593201|0.007691726088523865|0.001028835773468018|XArbitraryZVertical|-0.06054376070914844|0.06244655732641018|-0.9516972663419122|-0.2944609029489914|-0.1520148068666458|0.08320489525794983|-0.9848697781562805|0|0|0|-1|-1|3
2021-03-10 20:21:02.868 +0000|290348.6502032917|-0.147552490234375|0.09320068359375|-0.97528076171875|290348.6452122917|2.535311505232347|-0.1531924825878413|-0.08216501150896424|0.08065223693847656|-0.006810408551245928|0.003947013057768345|0.002054810523986816|0.01627031713724136|0.0075836181640625|XArbitraryZVertical|-0.06074612933183041|0.06190714318536837|-0.951740628220872|-0.294393197789374|-0.1520792096853256|0.08207259327173233|-0.984954833984375|0|0|0|-1|-1|3
2021-03-10 20:21:02.888 +0000|290348.6701662917|-0.1521759033203125|0.0632171630859375|-0.9882354736328125|290348.6651752917|2.53559945797317|-0.1533094552721517|-0.08097660788230132|0.05307818204164505|-0.0107873072847724|0.002077918034046888|0.002856209874153137|-0.002488464117050171|0.004274070262908936|XArbitraryZVertical|-0.06098911767255174|0.06135116383314619|-0.9517888770584882|-0.2943030816304134|-0.1522092074155807|0.08088813722133636|-0.9850327372550964|0|0|0|-1|-1|3
2021-03-10 20:21:02.908 +0000|290348.6901282917|-0.15521240234375|0.07611083984375|-0.9905853271484375|290348.6851382917|2.535782515007306|-0.1533879335607787|-0.08043431639151503|0.03221409395337105|0.004113505594432354|0.002547344891354442|-0.005085930228233337|-0.02103669196367264|-0.00700145959854126|XArbitraryZVertical|-0.06111345964703355|0.06109954552379291|-0.9518176281292334|-0.2942366171843037|-0.1522931903600693|0.08034761250019073|-0.9850639700889587|0|0|0|-1|-1|3
2021-03-10 20:21:02.928 +0000|290348.7100912917|-0.1497039794921875|0.089202880859375|-0.98095703125|290348.7051012917|2.536020316333539|-0.1532887682840237|-0.07995819846006266|0.03548741713166237|0.002726530656218529|0.007433801423758268|0.003061950206756592|0.007651403546333313|-0.002905070781707764|XArbitraryZVertical|-0.06114493828835359|0.06085153085204573|-0.9518593459337021|-0.2941467574071295|-0.1522013247013092|0.07987302541732788|-0.9851167798042297|0|0|0|-1|-1|3
2021-03-10 20:21:02.948 +0000|290348.7300542917|-0.1516571044921875|0.074249267578125|-0.98284912109375|290348.7250642917|2.536279531044804|-0.1532627185833542|-0.07962173599405149|0.03297347947955132|-0.001039604656398296|0.008719397708773613|0.003376081585884094|0.004629857838153839|0.003381490707397461|XArbitraryZVertical|-0.06119087913644341|0.06067994473857916|-0.951900750152981|-0.2940383949803362|-0.1521797478199005|0.07953763753175735|-0.98514723777771|0|0|0|-1|-1|3
2021-03-10 20:21:02.968 +0000|290348.7500172917|-0.1500396728515625|0.0842437744140625|-0.9867401123046875|290348.7450262917|2.536509104336069|-0.1532193078177078|-0.07906948440180468|0.03904162347316742|0.000394454225897789|0.004925014916807413|-0.0008409172296524048|0.002494826912879944|-0.0001696944236755371|XArbitraryZVertical|-0.06125994259681523|0.06040418426394725|-0.9519399935693267|-0.293953895998841|-0.1521436721086502|0.07898712158203125|-0.985197126865387|0|0|0|-1|-1|3
2021-03-10 20:21:02.988 +0000|290348.7699802917|-0.15362548828125|0.0736541748046875|-0.9835968017578125|290348.7649892917|2.536618517125631|-0.153227156503304|-0.07794664174802166|0.03572463989257812|-0.001594075001776218|-0.005005380604416132|0.001560628414154053|0.001722119748592377|0.0001145005226135254|XArbitraryZVertical|-0.06143521875899828|0.05986854048554025|-0.9519640084784402|-0.2939491090564261|-0.1521648466587067|0.07786773890256882|-0.9852829575538635|0|0|0|-1|-1|3
2021-03-10 20:21:03.008 +0000|290348.789943125|-0.1547088623046875|0.0715179443359375|-0.983612060546875|290348.784952125|2.536478733230521|-0.1531760500164835|-0.07748219967383313|0.01973545551300049|0.004553779028356075|-0.0177921038120985|-0.003702729940414429|-0.004193015396595001|0.00198894739151001|XArbitraryZVertical|-0.06147631011349181|0.05964467142807368|-0.9519482928482839|-0.2940367644282406|-0.1521199941635132|0.0774046927690506|-0.98532634973526|0|0|0|-1|-1|3
2021-03-10 20:21:03.028 +0000|290348.809906125|-0.1508026123046875|0.0850677490234375|-0.98583984375|290348.804915125|2.536237288858851|-0.1530932096735164|-0.07722741903571598|0.02315663360059261|0.007345943711698055|-0.01105954498052597|-2.768635749816895e-05|-0.0001700744032859802|-0.00287705659866333|XArbitraryZVertical|-0.06146787300595789|0.05951886833895317|-0.9519171209333932|-0.2941649100457794|-0.1520413607358932|0.07715068012475967|-0.9853584170341492|0|0|0|-1|-1|3
2021-03-10 20:21:03.048 +0000|290348.829869125|-0.154754638671875|0.075042724609375|-0.9860382080078125|290348.824878125|2.536172078404954|-0.153044800680017|-0.0767438020226405|0.02497692219913006|0.002991622313857079|-0.005629624705761671|0.001517191529273987|0.004233621060848236|-0.001169741153717041|XArbitraryZVertical|-0.06151538921191222|0.05928399497273872|-0.9519123887326629|-0.2942178100093149|-0.1519993394613266|0.07666849344968796|-0.985402524471283|0|0|0|-1|-1|3
2021-03-10 20:21:03.068 +0000|290348.849832125|-0.149932861328125|0.071533203125|-0.987335205078125|290348.844841125|2.536140885515081|-0.1529495408437068|-0.07644889423021937|0.01386523246765137|0.002776279114186764|-0.006327018141746521|-0.0009841322898864746|-0.003696821630001068|0.001583099365234375|XArbitraryZVertical|-0.06151334244881863|0.05913083580013809|-0.9519126899746393|-0.294247843234632|-0.1519089043140411|0.07637444883584976|-0.9854393005371094|0|0|0|-1|-1|3
2021-03-10 20:21:03.088 +0000|290348.869795125|-0.147796630859375|0.0796661376953125|-0.9833221435546875|290348.864804125|2.53607011891676|-0.152860287580254|-0.07601212219491779|0.01483317278325558|0.006026133894920349|-0.004501776304095984|1.102685928344727e-06|-8.749216794967651e-05|0.0009123682975769043|XArbitraryZVertical|-0.06153424971179441|0.05891237458820027|-0.9519079974253518|-0.2943025676610794|-0.1518260091543198|0.07593894749879837|-0.9854857325553894|0|0|0|-1|-1|3
2021-03-10 20:21:03.108 +0000|290348.889758125|-0.1488189697265625|0.0771331787109375|-0.984466552734375|290348.884767125|2.53597861153023|-0.1527886066596486|-0.07567418839487543|0.01389579102396965|-0.0007934761233627796|-0.006977362092584372|0.005870014429092407|0.002263627946376801|0.002657532691955566|XArbitraryZVertical|-0.06154809906245467|0.05874409070731206|-0.9518990600457191|-0.294362512290659|-0.1517592668533325|0.0756019800901413|-0.9855219125747681|0|0|0|-1|-1|3
2021-03-10 20:21:03.145 +0000|290348.909721125|-0.1529693603515625|0.07080078125|-0.987457275390625|290348.904730125|2.535829863711919|-0.152767246182718|-0.07560590795471142|0.002739543560892344|0.002590497024357319|-0.01117645762860775|0.0007380694150924683|-0.00198652595281601|-0.0004469156265258789|XArbitraryZVertical|-0.061543805946943|0.05871308548267365|-0.9518782550567373|-0.2944367840118632|-0.1517390012741089|0.07553389668464661|-0.9855302572250366|0|0|0|-1|-1|3
2021-03-10 20:21:03.148 +0000|290348.929683125|-0.1475372314453125|0.0806884765625|-0.982208251953125|290348.924693125|2.535654585389265|-0.1526926962902983|-0.07537849643078537|0.004585131071507931|0.003749184310436249|-0.009052053093910217|0.001933678984642029|0.001871831715106964|0.001015663146972656|XArbitraryZVertical|-0.06153729885453049|0.05859946565846923|-0.9518561977812814|-0.2945318978661564|-0.1516681462526321|0.07530713081359863|-0.9855585098266602|0|0|0|-1|-1|3
2021-03-10 20:21:03.168 +0000|290348.949646125|-0.152679443359375|0.07598876953125|-0.9864349365234375|290348.944656125|2.535561707380281|-0.1526655569490444|-0.07514443469420952|0.008559598587453365|-0.0007919310592114925|-0.001705989707261324|0.001863837242126465|0.0007929801940917969|0.0001369118690490723|XArbitraryZVertical|-0.06155677580568521|0.05848713087632737|-0.9518448960493198|-0.2945867322567423|-0.1516440659761429|0.0750737339258194|-0.9855800271034241|0|0|0|-1|-1|3
2021-03-10 20:21:03.187 +0000|290348.969609125|-0.151580810546875|0.072998046875|-0.9851837158203125|290348.964619125|2.535531051575948|-0.1526241068845839|-0.07509716240948784|0.003699779277667403|0.002305485308170319|-0.00336070079356432|-0.001899614930152893|0.00228969007730484|0.0005587339401245117|XArbitraryZVertical|-0.06154324739983738|0.05845951190796239|-0.9518419418363117|-0.2946044936805515|-0.1516037583351135|0.07502659410238266|-0.9855898022651672|0|0|0|-1|-1|3
2021-03-10 20:21:03.208 +0000|290348.989572125|-0.1534271240234375|0.0771636962890625|-0.9851226806640625|290348.984581125|2.535448082909003|-0.1525779337192968|-0.07502862571265545|0.003185389563441277|0.001726407557725906|-0.005500284023582935|-0.001883313059806824|-0.002433218061923981|0.0003724098205566406|XArbitraryZVertical|-0.06152912060406233|0.05842270070606474|-0.9518316790262547|-0.2946483045265636|-0.1515590250492096|0.07495824992656708|-0.9856019020080566|0|0|0|-1|-1|3
2021-03-10 20:21:03.227 +0000|290349.009535125|-0.151947021484375|0.0736236572265625|-0.982879638671875|290349.004544125|2.535369044379367|-0.1525492777278196|-0.07497210165676978|-0.00416173879057169|0.002010727301239967|-0.003838294185698032|-0.001514196395874023|0.001987166702747345|0.002562940120697021|XArbitraryZVertical|-0.06152166495790922|0.05839405979540005|-0.9518212115493246|-0.2946890512522441|-0.1515314280986786|0.07490188628435135|-0.9856104254722595|0|0|0|-1|-1|3
2021-03-10 20:21:03.247 +0000|290349.029498125|-0.15228271484375|0.07537841796875|-0.986419677734375|290349.024507125|2.535292657545388|-0.1524873337228856|-0.07509564387001127|-0.0005552696529775858|0.001779776997864246|-0.001205226872116327|-0.001729235053062439|-0.002851001918315887|-1.555681228637695e-05|XArbitraryZVertical|-0.061471413852185|0.05844597053688602|-0.9518110507306607|-0.2947220265254357|-0.1514689773321152|0.07502508163452148|-0.9856106638908386|0|0|0|-1|-1|3
2021-03-10 20:21:03.267 +0000|290349.049461125|-0.152069091796875|0.0776214599609375|-0.9852752685546875|290349.044470125|2.535249286032693|-0.1524758846570798|-0.0751344289989503|-0.0001057612244039774|0.00234516616910696|-0.002442087512463331|0.001020878553390503|0.005075417459011078|-0.001527309417724609|XArbitraryZVertical|-0.06145887522217153|0.0584640409253758|-0.9518047660920489|-0.2947413841751222|-0.1514572501182556|0.07506375759840012|-0.9856095314025879|0|0|0|-1|-1|3
2021-03-10 20:21:03.287 +0000|290349.069424125|-0.1493988037109375|0.077667236328125|-0.9828033447265625|290349.064433125|2.535199619327542|-0.1524161855048503|-0.0750267331288922|0.00274230632930994|0.004733435809612274|-0.00566140515729785|-0.0005778670310974121|0.001520693302154541|0.0005649328231811523|XArbitraryZVertical|-0.06144517913737556|0.05840560797945042|-0.9517999790326236|-0.2947712756789215|-0.151399627327919|0.07495636492967606|-0.9856265783309937|0|0|0|-1|-1|3
2021-03-10 20:21:03.307 +0000|290349.089387125|-0.1517181396484375|0.0758819580078125|-0.9842376708984375|290349.084396125|2.535133374725564|-0.1524157494009575|-0.07505106659619536|0.002061552600935102|0.0001297891139984131|-0.005611604545265436|0.001038864254951477|0.0008708164095878601|0.000181734561920166|XArbitraryZVertical|-0.06143937519967275|0.05841913618638591|-0.9517901440172072|-0.2948018738549165|-0.1513989269733429|0.07498063147068024|-0.9856247901916504|0|0|0|-1|-1|3
2021-03-10 20:21:03.327 +0000|290349.109350125|-0.1490325927734375|0.076751708984375|-0.984893798828125|290349.104359125|2.535043208383102|-0.1523675174926901|-0.07494683491727121|0.001291932072490454|0.001138114370405674|-0.005332860164344311|0.002503111958503723|0.002256505191326141|0.0002882480621337891|XArbitraryZVertical|-0.06142945003435812|0.05836528439999036|-0.9517789122459208|-0.2948504523251592|-0.1513525694608688|0.07487668842077255|-0.9856398105621338|0|0|0|-1|-1|3
2021-03-10 20:21:03.347 +0000|290349.129313125|-0.1507568359375|0.072906494140625|-0.9881439208984375|290349.124322125|2.534937644218046|-0.1523671344937772|-0.07503712406972625|-0.001541604520753026|0.002907785587012768|-0.005558785051107407|0.001830324530601501|-0.002487465739250183|-0.0005728602409362793|XArbitraryZVertical|-0.06141262152586677|0.05841135862149065|-0.9517628305163496|-0.2948969788581752|-0.1513511687517166|0.07496672868728638|-0.9856331944465637|0|0|0|-1|-1|3
2021-03-10 20:21:03.367 +0000|290349.149276125|-0.147735595703125|0.0777740478515625|-0.9843902587890625|290349.144285125|2.534911307896741|-0.1523347134039591|-0.07505924015176546|-0.0003431986551731825|0.0003253715112805367|0.002587025985121727|0.002271130681037903|0.004341676831245422|0.0006053447723388672|XArbitraryZVertical|-0.06139310812219179|0.0584178937724199|-0.9517597511105492|-0.2949094810793592|-0.1513189673423767|0.07498878240585327|-0.9856364727020264|0|0|0|-1|-1|3
2021-03-10 20:21:03.387 +0000|290349.169238125|-0.152679443359375|0.07281494140625|-0.9848175048828125|290349.164248125|2.534934208089056|-0.1523342925389098|-0.07513702885915209|-0.00308036245405674|0.001376841217279434|-0.0005300268530845642|0.0004387944936752319|-0.002739682793617249|0.0009811520576477051|XArbitraryZVertical|-0.06138189179480089|0.05845407984762914|-0.9517626603063931|-0.294895365795848|-0.1513176560401917|0.07506635040044785|-0.9856307506561279|0|0|0|-1|-1|3
2021-03-10 20:21:03.407 +0000|290349.189201125|-0.1502685546875|0.076934814453125|-0.985321044921875|290349.184211125|2.534858381945|-0.1523096047492012|-0.07532469020763197|-0.01104358024895191|0.001513781026005745|-0.001575850415974855|0.0004733502864837646|-0.0005159229040145874|0.001474440097808838|XArbitraryZVertical|-0.06133973892428839|0.05854190883306987|-0.9517510320761228|-0.2949243359679896|-0.1512911915779114|0.07525347918272018|-0.9856205582618713|0|0|0|-1|-1|3
2021-03-10 20:21:03.427 +0000|290349.209164125|-0.1532440185546875|0.0754547119140625|-0.9864044189453125|290349.204174125|2.534826487055223|-0.1522943651237784|-0.07549725736725399|-0.008339705877006054|-0.0003650793805718422|-0.002296323888003826|0.0001359134912490845|0.001875482499599457|0.0008382797241210938|XArbitraryZVertical|-0.06130562891992073|0.058622610933016|-0.9517456928504107|-0.2949327662114705|-0.1512741893529892|0.07542555779218674|-0.9856100082397461|0|0|0|-1|-1|3
2021-03-10 20:21:03.449 +0000|290349.229127125|-0.1533966064453125|0.0755157470703125|-0.9841461181640625|290349.224136125|2.534821333389524|-0.1522970890227913|-0.07562838661181381|-0.004742723889648914|0.003279456868767738|-0.0006149818655103445|-0.001236185431480408|0.0003256574273109436|-0.002330482006072998|XArbitraryZVertical|-0.06128708645470003|0.05868546100269817|-0.9517439053620759|-0.2949295621318596|-0.1512753814458847|0.07555631548166275|-0.9855998158454895|0|0|0|-1|-1|3
2021-03-10 20:21:03.479 +0000|290349.249090125|-0.152191162109375|0.077056884765625|-0.983978271484375|290349.244099125|2.534819700471112|-0.1522480321393429|-0.07572906044287023|-0.005638528149574995|0.0009852498769760132|0.001473025418817997|-0.0002022981643676758|0.002636156976222992|0.001453638076782227|XArbitraryZVertical|-0.06124856702744244|0.05872609711744255|-0.9517445357602069|-0.2949276008684054|-0.1512258648872375|0.0756566971540451|-0.9855996966362|0|0|0|-1|-1|3
2021-03-10 20:21:03.487 +0000|290349.269053125|-0.151641845703125|0.0764617919921875|-0.9844207763671875|290349.264062125|2.534827008922711|-0.1522608505549902|-0.07579040605965472|-0.008609401062130928|0.0001096026971936226|0.0008862423710525036|-0.001090660691261292|0.001461103558540344|-2.503395080566406e-06|XArbitraryZVertical|-0.06124566919214351|0.05875690401218724|-0.9517447921694654|-0.2949211544459853|-0.1512378007173538|0.07571786642074585|-0.9855931997299194|0|0|0|-1|-1|3
2021-03-10 20:21:03.507 +0000|290349.289016125|-0.1491851806640625|0.0758209228515625|-0.986297607421875|290349.284025125|2.53488322068007|-0.1522332215301408|-0.07597875726921956|-0.007146060466766357|0.0008078301325440407|0.002163227647542953|0.0004363358020782471|-0.0006493180990219116|0.0005521178245544434|XArbitraryZVertical|-0.06120587731871466|0.05884057715332619|-0.9517527088211116|-0.2948873697962289|-0.1512084007263184|0.07590568065643311|-0.9855832457542419|0|0|0|-1|-1|3
2021-03-10 20:21:03.527 +0000|290349.308979125|-0.15301513671875|0.0811767578125|-0.9864044189453125|290349.303988125|2.534916678667079|-0.1522108529453626|-0.07608250196297558|-0.002188070211559534|0.002231769263744354|0.002967147622257471|-0.0003345757722854614|0.0005747526884078979|-0.001863181591033936|XArbitraryZVertical|-0.06118063453879831|0.0588855354945675|-0.9517576333124633|-0.2948677637621684|-0.1511851698160172|0.0760091245174408|-0.9855788350105286|0|0|0|-1|-1|3
2021-03-10 20:21:03.547 +0000|290349.328942125|-0.1489105224609375|0.080291748046875|-0.9846038818359375|290349.323951125|2.534926318910054|-0.1522039027333431|-0.07609709724320564|0.001654271734878421|-0.0005683321505784988|-0.002853989601135254|0.0007723122835159302|0.005031011998653412|0.001447975635528564|XArbitraryZVertical|-0.06117541816750169|0.05889114873920303|-0.9517591742226674|-0.2948627749814617|-0.1511781513690948|0.07602367550134659|-0.9855787754058838|0|0|0|-1|-1|3
2021-03-10 20:21:03.566 +0000|290349.348905125|-0.1512298583984375|0.0770111083984375|-0.987640380859375|290349.343914125|2.53487387875424|-0.1522148063107657|-0.07605164682867813|0.002816591644659638|-0.002234139014035463|-0.004316242877393961|0.002462029457092285|0.003275804221630096|-0.0006102323532104492|XArbitraryZVertical|-0.06118590243831928|0.05887277411238553|-0.9517513073885322|-0.294889197683624|-0.1511894166469574|0.0759783536195755|-0.9855805635452271|0|0|0|-1|-1|3
2021-03-10 20:21:03.586 +0000|290349.368868125|-0.14862060546875|0.0741119384765625|-0.9849700927734375|290349.363877125|2.534867518752506|-0.1522461962065894|-0.07596788990381219|0.003171308431774378|-0.003622764255851507|0.001810803194530308|-0.000527307391166687|-7.390975952148438e-05|-0.002180337905883789|XArbitraryZVertical|-0.06121323076900687|0.058837810794324|-0.9517499958369418|-0.2948948363755796|-0.1512213200330734|0.07589484006166458|-0.9855821132659912|0|0|0|-1|-1|3
2021-03-10 20:21:03.606 +0000|290349.388831125|-0.148712158203125|0.0692138671875|-0.9814453125|290349.383840125|2.534928431530491|-0.1522617309913573|-0.07600576754557767|-0.007334395777434111|-0.000399966724216938|0.005911449901759624|0.001043960452079773|-0.003285497426986694|0.001766502857208252|XArbitraryZVertical|-0.06121671813479181|0.05885622717342943|-0.9517583178537828|-0.2948638810124645|-0.1512361913919449|0.07593260705471039|-0.9855769276618958|0|0|0|-1|-1|3
2021-03-10 20:21:03.630 +0000|290349.408793125|-0.1519622802734375|0.0831756591796875|-0.9854278564453125|290349.403803125|2.534901593689413|-0.1522783851356118|-0.07632877234657717|-0.02088109776377678|-0.001298677641898394|0.002206016331911087|0.001697525382041931|-0.008993923664093018|0.0003206133842468262|XArbitraryZVertical|-0.06117534029600766|0.05901293535434801|-0.9517516542640484|-0.2948626019817128|-0.1512488722801208|0.07625468075275421|-0.9855501055717468|0|0|0|-1|-1|3
2021-03-10 20:21:03.646 +0000|290349.428756125|-0.152313232421875|0.079559326171875|-0.987945556640625|290349.423766125|2.534892848386828|-0.1522627813163493|-0.0767190167471361|-0.01081135217100382|0.0005358681082725525|0.00045747309923172|-0.002488031983375549|-0.001204311847686768|-0.0004541873931884766|XArbitraryZVertical|-0.06110903969518622|0.05919627060222681|-0.9517481696439418|-0.2948508483605778|-0.1512289792299271|0.07664377987384796|-0.985522985458374|0|0|0|-1|-1|3
2021-03-10 20:21:03.667 +0000|290349.448719125|-0.1537933349609375|0.07611083984375|-0.98516845703125|290349.443729125|2.534920397685809|-0.1522334836476397|-0.07687957080511479|-0.006850583013147116|0.004746858030557632|0.004554302897304296|-0.003510594367980957|0.007317855954170227|-0.003452658653259277|XArbitraryZVertical|-0.06107180815926298|0.05926737641882694|-0.9517519237330087|-0.2948317670974458|-0.1511982381343842|0.07680386304855347|-0.9855152368545532|0|0|0|-1|-1|3
2021-03-10 20:21:03.686 +0000|290349.468682125|-0.1526031494140625|0.0766754150390625|-0.979949951171875|290349.463691125|2.534973251809877|-0.1521583328464864|-0.0769457819660454|-0.00760177755728364|0.001950378529727459|0.005386895965784788|0.00120583176612854|-0.003276720643043518|0.003038644790649414|XArbitraryZVertical|-0.06102766593188293|0.05928613545557639|-0.9517615593954815|-0.2948060743518736|-0.1511234045028687|0.07686987519264221|-0.9855215549468994|0|0|0|-1|-1|3
2021-03-10 20:21:03.706 +0000|290349.488645125|-0.1512603759765625|0.07623291015625|-0.984100341796875|290349.483654125|2.535041155595449|-0.1521010303721346|-0.07704020465648879|-0.01688645593822002|0.003072049468755722|0.008715225383639336|0.0002785027027130127|-0.001890771090984344|0.002307713031768799|XArbitraryZVertical|-0.0609882222188044|0.05932046802837661|-0.9517727159427599|-0.2947715594761515|-0.1510658264160156|0.07696402072906494|-0.9855230450630188|0|0|0|-1|-1|3
2021-03-10 20:21:03.726 +0000|290349.508608125|-0.1527099609375|0.0772552490234375|-0.9876251220703125|290349.503617125|2.535124839454776|-0.152084199668847|-0.07745760016592512|-0.01803990453481674|0.001145359128713608|0.01036771759390831|0.001019984483718872|-0.001070961356163025|-0.001429438591003418|XArbitraryZVertical|-0.06092001472951539|0.05951370458099207|-0.9517826509667592|-0.2947147440684189|-0.1510443538427353|0.07738017290830612|-0.9854937195777893|0|0|0|-1|-1|3
2021-03-10 20:21:03.746 +0000|290349.528571125|-0.1502685546875|0.0766754150390625|-0.9868927001953125|290349.523580125|2.535251313770027|-0.152072482172245|-0.07796194343666735|-0.02149790152907372|0.001781481318175793|0.008177001029253006|0.0003616362810134888|-0.003465868532657623|-0.0001388788223266602|XArbitraryZVertical|-0.0608424791034901|0.05974769798760753|-0.9517980469193735|-0.294633731953533|-0.1510268747806549|0.07788299024105072|-0.9854568243026733|0|0|0|-1|-1|3
2021-03-10 20:21:03.766 +0000|290349.548534125|-0.14996337890625|0.0755462646484375|-0.98406982421875|290349.543543125|2.53533682197116|-0.1520559905147694|-0.07832646787226251|-0.02301082760095596|-0.002239412162452936|0.008530136197805405|0.000173225998878479|-0.00140313059091568|0.0009646415710449219|XArbitraryZVertical|-0.06078246033681561|0.05991582343975875|-0.9518085036753456|-0.2945782151005615|-0.1510063111782074|0.07824639976024628|-0.9854311943054199|0|0|0|-1|-1|3
2021-03-10 20:21:03.786 +0000|290349.568497125|-0.151336669921875|0.0806121826171875|-0.9844207763671875|290349.563506125|2.535466510632212|-0.1520399643023508|-0.07874877268190643|-0.02418098784983158|-0.001123280730098486|0.00730703491717577|7.611513137817383e-05|0.001273401081562042|0.000354468822479248|XArbitraryZVertical|-0.06071533405224214|0.06011012750973839|-0.9518249538245556|-0.2944991823561895|-0.1509855091571808|0.07866740971803665|-0.9854008555412292|0|0|0|-1|-1|3
2021-03-10 20:21:03.806 +0000|290349.588460125|-0.146759033203125|0.0838623046875|-0.9843292236328125|290349.583469125|2.535613893661812|-0.1520018014864873|-0.07919524272196783|-0.02214857935905457|-0.0008625579066574574|0.009382081218063831|0.0007350891828536987|-0.004786916077136993|-0.001688718795776367|XArbitraryZVertical|-0.06063459968164579|0.06031212137653644|-0.9518444697435359|-0.2944113906816971|-0.1509425640106201|0.07911248505115509|-0.9853717684745789|0|0|0|-1|-1|3
2021-03-10 20:21:03.826 +0000|290349.608423125|-0.15032958984375|0.0799102783203125|-0.9842071533203125|290349.603432125|2.535790338727181|-0.1520058538081089|-0.07961177458062851|-0.01952996104955673|0.0007678298279643059|0.01079684123396873|0.002092108130455017|0.001816906034946442|-0.001264214515686035|XArbitraryZVertical|-0.06057935241904537|0.06050523502119992|-0.9518671786179635|-0.2943097696037644|-0.1509415507316589|0.07952770590782166|-0.9853385090827942|0|0|0|-1|-1|3
2021-03-10 20:21:03.846 +0000|290349.628386125|-0.148834228515625|0.081695556640625|-0.9836883544921875|290349.623395125|2.535957243445291|-0.1519885892736984|-0.07990635372780371|-0.01533488184213638|0.0003687813878059387|0.01117669697850943|-1.890957355499268e-05|0.003323808312416077|-0.00122380256652832|XArbitraryZVertical|-0.06053200104022607|0.06063757819604436|-0.9518899701743926|-0.2942184095508883|-0.1509209871292114|0.07982134819030762|-0.9853179454803467|0|0|0|-1|-1|3
2021-03-10 20:21:03.866 +0000|290349.648348125|-0.1491851806640625|0.08685302734375|-0.9828643798828125|290349.643358125|2.536028517559037|-0.1519735557086601|-0.0801793834541953|-0.01378340739756823|0.002510601654648781|0.00330235087312758|0.003136798739433289|0.0002898052334785461|0.002678394317626953|XArbitraryZVertical|-0.06048605041148162|0.06076290951957683|-0.9518988399014956|-0.2941734788739047|-0.1509028822183609|0.08009350299835205|-0.9852986335754395|0|0|0|-1|-1|3
2021-03-10 20:21:03.886 +0000|290349.668311125|-0.15216064453125|0.0855712890625|-0.9844512939453125|290349.663321125|2.536015775308148|-0.1519659559118085|-0.0803564996684952|-0.007376640103757381|0.001368158496916294|0.0008635164704173803|-0.001145288348197937|0.005560643970966339|-0.0001420974731445312|XArbitraryZVertical|-0.06045547787921682|0.06084631385031682|-0.9518958309387899|-0.2941723219361813|-0.1508932411670685|0.08027005195617676|-0.9852856993675232|0|0|0|-1|-1|3
2021-03-10 20:21:03.906 +0000|290349.688274125|-0.1510772705078125|0.082061767578125|-0.986175537109375|290349.683284125|2.536020117136447|-0.1519401683307694|-0.08054787183845249|-0.00394738744944334|0.0005377316847443581|0.001051447121426463|0.0003223121166229248|0.004912137985229492|-0.0007179975509643555|XArbitraryZVertical|-0.06041462951511577|0.06093329823723338|-0.9518957643774004|-0.294162984668508|-0.1508654952049255|0.0804608017206192|-0.9852744340896606|0|0|0|-1|-1|3
2021-03-10 20:21:03.926 +0000|290349.708237125|-0.15045166015625|0.0800018310546875|-0.9854736328125|290349.703246125|2.536021503270192|-0.1519438604435374|-0.08059187969346801|-0.0003526362124830484|-0.0001998031511902809|-0.00042136968113482|4.991888999938965e-06|0.0003669187426567078|0.000773310661315918|XArbitraryZVertical|-0.06040983042669345|0.06095470542723347|-0.9518954896351106|-0.2941603333449897|-0.1508686095476151|0.08050466328859329|-0.9852703809738159|0|0|0|-1|-1|3
2021-03-10 20:21:03.946 +0000|290349.728200125|-0.15008544921875|0.082489013671875|-0.98406982421875|290349.723209125|2.535960777092865|-0.1518980221867521|-0.08061840764994387|-0.0001363544724881649|0.0005426323041319847|-0.004174740053713322|0.0002189129590988159|0.001378081738948822|0.002410769462585449|XArbitraryZVertical|-0.06038218876563865|0.06096240008490061|-0.9518876902579118|-0.2941894679153992|-0.1508231163024902|0.08053110539913177|-0.9852751493453979|0|0|0|-1|-1|3
2021-03-10 20:21:03.966 +0000|290349.748163125|-0.1497802734375|0.0813446044921875|-0.98431396484375|290349.743172125|2.535850599714614|-0.15186581993221|-0.08072088860341288|-0.0004509736318141222|0.00145252887159586|-0.005493448581546545|0.0009946376085281372|0.0005129948258399963|0.0002102255821228027|XArbitraryZVertical|-0.06034812678177342|0.06100966930906279|-0.951871655433868|-0.2942385754737733|-0.1507901400327682|0.0806332528591156|-0.9852718710899353|0|0|0|-1|-1|3
2021-03-10 20:21:03.986 +0000|290349.768126125|-0.15106201171875|0.0828704833984375|-0.9852142333984375|290349.763135125|2.535748917681623|-0.1518474706355992|-0.08074651468604153|0.001985452603548765|0.001052095554769039|-0.005590298678725958|0.0008694380521774292|0.003081448376178741|0.0003024935722351074|XArbitraryZVertical|-0.06033244320091244|0.06102220931935727|-0.9518570726149023|-0.2942864769365893|-0.150771751999855|0.08065880089998245|-0.9852725863456726|0|0|0|-1|-1|3
2021-03-10 20:21:04.006 +0000|290349.788089875|-0.1494140625|0.0834503173828125|-0.98553466796875|290349.783098875|2.535648475913915|-0.1518230095201651|-0.08062026405752139|0.009143580682575703|0.00408687349408865|-0.006413127295672894|0.0005111992359161377|0.001864507794380188|0.0004993677139282227|XArbitraryZVertical|-0.06033668116517454|0.06096166787057853|-0.951844063611977|-0.2943403898535762|-0.1507491916418076|0.08053296059370041|-0.9852862954139709|0|0|0|-1|-1|3
2021-03-10 20:21:04.026 +0000|290349.808052875|-0.149810791015625|0.080841064453125|-0.9849395751953125|290349.803061875|2.535589354728751|-0.1518129079110362|-0.08040803431229035|0.01008327677845955|0.002561362460255623|-0.003267312422394753|-0.0003201514482498169|0.003373056650161743|0.000929713249206543|XArbitraryZVertical|-0.06036192958608641|0.06086115458940417|-0.9518373117710328|-0.2943777575616316|-0.1507418155670166|0.08032141625881195|-0.9853047132492065|0|0|0|-1|-1|3
2021-03-10 20:21:04.046 +0000|290349.828015875|-0.1500701904296875|0.0782318115234375|-0.9835968017578125|290349.823024875|2.53555245880555|-0.1517806280470125|-0.08024598665944026|0.008922354318201542|0.003975393250584602|-0.003655867651104927|0.002091407775878906|-0.001516088843345642|0.0001997947692871094|XArbitraryZVertical|-0.06036976992490204|0.06078054301569921|-0.9518341078976205|-0.2944031131079271|-0.1507119685411453|0.08015989512205124|-0.9853224158287048|0|0|0|-1|-1|3
2021-03-10 20:21:04.066 +0000|290349.847978875|-0.1502532958984375|0.0804901123046875|-0.9849395751953125|290349.842987875|2.535489547464488|-0.1517702011754746|-0.0801708037788362|0.002813828876242042|-0.003066696226596832|-0.002203912008553743|0.00205153226852417|-0.001013889908790588|0.001351654529571533|XArbitraryZVertical|-0.06037418226253355|0.06074519471713365|-0.9518257443750175|-0.2944365349932566|-0.1507026106119156|0.08008494973182678|-0.9853299856185913|0|0|0|-1|-1|3
2021-03-10 20:21:04.086 +0000|290349.867940875|-0.1501007080078125|0.082611083984375|-0.986053466796875|290349.862950875|2.53549519688798|-0.1517944438811747|-0.08013243636155873|0.008876964449882507|-0.00197027251124382|0.0003902730531990528|0.001908019185066223|0.0008096322417259216|-0.001059830188751221|XArbitraryZVertical|-0.06039165673336921|0.06073036994249235|-0.9518260925041246|-0.2944346727831796|-0.1507269591093063|0.08004670590162277|-0.9853293299674988|0|0|0|-1|-1|3
2021-03-10 20:21:04.106 +0000|290349.887903875|-0.1517791748046875|0.07733154296875|-0.986358642578125|290349.882913875|2.535494181783261|-0.1518213345965091|-0.08005471739914485|0.005571132525801659|0.0005667069926857948|-0.0006974507123231888|-0.0009179264307022095|0.003343760967254639|8.666515350341797e-05|XArbitraryZVertical|-0.06041609232589442|0.06069744287923452|-0.9518257166079803|-0.2944375952961514|-0.1507543921470642|0.07996923476457596|-0.9853314161300659|0|0|0|-1|-1|3
2021-03-10 20:21:04.145 +0000|290349.907866875|-0.1511383056640625|0.08258056640625|-0.9827423095703125|290349.902876875|2.535464754395734|-0.1517910596713411|-0.07983355974304963|0.01207417249679565|-0.001365309581160545|-0.0006702863611280918|0.0003519058227539062|0.002679206430912018|0.001008987426757812|XArbitraryZVertical|-0.06043399169344801|0.06058882314724368|-0.9518240009656244|-0.2944618268246419|-0.150727242231369|0.07974878698587418|-0.9853534698486328|0|0|0|-1|-1|3
2021-03-10 20:21:04.147 +0000|290349.927829875|-0.1513214111328125|0.0792694091796875|-0.9862823486328125|290349.922838875|2.535459568247953|-0.1518015982284716|-0.07961906214140521|0.01143664494156837|-0.0006678281351923943|6.669876165688038e-05|0.0006853044033050537|-0.001806683838367462|0.0005207061767578125|XArbitraryZVertical|-0.0604710518830167|0.06048864345821481|-0.9518245460049551|-0.2944729867811895|-0.1507402062416077|0.07953497022390366|-0.9853687286376953|0|0|0|-1|-1|3
2021-03-10 20:21:04.166 +0000|290349.947792875|-0.14862060546875|0.0818023681640625|-0.9864501953125|290349.942801875|2.535487728010895|-0.1518149464587566|-0.0794442477925561|0.01289206277579069|-0.002329374197870493|0.001862201956100762|0.0003190934658050537|0.001861840486526489|-0.0003678202629089355|XArbitraryZVertical|-0.06050449132579999|0.06040671626950227|-0.9518296694342055|-0.294466591390352|-0.1507554650306702|0.0793607085943222|-0.9853804707527161|0|0|0|-1|-1|3
2021-03-10 20:21:04.186 +0000|290349.967755875|-0.1510772705078125|0.081756591796875|-0.9855804443359375|290349.962764875|2.535507607418525|-0.1518487810313706|-0.07926797271722597|0.0133276553824544|-0.0008039684034883976|-0.004641592502593994|-0.0001795142889022827|0.0002675354480743408|0.0006632208824157715|XArbitraryZVertical|-0.06054765310072389|0.06032736234759174|-0.9518329083726482|-0.2944635267537701|-0.1507909148931503|0.07918498665094376|-0.9853891730308533|0|0|0|-1|-1|3
2021-03-10 20:21:04.206 +0000|290349.987718875|-0.149658203125|0.0800933837890625|-0.9846649169921875|290349.982727875|2.53543135884777|-0.1518438293985468|-0.07900818619948512|0.01430225744843483|0.001466536894440651|-0.008339302614331245|0.001130983233451843|0.001640401780605316|0.00135570764541626|XArbitraryZVertical|-0.06058199704216453|0.06020553939326033|-0.9518237644582171|-0.2945108687278598|-0.1507891416549683|0.07892601191997528|-0.985410213470459|0|0|0|-1|-1|3
2021-03-10 20:21:04.225 +0000|290350.007681875|-0.1477813720703125|0.078277587890625|-0.9842987060546875|290350.002690875|2.535333169231111|-0.1518444465492647|-0.07874014534927008|0.01364665385335684|0.002606688067317009|-0.008580053225159645|0.002294450998306274|-0.0001828446984291077|7.94529914855957e-05|XArbitraryZVertical|-0.06061957343239095|0.06008128068593267|-0.9518113155758994|-0.2945688825074825|-0.1507929414510727|0.0786588042974472|-0.9854310154914856|0|0|0|-1|-1|3
2021-03-10 20:21:04.245 +0000|290350.027644875|-0.149383544921875|0.0771942138671875|-0.984954833984375|290350.022653875|2.535251665190821|-0.151834141930417|-0.078515714875438|0.01056420989334583|0.0009671403095126152|-0.002587052062153816|0.001493498682975769|-0.0002642795443534851|-0.00109177827835083|XArbitraryZVertical|-0.06064591874352861|0.0599756261228464|-0.9518012876479769|-0.2946174165159886|-0.1507854610681534|0.07843507081270218|-0.9854499697685242|0|0|0|-1|-1|3
2021-03-10 20:21:04.265 +0000|290350.047607875|-0.14776611328125|0.0785369873046875|-0.98406982421875|290350.042616875|2.535233734987878|-0.1518277410895737|-0.07834269610111054|0.01253935974091291|0.001905531622469425|-0.001816244795918465|0.002374246716499329|-0.0008547380566596985|0.001180887222290039|XArbitraryZVertical|-0.06066831577173234|0.05989304133366632|-0.9518000967142707|-0.2946333929907211|-0.1507811993360519|0.0782625824213028|-0.985464334487915|0|0|0|-1|-1|3
2021-03-10 20:21:04.285 +0000|290350.067570875|-0.1487579345703125|0.0799713134765625|-0.984161376953125|290350.062579875|2.535203481188714|-0.1517978801665848|-0.07815561470064489|0.01407996471971273|0.003607558086514473|-0.005387899465858936|0.0004244297742843628|0.001376457512378693|-5.602836608886719e-06|XArbitraryZVertical|-0.060681290130024|0.05980069359350008|-0.9517979149776792|-0.2946565424326703|-0.1507539749145508|0.07807607203722|-0.9854832887649536|0|0|0|-1|-1|3
2021-03-10 20:21:04.305 +0000|290350.087533875|-0.1500701904296875|0.0765533447265625|-0.98565673828125|290350.082542875|2.535138045803756|-0.1517833543778856|-0.07792551425398563|0.01230987906455994|0.0004394082352519035|-0.003979086875915527|0.001236796379089355|0.0007208436727523804|-0.0008248686790466309|XArbitraryZVertical|-0.06070697133084083|0.0596912373489982|-0.9517904124457516|-0.29469780391137|-0.150742381811142|0.07784667611122131|-0.9855032563209534|0|0|0|-1|-1|3
2021-03-10 20:21:04.325 +0000|290350.107495875|-0.1490936279296875|0.0780792236328125|-0.9862213134765625|290350.102505875|2.535063869287841|-0.1517745890629283|-0.07770514591076762|0.01255895104259253|-0.001507309265434742|-0.003252310212701559|0.001627489924430847|-0.0005853325128555298|0.002290904521942139|XArbitraryZVertical|-0.06073368739303105|0.05958752149877461|-0.9517812866355752|-0.2947425573861864|-0.1507363319396973|0.07762697339057922|-0.9855214953422546|0|0|0|-1|-1|3
2021-03-10 20:21:04.345 +0000|290350.127458875|-0.151092529296875|0.0766143798828125|-0.9868927001953125|290350.122468875|2.535099194198508|-0.1517606849176251|-0.07739694050016127|0.01925951428711414|0.000448090024292469|0.003982965834438801|-0.001098662614822388|0.0005611702799797058|-0.002932369709014893|XArbitraryZVertical|-0.06077440736469133|0.05943799743015386|-0.9517891059521301|-0.2947390720855493|-0.150726243853569|0.07731968909502029|-0.9855471849441528|0|0|0|-1|-1|3
2021-03-10 20:21:04.365 +0000|290350.147421875|-0.1505279541015625|0.0761871337890625|-0.986358642578125|290350.142431875|2.535221239685683|-0.151724752061478|-0.07713256706747587|0.01707129552960396|0.001042667776346207|0.001561264856718481|-0.001634538173675537|-0.002333812415599823|-0.00200653076171875|XArbitraryZVertical|-0.06080062996892904|0.05930340984267111|-0.9518100188572199|-0.2946930976650773|-0.1506939083337784|0.07705610990524292|-0.9855727553367615|0|0|0|-1|-1|3
2021-03-10 20:21:04.385 +0000|290350.167384875|-0.151947021484375|0.0793609619140625|-0.982452392578125|290350.162393875|2.535289679092521|-0.151739270326427|-0.07685717330968292|0.01527880318462849|0.001319742761552334|-0.001439495943486691|-0.00140342116355896|0.003678083419799805|0.002330422401428223|XArbitraryZVertical|-0.06085090234415143|0.05917264336512208|-0.951821655757391|-0.2946716970415228|-0.1507114171981812|0.07678152620792389|-0.9855915307998657|0|0|0|-1|-1|3
2021-03-10 20:21:04.405 +0000|290350.187347875|-0.14801025390625|0.0751190185546875|-0.9835662841796875|290350.182356875|2.535265845017626|-0.1517357265021644|-0.07653101937756795|0.01598400808870792|0.002496060915291309|-0.005396953783929348|0.0005347281694412231|0.001989111304283142|0.001974165439605713|XArbitraryZVertical|-0.06089747568003611|0.05901791036067734|-0.951820485721791|-0.2946967632828658|-0.1507117003202438|0.07645633071660995|-0.9856167435646057|0|0|0|-1|-1|3
2021-03-10 20:21:04.425 +0000|290350.207310875|-0.1489715576171875|0.0750579833984375|-0.984466552734375|290350.202319875|2.535201277203059|-0.151744055637462|-0.07625369755601498|0.01340545248240232|0.000123610720038414|-0.004041759762912989|0.002819716930389404|-0.002449341118335724|0.0003459453582763672|XArbitraryZVertical|-0.06094116509816033|0.0588893635606324|-0.9518126474391657|-0.294738874549755|-0.1507231146097183|0.07617982476949692|-0.9856364130973816|0|0|0|-1|-1|3
2021-03-10 20:21:04.445 +0000|290350.227273875|-0.1494140625|0.075531005859375|-0.9831085205078125|290350.222282875|2.535209844090663|-0.1517680920458728|-0.07595274725901216|0.01001628115773201|-0.0009147562086582184|-0.001940880436450243|0.002633228898048401|-0.0001198425889015198|-0.0008405447006225586|XArbitraryZVertical|-0.06099803674759506|0.05874967968576712|-0.9518152143995441|-0.2947466657533907|-0.1507502645254135|0.07587974518537521|-0.9856554269790649|0|0|0|-1|-1|3
2021-03-10 20:21:04.465 +0000|290350.247236875|-0.14849853515625|0.0750274658203125|-0.982269287109375|290350.242245875|2.535201201879134|-0.1517799760563657|-0.07574154978459362|0.01391313411295414|0.002347457222640514|-0.002459220588207245|0.002006515860557556|0.001082561910152435|0.002866148948669434|XArbitraryZVertical|-0.06103513937572047|0.05865136448589431|-0.9518150362892239|-0.2947592964042237|-0.1507643908262253|0.07566915452480316|-0.9856694340705872|0|0|0|-1|-1|3
2021-03-10 20:21:04.485 +0000|290350.267199875|-0.1501312255859375|0.085418701171875|-0.9885101318359375|290350.262208875|2.535174852672192|-0.1518245231918324|-0.0755030221511977|0.0152678182348609|-0.004905556328594685|-0.0002936266828328371|0.003991007804870605|9.970366954803467e-05|2.384185791015625e-05|XArbitraryZVertical|-0.06109137845275599|0.05854542254925811|-0.9518113603903999|-0.2947804717983872|-0.150811031460762|0.07543130218982697|-0.9856805801391602|0|0|0|-1|-1|3
2021-03-10 20:21:04.505 +0000|290350.287162875|-0.150665283203125|0.067962646484375|-0.98846435546875|290350.282171875|2.535300253369263|-0.1518699242460388|-0.0751087464346633|0.02003848925232887|-0.001191085204482079|0.00581681914627552|-0.002078548073768616|0.003010571002960205|-0.001326978206634521|XArbitraryZVertical|-0.06117583236091351|0.05836097665253273|-0.9518310585647364|-0.2947359391959131|-0.1508602648973465|0.07503814995288849|-0.9857030510902405|0|0|0|-1|-1|3
2021-03-10 20:21:04.525 +0000|290350.307125875|-0.15118408203125|0.072540283203125|-0.985931396484375|290350.302134875|2.53554532963248|-0.1519067195994099|-0.07480403121155349|0.01708579249680042|-0.002721816767007113|0.01386560220271349|0.001745358109474182|0.00213950127363205|-0.0001503229141235352|XArbitraryZVertical|-0.06124621887387732|0.05821413648600893|-0.9518679581604749|-0.2946308782725063|-0.1508999913930893|0.07473428547382355|-0.9857200384140015|0|0|0|-1|-1|3
2021-03-10 20:21:04.545 +0000|290350.327087875|-0.150665283203125|0.077056884765625|-0.9868621826171875|290350.322097875|2.535805912826729|-0.1519525361192986|-0.07459787470567475|0.01531191170215607|-0.004578359890729189|0.005877538584172726|0.001045167446136475|-0.008152961730957031|-6.574392318725586e-05|XArbitraryZVertical|-0.06130652210431054|0.05811495558645969|-0.9519062897769311|-0.2945141551656662|-0.1509474813938141|0.07452870905399323|-0.9857283234596252|0|0|0|-1|-1|3
2021-03-10 20:21:04.565 +0000|290350.347050875|-0.1499481201171875|0.0770721435546875|-0.9844970703125|290350.342060875|2.535849122049222|-0.1519275231601201|-0.07436703248963593|0.02217154763638973|0.0002417489886283875|-0.006879889871925116|-0.0007316321134567261|0.002972006797790527|0.001603007316589355|XArbitraryZVertical|-0.06133048712164849|0.05800027168350087|-0.9519148935307696|-0.2945039441472715|-0.1509254276752472|0.07429850101470947|-0.9857490658760071|0|0|0|-1|-1|3
2021-03-10 20:21:04.585 +0000|290350.367013875|-0.15240478515625|0.071075439453125|-0.98651123046875|290350.362023875|2.535768115590608|-0.1519543138497109|-0.07407609088104837|0.02177733369171619|-0.001950565725564957|-0.005734642036259174|-0.0004273205995559692|0.003460519015789032|0.002520501613616943|XArbitraryZVertical|-0.06138451950445156|0.05786847161932521|-0.9519039844719317|-0.294553856006842|-0.1509550958871841|0.07400836050510406|-0.9857663512229919|0|0|0|-1|-1|3
2021-03-10 20:21:04.605 +0000|290350.386976875|-0.1541900634765625|0.0705413818359375|-0.99273681640625|290350.381985875|2.535794609611703|-0.1519370682816801|-0.0736381787358389|0.02241356112062931|-0.0001870198175311089|0.004253276623785496|-0.006191983819007874|-0.003304913640022278|-0.00399094820022583|XArbitraryZVertical|-0.06144273785587747|0.05765705708863139|-0.9519111983366338|-0.2945600456608348|-0.1509429961442947|0.07357164472341537|-0.9858009219169617|0|0|0|-1|-1|3
2021-03-10 20:21:04.640 +0000|290350.406939875|-0.15106201171875|0.061767578125|-0.9847869873046875|290350.401948875|2.536006335115433|-0.1519008115637648|-0.07334722632450855|0.00811481848359108|0.003307046368718147|0.01452091708779335|-0.003981456160545349|-0.004845790565013885|-0.003415048122406006|XArbitraryZVertical|-0.06147519441442652|0.05750697040579746|-0.9519453013510408|-0.294472450527066|-0.1509104818105698|0.07328148186206818|-0.9858275055885315|0|0|0|-1|-1|3
2021-03-10 20:21:04.645 +0000|290350.426902875|-0.1456298828125|0.0693817138671875|-0.978302001953125|290350.421911875|2.536293526992311|-0.1518296485039793|-0.0735006618816708|-0.00952637754380703|3.679189831018448e-05|0.01440205052495003|0.003515064716339111|-0.008660934865474701|0.004717528820037842|XArbitraryZVertical|-0.06142658968904813|0.05756057640474813|-0.9519888187178486|-0.2943314129139594|-0.150838628411293|0.0734345018863678|-0.9858270883560181|0|0|0|-1|-1|3
2021-03-10 20:21:04.665 +0000|290350.446865875|-0.1494903564453125|0.0712432861328125|-0.982086181640625|290350.441874875|2.536424663065473|-0.1518439439079308|-0.07388745956217285|-0.02165392972528934|0.000531286932528019|0.01022390648722649|0.002441465854644775|-0.002714276313781738|0.005389094352722168|XArbitraryZVertical|-0.06137922910246528|0.05774244735594893|-0.9520052457831221|-0.2942524519883429|-0.1508484035730362|0.07382024824619293|-0.9857968091964722|0|0|0|-1|-1|3
2021-03-10 20:21:04.685 +0000|290350.466828875|-0.151458740234375|0.0768280029296875|-0.98883056640625|290350.461837875|2.536454452269902|-0.1518596621526301|-0.07418098172978312|-0.02000117301940918|-0.000249604694545269|0.002980019664391875|-0.001025334000587463|0.0003804489970207214|-0.0007992982864379883|XArbitraryZVertical|-0.06134360680814047|0.05788331875809261|-0.9520072569544767|-0.2942255479813007|-0.1508606225252151|0.07411296665668488|-0.985772967338562|0|0|0|-1|-1|3
2021-03-10 20:21:04.705 +0000|290350.486791875|-0.15216064453125|0.072265625|-0.987152099609375|290350.481800875|2.536491603099022|-0.1518148399142385|-0.0744562826892525|-0.02085692994296551|0.0009634112939238548|0.002879884792491794|7.180869579315186e-05|-0.001175828278064728|-0.0009958148002624512|XArbitraryZVertical|-0.06128210921929283|0.05800639982705295|-0.9520123329078947|-0.2941976794203027|-0.1508133411407471|0.07438750565052032|-0.9857594966888428|0|0|0|-1|-1|3
2021-03-10 20:21:04.725 +0000|290350.506754875|-0.1504669189453125|0.075836181640625|-0.9879913330078125|290350.501763875|2.536538159958487|-0.1517808209753609|-0.07463094708323099|-0.02216802164912224|0.003244035877287388|0.007443566340953112|0.0006619095802307129|-0.000770173966884613|-0.000561058521270752|XArbitraryZVertical|-0.0612411040107959|0.05808296435369956|-0.9520190999144296|-0.2941692245285355|-0.1507778465747833|0.07456168532371521|-0.9857518076896667|0|0|0|-1|-1|3
2021-03-10 20:21:04.745 +0000|290350.526717875|-0.149078369140625|0.0733489990234375|-0.98309326171875|290350.521726875|2.536630256441848|-0.1517463621021914|-0.07499036371516395|-0.02261115424335003|-0.0002205232158303261|0.008364753797650337|-0.001573368906974792|-0.001006521284580231|0.0002263188362121582|XArbitraryZVertical|-0.0611735468381594|0.05824586115454007|-0.9520313626331695|-0.294111400364113|-0.1507398188114166|0.07492009550333023|-0.9857304096221924|0|0|0|-1|-1|3
2021-03-10 20:21:04.765 +0000|290350.546679875|-0.1488494873046875|0.072845458984375|-0.9837646484375|290350.541689875|2.536718862833334|-0.151759593161485|-0.07548034545870856|-0.02960481494665146|-1.423526555299759e-05|0.006191170774400234|0.002325087785720825|-0.003631338477134705|0.0007829666137695312|XArbitraryZVertical|-0.06110905211743631|0.05847792239033907|-0.952040729201869|-0.2940483674178692|-0.1507472842931747|0.0754086971282959|-0.985692024230957|0|0|0|-1|-1|3
2021-03-10 20:21:04.784 +0000|290350.566642875|-0.1507415771484375|0.0775299072265625|-0.9847564697265625|290350.561652875|2.536766218702064|-0.1517721720968734|-0.07609454213126769|-0.03217538073658943|0.0007699597626924515|0.005136736202985048|-0.00116381049156189|-0.0005511417984962463|0.0002925992012023926|XArbitraryZVertical|-0.0610244523995053|0.05877017148432569|-0.9520431396715595|-0.2939997689590743|-0.1507526636123657|0.07602112740278244|-0.9856441617012024|0|0|0|-1|-1|3
2021-03-10 20:21:04.804 +0000|290350.586605875|-0.153167724609375|0.081268310546875|-0.9848785400390625|290350.581615875|2.536789075082491|-0.1517585718179436|-0.07662477594255633|-0.02087988331913948|0.001066636294126511|0.005570475943386555|-0.00109177827835083|0.003055304288864136|-0.0006913542747497559|XArbitraryZVertical|-0.06093924290571068|0.05901942029033325|-0.9520432950742193|-0.2939671463443391|-0.1507331430912018|0.07654981315135956|-0.9856062531471252|0|0|0|-1|-1|3
2021-03-10 20:21:04.825 +0000|290350.606568875|-0.1539306640625|0.0794830322265625|-0.984100341796875|290350.601577875|2.536825296163456|-0.1517429538893922|-0.07702452358725094|-0.01962105557322502|0.001663876697421074|0.0009930350352078676|-0.001294910907745361|0.002473622560501099|0.001386404037475586|XArbitraryZVertical|-0.06087301451392958|0.05920596392835226|-0.9520463017047663|-0.2939336392289673|-0.1507131010293961|0.076948381960392|-0.9855782389640808|0|0|0|-1|-1|3
2021-03-10 20:21:04.844 +0000|290350.626531875|-0.1486968994140625|0.08074951171875|-0.984100341796875|290350.621540875|2.536840721522427|-0.1517131833960581|-0.07731041554802515|-0.01044961158186197|0.001306054182350636|0.004706013947725296|0.0007933825254440308|0.002814196050167084|0.001704752445220947|XArbitraryZVertical|-0.06081648533407992|0.05933696146048921|-0.9520474634340631|-0.2939152214375489|-0.1506804376840591|0.07723342627286911|-0.9855609536170959|0|0|0|-1|-1|3
2021-03-10 20:21:04.864 +0000|290350.646494875|-0.1512908935546875|0.0809326171875|-0.9859619140625|290350.641503875|2.536879581351498|-0.1517252728900396|-0.07751011206926034|-0.008090967312455177|-2.81892716884613e-05|0.001429970958270133|0.003046005964279175|6.686896085739136e-05|0.001687705516815186|XArbitraryZVertical|-0.06079348834313486|0.05943244238663441|-0.952051389537364|-0.2938880084923555|-0.1506900191307068|0.07743252068758011|-0.9855438470840454|0|0|0|-1|-1|3
2021-03-10 20:21:04.884 +0000|290350.666457875|-0.148590087890625|0.082122802734375|-0.9866180419921875|290350.661466875|2.536902728403779|-0.1517407715287988|-0.07764906018587224|-0.001498594530858099|-0.0003676898777484894|-0.0002645985223352909|-0.0005109161138534546|0.002903811633586884|-0.0006293654441833496|XArbitraryZVertical|-0.06078075316986735|0.05950003903111959|-0.9520532736968247|-0.2938706544215527|-0.1507036536931992|0.07757105678319931|-0.9855309128761292|0|0|0|-1|-1|3
2021-03-10 20:21:04.904 +0000|290350.686420875|-0.1499481201171875|0.0801239013671875|-0.9837646484375|290350.681429875|2.536929263722219|-0.1517391586788545|-0.07771442612760986|0.001693253871053457|-0.001865504309535027|0.004184833262115717|0.001516163349151611|0.002350367605686188|0.0004187226295471191|XArbitraryZVertical|-0.06077098078774151|0.05953005278070289|-0.9520568034458061|-0.2938553876366454|-0.1507012993097305|0.07763621956110001|-0.9855261445045471|0|0|0|-1|-1|3
2021-03-10 20:21:04.924 +0000|290350.706383875|-0.1492919921875|0.07861328125|-0.985198974609375|290350.701392875|2.536950198554866|-0.1517430675341574|-0.07775188194071762|0.004236472770571709|0.001729763112962246|0.0003613329026848078|0.0004514753818511963|0.001504294574260712|0.0001863837242126465|XArbitraryZVertical|-0.06076786226069198|0.05954778975831745|-0.9520594393095002|-0.2938436809908536|-0.1507047116756439|0.07767356932163239|-0.9855226278305054|0|0|0|-1|-1|3
2021-03-10 20:21:04.944 +0000|290350.726346875|-0.149169921875|0.0788116455078125|-0.9843292236328125|290350.721355875|2.536947496657935|-0.1517045894576276|-0.07770714628816765|0.005428819917142391|-0.002430574502795935|-0.0003950933460146189|0.001268550753593445|0.001381054520606995|0.002606451511383057|XArbitraryZVertical|-0.06075616136097862|0.05952096167154564|-0.9520605529188747|-0.2938480076919541|-0.1506673246622086|0.0776289626955986|-0.9855318665504456|0|0|0|-1|-1|3
2021-03-10 20:21:04.964 +0000|290350.746309875|-0.1485443115234375|0.0769500732421875|-0.9850616455078125|290350.741318875|2.536949199882487|-0.1517198833191943|-0.07766836759168265|0.002431998262181878|0.0001965276896953583|-0.0001570065505802631|0.0008720904588699341|0.001602821052074432|0.0009897351264953613|XArbitraryZVertical|-0.06076929822963199|0.05950473094465737|-0.9520606234085539|-0.2938483727368226|-0.1506828516721725|0.07759030163288116|-0.9855325818061829|0|0|0|-1|-1|3
2021-03-10 20:21:04.984 +0000|290350.766272875|-0.149749755859375|0.07745361328125|-0.9854736328125|290350.761281875|2.536997960330372|-0.1517188247133456|-0.07765418306881486|0.00504332734271884|-0.0007644472643733025|0.003343097167089581|0.0003829449415206909|-0.002579204738140106|0.0004569292068481445|XArbitraryZVertical|-0.06077236662917226|0.05949635339861569|-0.9520679394269717|-0.2938258063126181|-0.1506819725036621|0.0775761604309082|-0.9855338335037231|0|0|0|-1|-1|3
2021-03-10 20:21:05.004 +0000|290350.786234625|-0.1520233154296875|0.0765380859375|-0.9872283935546875|290350.781244875|2.537063257948455|-0.151729856833115|-0.07760352021117162|0.005440837703645229|-0.005162710789591074|0.006665301509201527|-0.0005363821983337402|0.001911617815494537|-0.000319063663482666|XArbitraryZVertical|-0.06078714705829403|0.05947191713956082|-0.9520775465471797|-0.2937965015004167|-0.1506934314966202|0.07752565294504166|-0.9855360388755798|0|0|0|-1|-1|3
2021-03-10 20:21:05.024 +0000|290350.806197625|-0.1511688232421875|0.076568603515625|-0.98272705078125|290350.801207625|2.537158653438592|-0.1517339139683468|-0.07757058248552953|0.001026331912726164|0.001478998921811581|0.002206815406680107|-0.001935809850692749|-0.001977056264877319|-0.001720964908599854|XArbitraryZVertical|-0.06079683942932842|0.05945396101068545|-0.9520917213949927|-0.2937524014691708|-0.1506978273391724|0.07749281078577042|-0.9855379462242126|0|0|0|-1|-1|3
2021-03-10 20:21:05.044 +0000|290350.826160625|-0.152069091796875|0.076019287109375|-0.9846038818359375|290350.821169625|2.537152196177054|-0.1517395651870276|-0.0776380777352394|-0.003236173884943128|0.0004751477390527725|-0.002699171658605337|-0.001152843236923218|-0.003142982721328735|0.001187443733215332|XArbitraryZVertical|-0.0607892444060292|0.05948706154703202|-0.9520900342349354|-0.2937523913410356|-0.1507025957107544|0.07756010442972183|-0.9855319261550903|0|0|0|-1|-1|3
2021-03-10 20:21:05.064 +0000|290350.846123625|-0.1485137939453125|0.07672119140625|-0.98541259765625|290350.841132625|2.537087477059527|-0.1517256935173738|-0.07766333372510052|-0.004049153998494148|-0.0008298549801111221|-1.61253847181797e-05|0.001106753945350647|-0.002054266631603241|0.0004246234893798828|XArbitraryZVertical|-0.06077693425676213|0.05949899153344798|-0.9520807748410208|-0.2937825621518593|-0.1506886333227158|0.07758528739213943|-0.9855320453643799|0|0|0|-1|-1|3
2021-03-10 20:21:05.084 +0000|290350.866086625|-0.1518707275390625|0.0765533447265625|-0.9865875244140625|290350.861095625|2.537109299865737|-0.1517446098272427|-0.07786532712811453|-0.01430996414273977|0.0005513681098818779|0.00441386504098773|-0.002203375101089478|-0.003216952085494995|-0.001867294311523438|XArbitraryZVertical|-0.06075634515095437|0.05959708552329376|-0.9520819920145948|-0.2937631927369572|-0.1507049053907394|0.07778666913509369|-0.9855136871337891|0|0|0|-1|-1|3
2021-03-10 20:21:05.104 +0000|290350.886049625|-0.1503753662109375|0.0762481689453125|-0.983367919921875|290350.881058625|2.537141912535799|-0.1517075321658483|-0.07814868374839438|-0.0168247539550066|8.057337254285812e-05|0.004071827046573162|-0.0001070350408554077|-0.002660214900970459|0.0001153945922851562|XArbitraryZVertical|-0.06069724709583543|0.05972528911654233|-0.9520858672334591|-0.293736917228903|-0.1506650298833847|0.07806916534900665|-0.9854974746704102|0|0|0|-1|-1|3
2021-03-10 20:21:05.145 +0000|290350.906012625|-0.150360107421875|0.077484130859375|-0.984466552734375|290350.901021625|2.537163542584024|-0.1516867676111438|-0.0784662107447799|-0.02003509551286697|0.0009880727156996727|0.003763344138860703|0.002661123871803284|-0.0007947683334350586|0.002062380313873291|XArbitraryZVertical|-0.06064047363576909|0.05987245881383518|-0.9520873640997642|-0.2937139506902415|-0.1506408154964447|0.07838571816682816|-0.985476016998291|0|0|0|-1|-1|3
2021-03-10 20:21:05.147 +0000|290350.925975625|-0.1507415771484375|0.0791168212890625|-0.984527587890625|290350.920984625|2.537135962508911|-0.151661424945312|-0.07885485220779392|-0.02523799613118172|0.001676606945693493|0.002264694776386023|0.0003884732723236084|-0.0001446083188056946|0.000357508659362793|XArbitraryZVertical|-0.06056941326224708|0.06005424067450993|-0.952081098641114|-0.2937114330134195|-0.1506112217903137|0.07877315580844879|-0.9854496717453003|0|0|0|-1|-1|3
