loggingTime(txt)|accelerometerTimestamp_sinceReboot(s)|accelerometerAccelerationX(G)|accelerometerAccelerationY(G)|accelerometerAccelerationZ(G)|motionTimestamp_sinceReboot(s)|motionYaw(rad)|motionRoll(rad)|motionPitch(rad)|motionRotationRateX(rad/s)|motionRotationRateY(rad/s)|motionRotationRateZ(rad/s)|motionUserAccelerationX(G)|motionUserAccelerationY(G)|motionUserAccelerationZ(G)|motionAttitudeReferenceFrame(txt)|motionQuaternionX(R)|motionQuaternionY(R)|motionQuaternionZ(R)|motionQuaternionW(R)|motionGravityX(G)|motionGravityY(G)|motionGravityZ(G)|motionMagneticFieldX(µT)|motionMagneticFieldY(µT)|motionMagneticFieldZ(µT)|motionHeading(°)|motionMagneticFieldCalibrationAccuracy(Z)|label
2021-03-02 00:20:40.866 +0000|203305.53288025|-0.548095703125|0.2761383056640625|-0.7846221923828125|203305.53288025|0.705801393243078|-0.6120922289450855|-0.2705010561915111|0.002474171109497547|0.03078003972768784|-0.009510459378361702|-0.003181815147399902|0.01049557328224182|-0.003290414810180664|XArbitraryZVertical|-0.01746796725899252|-0.3245791197484735|0.3646733286921797|0.8725574665824412|-0.5536876916885376|0.267214298248291|-0.7886865139007568|0|0|0|-1|-1|3
2021-03-02 00:20:40.878 +0000|203305.55284225|-0.556182861328125|0.2689361572265625|-0.7866363525390625||||||||||||||||||||||||3
2021-03-02 00:20:40.885 +0000|203305.57280425|-0.5557403564453125|0.2689971923828125|-0.792755126953125|203305.55284225|0.7057074954170016|-0.6117198791005894|-0.2701043186219882|-0.01098213251680136|0.02743644081056118|0.009042276069521904|0.003207564353942871|0.0009596943855285645|0.003029704093933105|XArbitraryZVertical|-0.01737242604623868|-0.3243586126121999|0.3645823608688215|0.8726794087322191|-0.5534548163414001|0.2668319642543793|-0.7889793515205383|0|0|0|-1|-1|3
2021-03-02 00:20:40.904 +0000|203305.59276625|-0.5525054931640625|0.2597503662109375|-0.7830963134765625|203305.57280425|0.705702886973321|-0.611461577406388|-0.2702678729955204|-0.0136208925396204|0.02683861181139946|0.01152700558304787|-0.003384172916412354|0.004021644592285156|-0.002661466598510742|XArbitraryZVertical|-0.0174939140502816|-0.3242694618778121|0.3645973671903242|0.8727038186953752|-0.5532259345054626|0.2669895887374878|-0.7890865802764893|0|0|0|-1|-1|3
2021-03-02 00:20:40.924 +0000|203305.61272825|-0.545745849609375|0.259979248046875|-0.7815399169921875|203305.59276625|0.7058823596697488|-0.6104623341580709|-0.2705989077813178|-0.004230286926031113|0.03071511164307594|0.01000775955617428|-0.005947887897491455|-0.006001919507980347|-0.0004878044128417969|XArbitraryZVertical|-0.01779610672960921|-0.3238827734539069|0.3647058110481614|0.8727959442047837|-0.552386462688446|0.2673085927963257|-0.7895665168762207|0|0|0|-1|-1|3
2021-03-02 00:20:40.944 +0000|203305.63269025|-0.553985595703125|0.2615814208984375|-0.7840728759765625|203305.61272825|0.7058559788454628|-0.6101378456091961|-0.2709438554693391|-0.03126679733395576|0.005174169316887856|0.01196580473333597|0.003783285617828369|-0.007295608520507812|0.009411931037902832|XArbitraryZVertical|-0.01801492541241035|-0.3237907047998774|0.364731893364843|0.8728147306688525|-0.5520773530006409|0.2676409780979156|-0.7896701097488403|0|0|0|-1|-1|3
2021-03-02 00:20:40.966 +0000|203305.65265225|-0.5573883056640625|0.2697296142578125|-0.7939910888671875|203305.63269025|0.7055840657671515|-0.6102345538565266|-0.2716848104761939|-0.0266176164150238|-0.003529360517859459|0.003696689615026116|0.004035770893096924|-0.008085757493972778|0.005304813385009766|XArbitraryZVertical|-0.01837508565050417|-0.3239372889332092|0.3647010460402589|0.8727657931163406|-0.5520399212837219|0.2683548331260681|-0.7894539833068848|0|0|0|-1|-1|3
2021-03-02 00:20:40.984 +0000|203305.67261425|-0.5485687255859375|0.265899658203125|-0.7900238037109375|203305.65265225|0.705459750195756|-0.6103931230262891|-0.2719337354423475|-0.0005536931566894054|0.001620288006961346|0.001663277507759631|-0.000393986701965332|0.005514174699783325|-0.002085447311401367|XArbitraryZVertical|-0.01847841215758177|-0.3240412535037238|0.3646775038196555|0.8727347233515758|-0.5521267652511597|0.2685946226119995|-0.7893116474151611|0|0|0|-1|-1|3
2021-03-02 00:20:41.003 +0000|203305.69257625|-0.551971435546875|0.2760467529296875|-0.7906036376953125|203305.67261425|0.7054941987895289|-0.6104045172544159|-0.2719724376965044|-0.0135552454739809|0.002021467313170433|0.007306871004402637|-0.004327714443206787|-0.002747595310211182|-0.0001776218414306641|XArbitraryZVertical|-0.01848820810391483|-0.3240520900359306|0.3646971504168003|0.8727224081325523|-0.552129864692688|0.2686319053173065|-0.7892968654632568|0|0|0|-1|-1|3
2021-03-02 00:20:41.023 +0000|203305.71253825|-0.5559234619140625|0.264190673828125|-0.799468994140625|203305.69257625|0.7054705745515166|-0.6103633724017969|-0.2721660521476128|-0.01113574765622616|0.009677468799054623|0.007471986580640078|-0.001994311809539795|-0.001133561134338379|0.0002602338790893555|XArbitraryZVertical|-0.01858675573526915|-0.3240618105921219|0.3647091706349746|0.87271171646917|-0.5520675778388977|0.2688183784484863|-0.7892769575119019|0|0|0|-1|-1|3
2021-03-02 00:20:41.043 +0000|203305.73250025|-0.5593414306640625|0.26678466796875|-0.7897796630859375|203305.71253825|0.7052694268733676|-0.6102056964634063|-0.2724001980264865|-0.03234809264540672|0.01021223049610853|-0.002613670658320189|0.0005154013633728027|0.0007161498069763184|-0.005716323852539062|XArbitraryZVertical|-0.01875356332056897|-0.3240248687276989|0.3646473977392892|0.8727476541381156|-0.5519070029258728|0.269043892621994|-0.7893123626708984|0|0|0|-1|-1|3
2021-03-02 00:20:41.064 +0000|203305.75246225|-0.564453125|0.27154541015625|-0.767181396484375|203305.73250025|0.7044736250472599|-0.6102410661676061|-0.2731663919985898|-0.06811994314193726|0.007628698833286762|-0.01347004622220993|-0.006609261035919189|-0.005453884601593018|-0.007049381732940674|XArbitraryZVertical|-0.01922121595770714|-0.3241430430513293|0.364390332336909|0.872800883799258|-0.5518166422843933|0.269781768321991|-0.7891236543655396|0|0|0|-1|-1|3
2021-03-02 00:20:41.084 +0000|203305.77242425|-0.55963134765625|0.2623138427734375|-0.7705535888671875|203305.75246225|0.7035703556345194|-0.6100938282917668|-0.27363573043426|-0.03370627015829086|0.03518245741724968|-0.0247807577252388|-0.009376823902130127|0.003966659307479858|0.007881581783294678|XArbitraryZVertical|-0.01960588935055516|-0.3241374423678094|0.3640497058849741|0.8729365834555268|-0.5516278147697449|0.270233690738678|-0.7891010642051697|0|0|0|-1|-1|3
2021-03-02 00:20:41.103 +0000|203305.79238625|-0.548248291015625|0.266021728515625|-0.7760009765625|203305.77242425|0.7026406710391048|-0.6093920884234626|-0.2741455105395051|-0.08382247388362885|0.04732178151607513|-0.02404945343732834|-0.006973087787628174|-0.000445634126663208|0.01418262720108032|XArbitraryZVertical|-0.02011390008946278|-0.3238950236400111|0.3636966406106084|0.8731621306669533|-0.5509950518608093|0.2707244455814362|-0.7893748879432678|0|0|0|-1|-1|3
2021-03-02 00:20:41.123 +0000|203305.81234825|-0.5693359375|0.25543212890625|-0.786956787109375|203305.79238625|0.700749161530878|-0.6089132103595957|-0.2758459356869306|-0.1576765924692154|0.04631324484944344|-0.03604983538389206|0.0006702542304992676|-0.004615128040313721|0.02459627389907837|XArbitraryZVertical|-0.02127373081858971|-0.3239096739478881|0.3630647526343759|0.8733921318400603|-0.5503528118133545|0.2723609805107117|-0.7892599105834961|0|0|0|-1|-1|3
2021-03-02 00:20:41.143 +0000|203305.83231025|-0.583892822265625|0.2498321533203125|-0.794677734375|203305.81234825|0.6975973215847541|-0.6087347265238405|-0.2783598422067973|-0.2439097911119461|0.06281722337007523|-0.05262907594442368|-0.01127749681472778|-0.01916384696960449|0.00479733943939209|XArbitraryZVertical|-0.02295039291886473|-0.3241547664227944|0.3619799709659856|0.8737089873547423|-0.5498186945915222|0.2747789919376373|-0.7887939214706421|0|0|0|-1|-1|3
2021-03-02 00:20:41.163 +0000|203305.85227225|-0.6133575439453125|0.2399444580078125|-0.7994384765625|203305.83231025|0.6928320989415708|-0.6088426016415794|-0.2826439090336527|-0.3913507759571075|0.08973267674446106|-0.07073315978050232|-0.01896607875823975|-0.01642930507659912|-0.00201791524887085|XArbitraryZVertical|-0.02563700056636406|-0.3247489401185902|0.3603995034645522|0.8740669409934522|-0.5492255091667175|0.2788956165313721|-0.7877617478370667|0|0|0|-1|-1|3
2021-03-02 00:20:41.183 +0000|203305.87223425|-0.6248016357421875|0.2169952392578125|-0.8079376220703125|203305.85227225|0.6851935789941329|-0.6088523922327822|-0.2901452727814128|-0.687978982925415|0.1689260900020599|-0.07706934958696365|-0.06036192178726196|-0.04846641421318054|-0.01392394304275513|XArbitraryZVertical|-0.03026503366029019|-0.3256915778870157|0.3579352688065178|0.8745806212577047|-0.5480212569236755|0.2860914170742035|-0.7860180735588074|0|0|0|-1|-1|3
2021-03-02 00:20:41.203 +0000|203305.89219625|-0.640869140625|0.2466888427734375|-0.75665283203125|203305.87223425|0.6724947193215701|-0.6087958512947718|-0.3044276220775641|-1.221311807632446|0.2622394263744354|-0.07145772129297256|-0.07172530889511108|-0.07988336682319641|-0.01924765110015869|XArbitraryZVertical|-0.03880732772746734|-0.3273919396338304|0.3540393947790067|0.8751939486997011|-0.5455842614173889|0.2997471690177917|-0.7826170325279236|0|0|0|-1|-1|3
2021-03-02 00:20:41.223 +0000|203305.91215825|-0.6288604736328125|0.3168487548828125|-0.6648712158203125|203305.89219625|0.6519139186999061|-0.6084448821844547|-0.328203440789692|-1.850467801094055|0.4133723080158234|-0.1641206294298172|-0.09429377317428589|-0.09187424182891846|-0.007271826267242432|XArbitraryZVertical|-0.05302498643949888|-0.3298762576907279|0.3477666898920662|0.8760298030705821|-0.5410822033882141|0.3223428726196289|-0.7767400145530701|0|0|0|-1|-1|3
2021-03-02 00:20:41.243 +0000|203305.93212025|-0.522216796875|0.37884521484375|-0.67132568359375|203305.91215825|0.6229927922716364|-0.6074035820127682|-0.360208231614612|-2.328779697418213|0.6953069567680359|-0.2839163839817047|-0.08544313907623291|-0.05309179425239563|0.05165356397628784|XArbitraryZVertical|-0.07253541138691952|-0.3324470389969478|0.3387192400988631|0.8772039040343234|-0.5341094136238098|0.3524691164493561|-0.7684351801872253|0|0|0|-1|-1|3
2021-03-02 00:20:41.263 +0000|203305.95208125|-0.568145751953125|0.28546142578125|-0.7258758544921875|203305.93212025|0.5865969124661969|-0.6059144515469245|-0.3983996761281458|-2.669799089431763|0.7962968349456787|-0.3044057488441467|-0.06879287958145142|-0.06058189272880554|0.1234817504882812|XArbitraryZVertical|-0.09625831490754226|-0.3345610278737155|0.3270047018745584|0.8785619724881221|-0.5249113440513611|0.387943834066391|-0.7576065063476562|0|0|0|-1|-1|3
2021-03-02 00:20:41.283 +0000|203305.97204325|-0.509124755859375|0.6186370849609375|-0.675079345703125|203305.95208125|0.5460046099453471|-0.6046876919277319|-0.4410702547250956|-3.019550800323486|0.9648367762565613|-0.3815370202064514|-0.0001856684684753418|-0.06972992420196533|0.04040831327438354|XArbitraryZVertical|-0.1227572788367465|-0.3360922231687862|0.3138830212580014|0.8794600730221727|-0.5140965580940247|0.4269075393676758|-0.7439453601837158|0|0|0|-1|-1|3
2021-03-02 00:20:41.303 +0000|203305.99200525|-0.4350433349609375|0.4360809326171875|-0.725616455078125|203305.97204325|0.4990557960491195|-0.6044640404569778|-0.4877267945684737|-3.128209352493286|1.209890842437744|-0.407681792974472|-0.05205249786376953|-0.06059905886650085|0.02203387022018433|XArbitraryZVertical|-0.1520411584837043|-0.3368227562080927|0.2984214019686942|0.8799877431383093|-0.5020551085472107|0.4686189591884613|-0.7268678545951843|0|0|0|-1|-1|3
2021-03-02 00:20:41.323 +0000|203306.01196725|-0.3670806884765625|0.4488067626953125|-0.6919403076171875|203305.99200525|0.4503096780019568|-0.6018866857429146|-0.5342507498368244|-3.191563606262207|1.373558044433594|-0.4777648448944092|0.01128584146499634|0.09036713838577271|0.02227342128753662|XArbitraryZVertical|-0.1819026347032439|-0.3349743452285076|0.2819297192146237|0.8804652398404043|-0.4872990250587463|0.5091963410377502|-0.7094072103500366|0|0|0|-1|-1|3
2021-03-02 00:20:41.343 +0000|203306.03192925|-0.4029388427734375|0.5996551513671875|-0.5800323486328125|203306.01196725|0.3947445490542511|-0.6045885465732137|-0.5851458626810266|-3.718502521514893|1.325583457946777|-0.5085187554359436|0.09179103374481201|-0.1724077463150024|-0.04169565439224243|XArbitraryZVertical|-0.2140948050379525|-0.3335177118763623|0.2634443748542295|0.8795034836381281|-0.4738558232784271|0.5523209571838379|-0.6858587265014648|0|0|0|-1|-1|3
2021-03-02 00:20:41.363 +0000|203306.05189125|-0.3253173828125|0.673553466796875|-0.5069580078125|203306.03192925|0.3297686032047117|-0.6144351683861166|-0.6440466357691453|-4.116963863372803|1.433821678161621|-0.471693366765976|0.07026180624961853|-0.04268193244934082|0.01684558391571045|XArbitraryZVertical|-0.2504916075993884|-0.3324876734322731|0.2428207870766931|0.8762099843858516|-0.4610089063644409|0.6004363298416138|-0.6534118056297302|0|0|0|-1|-1|3
2021-03-02 00:20:41.383 +0000|203306.07185325|-0.3231048583984375|0.6943817138671875|-0.4466094970703125|203306.05189125|0.2585030878390082|-0.6310928170272009|-0.7068267292644368|-4.14764928817749|1.343500018119812|-0.4026572108268738|0.08414000272750854|-0.03298431634902954|0.08047771453857422|XArbitraryZVertical|-0.2887419897193365|-0.3311348454104094|0.2214675928447243|0.8705916515563377|-0.4486724734306335|0.6494240164756775|-0.613955557346344|0|0|0|-1|-1|3
2021-03-02 00:20:41.403 +0000|203306.09181525|-0.31658935546875|0.810546875|-0.4121246337890625|203306.07185325|0.1849866156961115|-0.654102046884235|-0.7669562782029783|-3.959775447845459|1.301122665405273|-0.3528636693954468|0.123354583978653|0.02010327577590942|0.1010870933532715|XArbitraryZVertical|-0.3252853439907651|-0.3293706306324245|0.2007950509831705|0.863357237427692|-0.4380976557731628|0.693946897983551|-0.5714088678359985|0|0|0|-1|-1|3
2021-03-02 00:20:41.423 +0000|203306.11177725|-0.321441650390625|0.812255859375|-0.4122467041015625|203306.09181525|0.1096517010010243|-0.6829592131017478|-0.8233878904348482|-3.732182741165161|1.193642973899841|-0.2946749925613403|0.1030045747756958|-0.009530246257781982|0.1025823950767517|XArbitraryZVertical|-0.3596728128011848|-0.3271013277749488|0.1811256341527914|0.8548881473670582|-0.4289781749248505|0.7334529161453247|-0.5272803902626038|0|0|0|-1|-1|3
2021-03-02 00:20:41.443 +0000|203306.13173925|-0.3138427734375|0.81103515625|-0.372314453125|203306.11177725|0.03348943440374054|-0.7172687579352901|-0.8739351885000903|-3.379709243774414|1.063374638557434|-0.3114404082298279|0.09862521290779114|0.0719606876373291|0.06573495268821716|XArbitraryZVertical|-0.3908887165039234|-0.3246064961623893|0.1627239807736689|0.8457880414692378|-0.4218826591968536|0.7668605446815491|-0.4836732745170593|0|0|0|-1|-1|3
2021-03-02 00:20:41.473 +0000|203306.15170125|-0.3326873779296875|0.8356781005859375|-0.379180908203125|203306.13173925|-0.04274115437877923|-0.7579155784917397|-0.9172390580623355|-3.006025314331055|0.8229557275772095|-0.2995307445526123|0.1067668199539185|0.01175320148468018|0.05596259236335754|XArbitraryZVertical|-0.4182954081165237|-0.3228584112720926|0.1459432260411077|0.8363562517807615|-0.4179545342922211|0.793925940990448|-0.4415827989578247|0|0|0|-1|-1|3
2021-03-02 00:20:41.488 +0000|203306.17166325|-0.3877105712890625|0.861236572265625|-0.331634521484375|203306.15170125|-0.1149316449217675|-0.8019035209282424|-0.9529181749908476|-2.52960467338562|0.590908408164978|-0.2428493499755859|0.08853223919868469|0.01139795780181885|0.03147715330123901|XArbitraryZVertical|-0.4414837608169549|-0.3220007920046382|0.1317179681388282|0.8270778867744131|-0.4163367748260498|0.8151094913482666|-0.4028151631355286|0|0|0|-1|-1|3
2021-03-02 00:20:41.503 +0000|203306.19162525|-0.368865966796875|0.96514892578125|-0.329986572265625|203306.17166325|-0.1781694347610347|-0.8432904592080402|-0.979646907929789|-1.911336660385132|0.4818605780601501|-0.2424471229314804|0.06107476353645325|0.01604324579238892|-0.005310952663421631|XArbitraryZVertical|-0.459692125203353|-0.3215169944230169|0.1201520555134671|0.8190686131757775|-0.4162230491638184|0.8303006291389465|-0.3706199526786804|0|0|0|-1|-1|3
2021-03-02 00:20:41.523 +0000|203306.21158725|-0.3927154541015625|0.865997314453125|-0.3741455078125|203306.19162525|-0.2254945609472787|-0.8739154450608702|-0.9959142365633178|-1.114193439483643|0.4096802473068237|-0.2322520017623901|0.04527372121810913|0.1190869808197021|0.04602193832397461|XArbitraryZVertical|-0.4718373482284616|-0.3207442201766606|0.111284934754582|0.8137003394005098|-0.416962593793869|0.8392564058303833|-0.3489853143692017|0|0|0|-1|-1|3
2021-03-02 00:20:41.543 +0000|203306.23154925|-0.428009033203125|0.9131011962890625|-0.369903564453125|203306.21158725|-0.253920886286128|-0.8910859141037525|-1.003424378754924|-0.6124765276908875|0.2656011581420898|-0.1575224697589874|0.03370159864425659|0.03969436883926392|-0.02886554598808289|XArbitraryZVertical|-0.4783266111096123|-0.3198468735210125|0.1054091939278645|0.8110427341663816|-0.4179789125919342|0.8433162569999695|-0.3378032743930817|0|0|0|-1|-1|3
2021-03-02 00:20:41.563 +0000|203306.25151125|-0.42523193359375|0.86083984375|-0.35919189453125|203306.23154925|-0.2702909324687572|-0.9001676551001134|-1.007317697324941|-0.3685670495033264|0.2136570662260056|-0.08959703892469406|0.01809394359588623|0.07014012336730957|-0.04230210185050964|XArbitraryZVertical|-0.4819420688238819|-0.3189932218739025|0.101799288657287|0.8096985850210174|-0.4184539914131165|0.8454021811485291|-0.3319503366947174|0|0|0|-1|-1|3
2021-03-02 00:20:41.583 +0000|203306.27147325|-0.453125|0.927886962890625|-0.3504791259765625|203306.25151125|-0.2835331489018522|-0.9078977388083029|-1.012075540679883|-0.5329124927520752|0.1358722597360611|0.02621460519731045|-0.008818447589874268|0.0267912745475769|-0.04222720861434937|XArbitraryZVertical|-0.4854483502195033|-0.3181610329847693|0.09935601063379633|0.8082337658178845|-0.4178325533866882|0.8479339480400085|-0.3262269198894501|0|0|0|-1|-1|3
2021-03-02 00:20:41.603 +0000|203306.29143525|-0.44696044921875|0.8800048828125|-0.344970703125|203306.27147325|-0.3004998100727355|-0.9198016360644501|-1.020430477665921|-0.6338222622871399|0.1642785370349884|0.06438525021076202|-0.0187021791934967|0.0215984582901001|-0.04026731848716736|XArbitraryZVertical|-0.4906693651288942|-0.3174597155467738|0.09727404770644441|0.8056056822555058|-0.416035920381546|0.8523332476615906|-0.3169257938861847|0|0|0|-1|-1|3
2021-03-02 00:20:41.623 +0000|203306.31139725|-0.4058685302734375|0.8591156005859375|-0.3505859375|203306.29143525|-0.3190707984716462|-0.9311126594127849|-1.029009115002662|-0.6666781306266785|0.2667610049247742|0.0377902090549469|-0.05345070362091064|0.07656091451644897|-0.02863281965255737|XArbitraryZVertical|-0.4962285328361067|-0.3159833027881123|0.09453511706607293|0.8031031594818754|-0.4137123227119446|0.8567884564399719|-0.3078235983848572|0|0|0|-1|-1|3
2021-03-02 00:20:41.643 +0000|203306.33135925|-0.424224853515625|0.90179443359375|-0.3366546630859375|203306.31139725|-0.341167005000593|-0.9455870395833487|-1.038182435011293|-0.763150155544281|0.1877545267343521|0.006127978675067425|-0.0007871389389038086|-0.02896326780319214|-0.04619300365447998|XArbitraryZVertical|-0.5023796229965942|-0.3146732779391653|0.09140277528586904|0.8001505797750739|-0.4117342233657837|0.8614827394485474|-0.2971908748149872|0|0|0|-1|-1|3
2021-03-02 00:20:41.662 +0000|203306.35132125|-0.398956298828125|0.7642059326171875|-0.3254547119140625|203306.33135925|-0.3645355564686826|-0.9617180461030107|-1.045516232437447|-0.5954099893569946|0.2154896408319473|-0.07778138667345047|-0.01688015460968018|0.05176275968551636|-0.05469489097595215|XArbitraryZVertical|-0.5079638983982849|-0.3138924099490679|0.08786621088030493|0.7973228510217629|-0.4112814664840698|0.8651835322380066|-0.2868884801864624|0|0|0|-1|-1|3
2021-03-02 00:20:41.683 +0000|203306.37128325|-0.427642822265625|0.884735107421875|-0.318450927734375|203306.35132125|-0.3844311854057083|-0.9753813923350469|-1.050044852795513|-0.595456063747406|0.1112411618232727|-0.09238944947719574|0.01330941915512085|-0.04698055982589722|-0.06060349941253662|XArbitraryZVertical|-0.5121020093384713|-0.3134174483649959|0.08451282709543326|0.7952223756955606|-0.4119147658348083|0.8674455285072327|-0.2790420651435852|0|0|0|-1|-1|3
2021-03-02 00:20:41.702 +0000|203306.39124525|-0.453704833984375|0.8963775634765625|-0.2657470703125|203306.37128325|-0.4057708788794973|-0.9925125482782908|-1.054655440759498|-0.5386524200439453|0.03680011630058289|-0.1016583144664764|0.004039943218231201|-0.08159875869750977|-0.04562821984291077|XArbitraryZVertical|-0.5163528689080877|-0.3138499707201609|0.0815702154954184|0.7926058512411893|-0.4132806062698364|0.8697302341461182|-0.2697558104991913|0|0|0|-1|-1|3
2021-03-02 00:20:41.722 +0000|203306.41120725|-0.4150543212890625|0.7877197265625|-0.231658935546875|203306.39124525|-0.4201531113122206|-1.002925074149048|-1.056012343601643|-0.3137644529342651|0.1127854287624359|-0.1134878993034363|-0.04263079166412354|0.06153130531311035|-0.03227043151855469|XArbitraryZVertical|-0.5186628352718333|-0.3139861841140462|0.07890534866066658|0.7913124512793341|-0.4150718152523041|0.8703991174697876|-0.2648030817508698|0|0|0|-1|-1|3
2021-03-02 00:20:41.743 +0000|203306.43116925|-0.4323577880859375|0.90618896484375|-0.279510498046875|203306.41120725|-0.4318127546337923|-1.010897950108596|-1.057994614746046|-0.4457468390464783|0.03563476726412773|-0.03431620448827744|-0.01102009415626526|-0.06027728319168091|0.02088338136672974|XArbitraryZVertical|-0.520863830653748|-0.31371417001171|0.07686356001192816|0.7901748285339752|-0.4157071709632874|0.8713733553886414|-0.2605685889720917|0|0|0|-1|-1|3
2021-03-02 00:20:41.762 +0000|203306.45113025|-0.42950439453125|0.826385498046875|-0.298126220703125|203306.43116925|-0.4466954276949734|-1.022911315358605|-1.062254676877446|-0.5314856767654419|0.00281242560595274|0.01409828662872314|-0.01061949133872986|-0.02265608310699463|0.0007511377334594727|XArbitraryZVertical|-0.5241940848678907|-0.3137046453869408|0.07520800754771358|0.7881329967545468|-0.4156347811222076|0.8734555244445801|-0.253619909286499|0|0|0|-1|-1|3
2021-03-02 00:20:41.782 +0000|203306.47109225|-0.41009521484375|0.907745361328125|-0.2501068115234375|203306.45113025|-0.4658799824549641|-1.039558064958591|-1.068077231012549|-0.7442187666893005|-0.06060723960399628|0.0714203417301178|-0.01563841104507446|-0.002221882343292236|-0.05277431011199951|XArbitraryZVertical|-0.5285462898094676|-0.31400005728219|0.07353839725977956|0.7852610163421974|-0.415407121181488|0.8762757182121277|-0.2440855652093887|0|0|0|-1|-1|3
2021-03-02 00:20:41.802 +0000|203306.49105425|-0.41363525390625|0.9659271240234375|-0.2255859375|203306.47109225|-0.492363788357513|-1.063958998538975|-1.077647765155617|-0.8643242120742798|-0.08062063157558441|0.1404516100883484|-0.00331839919090271|0.003064274787902832|-0.04074251651763916|XArbitraryZVertical|-0.5349834314334346|-0.3144753109191363|0.07216481310563602|0.7808266011629593|-0.4138874113559723|0.8808466792106628|-0.2297960072755814|0|0|0|-1|-1|3
2021-03-02 00:20:41.822 +0000|203306.51101625|-0.4748992919921875|0.786376953125|-0.341705322265625|203306.49105425|-0.5198126902628287|-1.089212298190785|-1.086964150540946|-0.6964221596717834|-0.0208454467356205|0.1345567852258682|-0.002390801906585693|0.05478346347808838|-0.02530728280544281|XArbitraryZVertical|-0.5414110066480086|-0.3148705869472365|0.07077228830374521|0.776351570871613|-0.4122667610645294|0.8852187991142273|-0.2154612690210342|0|0|0|-1|-1|3
2021-03-02 00:20:41.842 +0000|203306.5309785|-0.3730316162109375|0.96014404296875|-0.259918212890625|203306.51101625|-0.5401737955361717|-1.105086135923913|-1.092642039476294|-0.5609552264213562|0.1854137629270554|0.01068926323205233|-0.01209545135498047|0.09105128049850464|0.005991935729980469|XArbitraryZVertical|-0.5458578098923031|-0.3142042440678326|0.06874753407545615|0.7736851739360011|-0.411137580871582|0.8878456950187683|-0.2066298872232437|0|0|0|-1|-1|3
2021-03-02 00:20:41.862 +0000|203306.5509405|-0.4158935546875|0.9195709228515625|-0.2389984130859375|203306.5309785|-0.5631773912591581|-1.122764556990242|-1.097881248017436|-0.671898365020752|0.07389400154352188|-0.02515768259763718|0.02458715438842773|-0.1375436186790466|-0.1009212732315063|XArbitraryZVertical|-0.5505020671194897|-0.313514814958414|0.06616322453061146|0.7708944718276579|-0.4105277061462402|0.8902443051338196|-0.1973118633031845|0|0|0|-1|-1|3
2021-03-02 00:20:41.882 +0000|203306.5709025|-0.4164276123046875|0.8874053955078125|-0.194580078125|203306.5509405|-0.5837953131039954|-1.13822673162417|-1.100127096552938|-0.4879251420497894|0.1138846725225449|-0.1062158793210983|-0.009109139442443848|0.09489506483078003|-0.0463176816701889|XArbitraryZVertical|-0.5539198318178835|-0.3132438780576799|0.06312813012673651|0.7688080060074765|-0.4117129445075989|0.8912649750709534|-0.1901021897792816|0|0|0|-1|-1|3
2021-03-02 00:20:41.902 +0000|203306.5908645|-0.40277099609375|0.8648223876953125|-0.1385345458984375|203306.5709025|-0.5995895848161609|-1.149725668003316|-1.10106293654478|-0.3119050562381744|0.108942061662674|-0.1079252660274506|0.01806032657623291|0.008213222026824951|-0.05308383703231812|XArbitraryZVertical|-0.5563195198282005|-0.3130516578271405|0.06052054564275191|0.7673619706693248|-0.4131103456020355|0.8916890025138855|-0.1850145012140274|0|0|0|-1|-1|3
2021-03-02 00:20:41.922 +0000|203306.6108265|-0.4213409423828125|0.92767333984375|-0.1967926025390625|203306.5908645|-0.6121516058920374|-1.158351786271228|-1.102940383356334|-0.3224593698978424|0.1054570376873016|-0.001727547962218523|0.001550585031509399|-0.03133136034011841|0.0518663078546524|XArbitraryZVertical|-0.5585866070151255|-0.3124014258739697|0.05864829879072884|0.7661243725863079|-0.4131563901901245|0.8925372362136841|-0.1807727068662643|0|0|0|-1|-1|3
2021-03-02 00:20:41.942 +0000|203306.6307885|-0.445556640625|0.9571075439453125|-0.197601318359375|203306.6108265|-0.6192144324848595|-1.162083817094473|-1.103553732949854|-0.2955837845802307|0.04375570267438889|0.04899812489748001|0.005443185567855835|0.01505362987518311|-0.002644062042236328|XArbitraryZVertical|-0.5597619987093179|-0.3117057954147699|0.05716414244095619|0.7656619256212219|-0.4133258759975433|0.8928136825561523|-0.1790120005607605|0|0|0|-1|-1|3
2021-03-02 00:20:41.973 +0000|203306.6507505|-0.4191741943359375|0.9773712158203125|-0.1686859130859375|203306.6307885|-0.6274653235340669|-1.168031218001455|-1.107000547104843|-0.2613943219184875|0.05667746812105179|0.03539016842842102|-0.02331051230430603|0.04088073968887329|-0.02970434725284576|XArbitraryZVertical|-0.5618901135875009|-0.310817928432403|0.05667529075353687|0.764499591227166|-0.4115497767925262|0.8943608999252319|-0.1753434240818024|0|0|0|-1|-1|3
2021-03-02 00:20:41.988 +0000|203306.6707125|-0.4212646484375|0.9246368408203125|-0.1082916259765625|203306.6507505|-0.6335313297584858|-1.171710833405912|-1.109132576422132|-0.1936350911855698|0.06995917856693268|0.0314861536026001|-0.01501145958900452|0.08347749710083008|-0.01090417802333832|XArbitraryZVertical|-0.5633505461168109|-0.309988599738895|0.05601368073934559|0.763809887011752|-0.4104340374469757|0.8953126668930054|-0.1730864644050598|0|0|0|-1|-1|3
2021-03-02 00:20:42.002 +0000|203306.6906745|-0.38690185546875|0.9068450927734375|-0.148193359375|203306.6707125|-0.6417886821778067|-1.177499620693325|-1.111330522474371|-0.2375899106264114|0.09845175594091415|0.06312140077352524|-0.02276250720024109|0.04885494709014893|0.03038080036640167|XArbitraryZVertical|-0.5651058416316542|-0.3093199789232059|0.0551378305493531|0.762847413829309|-0.4096104800701141|0.8962895274162292|-0.1699530780315399|0|0|0|-1|-1|3
2021-03-02 00:20:42.022 +0000|203306.7106365|-0.392913818359375|0.9447174072265625|-0.15606689453125|203306.6906745|-0.6512327684416562|-1.184576051432658|-1.114783859467696|-0.2198547720909119|0.03988640010356903|0.08522102236747742|0.01299011707305908|0.0059317946434021|0.05721014738082886|XArbitraryZVertical|-0.5673638155378251|-0.3084746436980751|0.05455680975316385|0.7615544189244138|-0.4079333245754242|0.8978156447410583|-0.1658833920955658|0|0|0|-1|-1|3
2021-03-02 00:20:42.043 +0000|203306.7305985|-0.392822265625|0.936065673828125|-0.1377716064453125|203306.7305985|-0.6584801600387139|-1.189789789520168|-1.120051935323431|-0.2325447797775269|-0.009574682451784611|0.118007019162178|0.01958489418029785|0.04741698503494263|0.02362634241580963|XArbitraryZVertical|-0.5698384363501652|-0.3070628118321148|0.05483701540522944|0.7602560626967719|-0.4043962359428406|0.9001230597496033|-0.1619931757450104|0|0|0|-1|-1|3
2021-03-02 00:20:42.062 +0000|203306.7505605|-0.3668060302734375|0.9813385009765625|-0.138824462890625||||||||||||||||||||||||3
2021-03-02 00:20:42.082 +0000|203306.7705225|-0.3679351806640625|0.923431396484375|-0.121246337890625|203306.7505605|-0.667343685314553|-1.198418195246841|-1.123852775920507|-0.1695962101221085|-0.05498014017939568|0.08867257088422775|0.0162217915058136|0.05770021677017212|0.01653540134429932|XArbitraryZVertical|-0.572034991510266|-0.3068385627546911|0.05506178339560001|0.7586792768797483|-0.4025895893573761|0.9017723202705383|-0.1572521328926086|0|0|0|-1|-1|3
2021-03-02 00:20:42.102 +0000|203306.7904845|-0.4407196044921875|0.893310546875|-0.1771087646484375|203306.7705225|-0.670348563013122|-1.20320839243626|-1.12609296118548|0.053932785987854|-0.1209098845720291|0.08214151859283447|0.04357239603996277|0.05781763792037964|0.01339048147201538|XArbitraryZVertical|-0.5729910574190547|-0.3072189850571247|0.05596129529406886|0.7577374536348954|-0.4014520049095154|0.9027383327484131|-0.1545954793691635|0|0|0|-1|-1|3
2021-03-02 00:20:42.121 +0000|203306.8104465|-0.4017181396484375|0.80255126953125|-0.2335968017578125|203306.7904845|-0.6644393554265688|-1.199740453737789|-1.127048595883787|0.1253988593816757|-0.05363455042243004|0.08176876604557037|0.007256448268890381|0.02797269821166992|0.03267258405685425|XArbitraryZVertical|-0.572449181727862|-0.3073516083382179|0.05749212288562969|0.7579785607651262|-0.4001092314720154|0.9031490087509155|-0.1556738466024399|0|0|0|-1|-1|3
2021-03-02 00:20:42.142 +0000|203306.8304085|-0.39813232421875|0.8616180419921875|-0.1939849853515625|203306.8104465|-0.6593374634462411|-1.195281827853099|-1.128046657725782|0.01976804062724113|0.009139083325862885|0.0604054182767868|-0.02890250086784363|-0.03930407762527466|-0.05431562662124634|XArbitraryZVertical|-0.5720756506598141|-0.3068658483038033|0.05844682750336074|0.7583842978204831|-0.3985724747180939|0.9035770297050476|-0.1571256071329117|0|0|0|-1|-1|3
2021-03-02 00:20:42.162 +0000|203306.8503705|-0.3937530517578125|0.88079833984375|-0.2137908935546875|203306.8304085|-0.6656421752164937|-1.200628090258003|-1.130763975732572|-0.2956790626049042|0.03456870093941689|0.04710142314434052|0.003088593482971191|-0.09161227941513062|-0.05633045732975006|XArbitraryZVertical|-0.5736491498367166|-0.306389978039198|0.05839623762932598|0.7573913771771731|-0.3971163630485535|0.9047378897666931|-0.1541036665439606|0|0|0|-1|-1|3
2021-03-02 00:20:42.182 +0000|203306.8703315|-0.273712158203125|1.041976928710938|0.0680999755859375|203306.8503705|-0.6808320832044187|-1.214104879629672|-1.134950258989922|-0.3876376152038574|-0.02696368470788002|-0.0007464394439011812|-0.000635683536529541|-0.02035897970199585|-0.05386461317539215|XArbitraryZVertical|-0.5767452641442762|-0.3060355907552593|0.05777977445181739|0.7552275634740497|-0.3956046104431152|0.9065131545066833|-0.1474142372608185|0|0|0|-1|-1|3
2021-03-02 00:20:42.202 +0000|203306.8902935|-0.3923187255859375|0.9406585693359375|0.0622100830078125|203306.8703315|-0.7004127476195002|-1.235515754255558|-1.138633838382433|-0.4159447848796844|-0.296012818813324|0.04545212909579277|0.04822361469268799|0.02963602542877197|0.003640368580818176|XArbitraryZVertical|-0.5801327798018705|-0.307474270298376|0.05770817353721186|0.7520473071488776|-0.3955135941505432|0.9080621600151062|-0.1378110647201538|0|0|0|-1|-1|3
2021-03-02 00:20:42.221 +0000|203306.9102555|-0.447052001953125|0.7473907470703125|-0.27716064453125|203306.8902935|-0.7106071621093796|-1.2500339192615|-1.139476185682464|-0.08524686098098755|-0.2756684720516205|0.01463793218135834|0.04234603047370911|0.08641248941421509|0.2150041610002518|XArbitraryZVertical|-0.5815095332624893|-0.3097417587831684|0.05835382135989187|0.7500009450202001|-0.3967466056346893|0.9084146022796631|-0.1318134069442749|0|0|0|-1|-1|3
2021-03-02 00:20:42.242 +0000|203306.9302175|-0.38421630859375|0.9202880859375|-0.1350555419921875|203306.9102555|-0.7055732014806188|-1.24562257176094|-1.138568879938491|0.3098300397396088|0.06033318489789963|0.05427837371826172|-0.1276094317436218|0.007461607456207275|-0.07135961949825287|XArbitraryZVertical|-0.580617695131919|-0.3097908191102681|0.0586826411759688|0.7506456126924044|-0.3969418704509735|0.9080349206924438|-0.1338254809379578|0|0|0|-1|-1|3
2021-03-02 00:20:42.262 +0000|203306.9501795|-0.305694580078125|0.8594818115234375|-0.160247802734375|203306.9302175|-0.6868906449324446|-1.225868682319561|-1.136881787194552|0.3974784314632416|0.1930383443832397|0.04528194665908813|0.01951807737350464|0.03391128778457642|-0.04203115403652191|XArbitraryZVertical|-0.5778597938236382|-0.308219262790581|0.05947274607824205|0.7533537111123977|-0.3956624269485474|0.9073269367218018|-0.1421578824520111|0|0|0|-1|-1|3
2021-03-02 00:20:42.281 +0000|203306.9701415|-0.3607330322265625|0.8960418701171875|-0.154205322265625|203306.9501795|-0.6749215876273901|-1.212436098471091|-1.135579796221019|0.1523483991622925|0.05407731980085373|-0.0101995961740613|0.05429285764694214|-0.07303863763809204|0.0001381635665893555|XArbitraryZVertical|-0.5760621659992556|-0.3069453157620951|0.05971975083841913|0.7552287136740556|-0.3948232531547546|0.9067787528038025|-0.1478739082813263|0|0|0|-1|-1|3
2021-03-02 00:20:42.301 +0000|203306.9901035|-0.3317718505859375|0.9403533935546875|-0.147186279296875|203306.9701415|-0.6740855112481877|-1.210580658818835|-1.134285503629465|-0.07062207907438278|0.04863946139812469|-0.1005762740969658|0.06079217791557312|-0.01878124475479126|-0.01695013046264648|XArbitraryZVertical|-0.5756311583166872|-0.3068205638135023|0.05911345043291658|0.7556556607384824|-0.3956463038921356|0.9062323570251465|-0.1490198224782944|0|0|0|-1|-1|3
2021-03-02 00:20:42.321 +0000|203307.0100655|-0.4272308349609375|0.9925689697265625|-0.2017974853515625|203306.9901035|-0.6812396332427706|-1.21687660748254|-1.132657535212388|-0.1119059324264526|-0.05548044294118881|-0.1509782820940018|0.05958086252212524|0.01736956834793091|0.005099549889564514|XArbitraryZVertical|-0.5760969592115628|-0.307561097589002|0.05773562245060745|0.7551058733027336|-0.3979597389698029|0.9055428504943848|-0.1470369249582291|0|0|0|-1|-1|3
2021-03-02 00:20:42.341 +0000|203307.0300275|-0.4417877197265625|0.898773193359375|-0.2317657470703125|203307.0100655|-0.6838607488608813|-1.221024409953406|-1.130056913053473|0.1048512756824493|-0.0678880587220192|-0.1194223165512085|0.03209453821182251|0.06832647323608398|-0.03314512968063354|XArbitraryZVertical|-0.5756671751205996|-0.3090493715550693|0.05715702020295264|0.754870023548848|-0.4007773697376251|0.904436469078064|-0.1461915820837021|0|0|0|-1|-1|3
2021-03-02 00:20:42.361 +0000|203307.0499895|-0.405242919921875|0.9118499755859375|-0.1573486328125|203307.0300275|-0.6781723695674685|-1.215838070802182|-1.127732539321273|0.1777461767196655|0.02834729477763176|-0.01655487343668938|-0.06574380397796631|0.0481259822845459|-0.07164387404918671|XArbitraryZVertical|-0.5742957420495102|-0.3093302641252509|0.05711445379107897|0.7558022018912475|-0.4019838273525238|0.9034424424171448|-0.1489983797073364|0|0|0|-1|-1|3
2021-03-02 00:20:42.381 +0000|203307.0699515|-0.403900146484375|0.9097137451171875|-0.1525115966796875|203307.0499895|-0.6677487890334611|-1.204719721267544|-1.12725039425352|0.2400141805410385|0.08308244496583939|-0.04148543626070023|-0.003053486347198486|-0.01972132921218872|-0.02296042442321777|XArbitraryZVertical|-0.5728715559133951|-0.3082384504481781|0.05772425343393676|0.7572814079803003|-0.400709331035614|0.9032356142997742|-0.1536144763231277|0|0|0|-1|-1|3
2021-03-02 00:20:42.401 +0000|203307.0899135|-0.1992645263671875|0.9361724853515625|0.0592193603515625|203307.0699515|-0.6617818321825835|-1.197956084593228|-1.125893189315211|0.03416387364268303|0.06178658455610275|-0.108685240149498|0.0008540749549865723|0.0110742449760437|-0.001405283808708191|XArbitraryZVertical|-0.5717672511508384|-0.3077311810311898|0.05764571186776103|0.7583274388858529|-0.4008021354675293|0.902652382850647|-0.1567674577236176|0|0|0|-1|-1|3
2021-03-02 00:20:42.421 +0000|203307.1098755|-0.3052215576171875|1.00048828125|0.0614166259765625|203307.0899135|-0.6684814443838533|-1.205283633338702|-1.124905802625225|-0.3295566737651825|-0.2543944418430328|-0.2370876967906952|0.09164589643478394|0.0009253621101379395|0.107788622379303|XArbitraryZVertical|-0.5723130605921161|-0.3088450493691105|0.0569084714624306|0.7575182489689166|-0.4027726054191589|0.902226984500885|-0.1541449874639511|0|0|0|-1|-1|3
2021-03-02 00:20:42.441 +0000|203307.1298375|-0.411285400390625|1.132949829101562|-0.4476165771484375|203307.1098755|-0.6775503702865525|-1.219550250108714|-1.123769490003601|-0.3488253653049469|0.09544537216424942|0.01371656637638807|0.3904204964637756|0.07507014274597168|0.4829337596893311|XArbitraryZVertical|-0.572997573176291|-0.3119388288657159|0.05722188929616702|0.7557072895324509|-0.4058928787708282|0.901736319065094|-0.1487358957529068|0|0|0|-1|-1|3
2021-03-02 00:20:42.474 +0000|203307.1497995|-0.4164886474609375|0.776947021484375|-0.233673095703125|203307.1298375|-0.6717651118690828|-1.211082701977867|-1.12047813566435|0.6139124631881714|0.1680610328912735|0.01564123295247555|-0.4711452722549438|-0.1974126696586609|-0.5547813177108765|XArbitraryZVertical|-0.5714219107517166|-0.3112415842340378|0.0559988866752|0.7572778308850929|-0.4073947072029114|0.9003086686134338|-0.1532113552093506|0|0|0|-1|-1|3
2021-03-02 00:20:42.488 +0000|203307.1697615|-0.2769927978515625|0.8866119384765625|-0.1590728759765625|203307.1697615|-0.6495338417617001|-1.182322794758347|-1.114321545275275|-0.1059862449765205|0.228878527879715|-0.0746142715215683|0.07421791553497314|-0.05785971879959106|-0.05456782877445221|XArbitraryZVertical|-0.5670306921017964|-0.3082149503715023|0.05442862775420867|0.7619168760139671|-0.4079429507255554|0.8976119160652161|-0.1669594794511795|0|0|0|-1|-1|3
2021-03-02 00:20:42.501 +0000|203307.1897235|-0.24322509765625|0.86077880859375|-0.0904998779296875||||||||||||||||||||||||3
2021-03-02 00:20:42.521 +0000|203307.2096855|-0.2736053466796875|0.9447174072265625|-0.048919677734375|203307.1897235|-0.6586013520278835|-1.186530695865962|-1.114570924170772|-0.2528977990150452|0.1604190319776535|-0.06341638416051865|0.1357596516609192|-0.06886452436447144|0.0655326247215271|XArbitraryZVertical|-0.5683848741282392|-0.3071805917381624|0.05224327744503449|0.7614783866206264|-0.4084341824054718|0.8977218270301819|-0.1651574373245239|0|0|0|-1|-1|3
2021-03-02 00:20:42.541 +0000|203307.2296475|-0.3358917236328125|1.02252197265625|-0.1600494384765625|203307.2096855|-0.6679645620318363|-1.192865744141113|-1.114697860594292|-0.1425890773534775|0.05772121250629425|-0.08588281273841858|0.1610903143882751|-0.0001949667930603027|0.09109796583652496|XArbitraryZVertical|-0.5696956978882756|-0.3068950262864421|0.05052024656047723|0.7607297459544121|-0.4093660116195679|0.8977777361869812|-0.1625245064496994|0|0|0|-1|-1|3
2021-03-02 00:20:42.561 +0000|203307.2496095|-0.3711090087890625|1.034011840820312|-0.263153076171875|203307.2296475|-0.6766293412508035|-1.200014868955923|-1.113745809355061|-0.2090617120265961|-0.01320712827146053|-0.1150502860546112|0.08047306537628174|0.08777981996536255|0.05525851249694824|XArbitraryZVertical|-0.570580030308501|-0.3073868649749941|0.04898061136090674|0.7599687826768838|-0.4113141298294067|0.8973580002784729|-0.1599034816026688|0|0|0|-1|-1|3
2021-03-02 00:20:42.581 +0000|203307.2695705|-0.3693695068359375|0.9857940673828125|-0.30230712890625|203307.2496095|-0.6854889179554691|-1.208191942244671|-1.111663728129312|-0.07648414373397827|0.01733240485191345|-0.186381459236145|0.07321307063102722|0.242051362991333|-0.05627338588237762|XArbitraryZVertical|-0.571164523876696|-0.3085003881868222|0.04732665986990878|0.7591828793919492|-0.4143538177013397|0.8964372277259827|-0.1571971923112869|0|0|0|-1|-1|3
2021-03-02 00:20:42.601 +0000|203307.2895325|-0.4101715087890625|0.943359375|-0.2283782958984375|203307.2695705|-0.6922153879989451|-1.214082612242811|-1.109058473379834|0.004360455088317394|-0.02814842015504837|-0.1951596885919571|0.03466260433197021|-0.00627213716506958|-0.110117495059967|XArbitraryZVertical|-0.5713420293356839|-0.3094897705200753|0.04567280774629706|0.7587478690410403|-0.4174598157405853|0.8952796459197998|-0.1555687338113785|0|0|0|-1|-1|3
2021-03-02 00:20:42.621 +0000|203307.3094945|-0.3192138671875|0.842529296875|0.0810089111328125|203307.2895325|-0.6836124123253839|-1.207016354272523|-1.103141077276678|0.5222049355506897|-0.009306981228291988|-0.2035906314849854|0.03375092148780823|0.1746938228607178|-0.1579322069883347|XArbitraryZVertical|-0.5685175611035236|-0.3107883267235714|0.04514691226857878|0.760368310684373|-0.4212935566902161|0.8926277160644531|-0.1603967994451523|0|0|0|-1|-1|3
2021-03-02 00:20:42.641 +0000|203307.3294565|-0.3738861083984375|0.8889617919921875|0.1159210205078125|203307.3094945|-0.6610374488597898|-1.187517525693454|-1.0960292226088|0.5550792217254639|-0.0698278471827507|-0.1937727034091949|0.05505159497261047|-0.05057793855667114|0.1166746616363525|XArbitraryZVertical|-0.5634307012912495|-0.3115616882306367|0.04611154949804631|0.7637727437684363|-0.423963338136673|0.8893992304801941|-0.170950323343277|0|0|0|-1|-1|3
2021-03-02 00:20:42.661 +0000|203307.3494185|-0.5165863037109375|1.026504516601562|0.037078857421875|203307.3294565|-0.656608128495625|-1.186660758448279|-1.089930963579863|-0.06613375246524811|-0.2486622035503387|-0.322171688079834|0.1176188886165619|-0.004744052886962891|0.3252591490745544|XArbitraryZVertical|-0.5610010440439515|-0.3140165975977683|0.0457595848580556|0.7645765144477514|-0.4288370907306671|0.8865950107574463|-0.1733428090810776|0|0|0|-1|-1|3
2021-03-02 00:20:42.681 +0000|203307.3693805|-0.6551513671875|1.061813354492188|0.0191192626953125|203307.3494185|-0.6678420956457443|-1.203372950781092|-1.08354919195316|-0.01759119890630245|-0.38427734375|-0.391198068857193|0.01073729991912842|0.1162221431732178|0.2864671945571899|XArbitraryZVertical|-0.5605686370010494|-0.3188607628324969|0.04425878361684795|0.7629755286285957|-0.4369457364082336|0.8836250901222229|-0.1681812405586243|0|0|0|-1|-1|3
2021-03-02 00:20:42.701 +0000|203307.3893425|-0.5872344970703125|0.9912261962890625|-0.0465850830078125|203307.3693805|-0.6725533455377765|-1.213631099810943|-1.077542625341067|0.2908369898796082|-0.1889908909797668|-0.2872322797775269|-0.200308233499527|0.1425030827522278|0.2195283323526382|XArbitraryZVertical|-0.5593865047928216|-0.3229787957197602|0.04353467081171436|0.7621522474456153|-0.4436126053333282|0.8807969093322754|-0.165542870759964|0|0|0|-1|-1|3
2021-03-02 00:20:42.721 +0000|203307.4093045|-0.589935302734375|0.7333831787109375|-0.12872314453125|203307.3893425|-0.6530702406234795|-1.199009983495189|-1.068931223777382|0.825663149356842|-0.01456134486943483|-0.2609823048114777|-0.08419930934906006|0.2684240341186523|0.2079935222864151|XArbitraryZVertical|-0.5540760203852673|-0.3249919062916826|0.04432895536985121|0.7651240293691134|-0.4481950104236603|0.8766868710517883|-0.1747600436210632|0|0|0|-1|-1|3
2021-03-02 00:20:42.740 +0000|203307.4292665|-0.70196533203125|0.8022613525390625|-0.250030517578125|203307.4093045|-0.6232320951260006|-1.172346487152095|-1.057678503119508|0.97011798620224|0.02817541360855103|-0.2669199109077454|-0.1730322539806366|-0.1245753169059753|0.09236384928226471|XArbitraryZVertical|-0.5464983802402653|-0.3257425025102377|0.04513032193668568|0.7701912028131893|-0.4524407386779785|0.871218204498291|-0.1904626786708832|0|0|0|-1|-1|3
2021-03-02 00:20:42.760 +0000|203307.4492285|-0.76763916015625|0.807861328125|-0.328643798828125|203307.4292665|-0.5847418194152993|-1.136602361043796|-1.041737038840993|1.511954307556152|0.2624645531177521|-0.4097157716751099|-0.1539283692836761|-0.03521841764450073|0.05593836307525635|XArbitraryZVertical|-0.536166241539845|-0.3261331641844563|0.04575608003051942|0.7772189249241891|-0.4578880071640015|0.8632822632789612|-0.2123258411884308|0|0|0|-1|-1|3
2021-03-02 00:20:42.781 +0000|203307.4691905|-0.79486083984375|0.706573486328125|-0.4218597412109375|203307.4492285|-0.5250427222539248|-1.078258061539986|-1.016574415652745|2.3243248462677|0.4534129500389099|-0.393450915813446|-0.3209273219108582|-0.05656349658966064|-0.08326335251331329|XArbitraryZVertical|-0.5197292071580031|-0.3247333872679366|0.04674563190778612|0.788824685618147|-0.4637252986431122|0.850310206413269|-0.2488595545291901|0|0|0|-1|-1|3
2021-03-02 00:20:42.800 +0000|203307.4891525|-0.7213287353515625|0.81103515625|-0.3442535400390625|203307.4691905|-0.4464869868202528|-1.001330088523071|-0.9835268893286989|2.832251787185669|0.6065630912780762|-0.3340669870376587|-0.2832906246185303|-0.07179099321365356|-0.0961267352104187|XArbitraryZVertical|-0.4976261147000412|-0.3209212399114106|0.04982094525571562|0.8042981822568226|-0.4666483402252197|0.8324567675590515|-0.2987556159496307|0|0|0|-1|-1|3
2021-03-02 00:20:42.820 +0000|203307.5091145|-0.900177001953125|0.96099853515625|-0.44073486328125|203307.4891525|-0.3641265565598722|-0.9230637367374314|-0.9475632954412431|2.937372207641602|0.3348569869995117|-0.007914425805211067|-0.3264866173267365|-0.1388391852378845|-0.08731314539909363|XArbitraryZVertical|-0.4735134448435314|-0.3157526448057908|0.05556332796102018|0.820364420971351|-0.4654445052146912|0.8119956851005554|-0.3521705567836761|0|0|0|-1|-1|3
2021-03-02 00:20:42.840 +0000|203307.529075625|-0.8189849853515625|0.765411376953125|-0.55810546875|203307.5091145|-0.2775280150369665|-0.845497857047274|-0.9012770959845779|4.006879806518555|0.6787377595901489|-0.1551129221916199|-0.2506546676158905|0.2420790791511536|-0.04764890670776367|XArbitraryZVertical|-0.4444622874717772|-0.3108215134998779|0.06342182922066152|0.8377475539653645|-0.4644027054309845|0.7841201424598694|-0.411686509847641|0|0|0|-1|-1|3
2021-03-02 00:20:42.860 +0000|203307.549037625|-1.006744384765625|0.734161376953125|-0.532440185546875|203307.529075625|-0.1843143227609616|-0.7587927876652453|-0.8406097070097966|4.431829452514648|0.8399386405944824|-0.08040674030780792|-0.472830057144165|0.1205810308456421|0.02731537818908691|XArbitraryZVertical|-0.4085306957192944|-0.3018103902479045|0.07243731877034726|0.8583507613467705|-0.4589326083660126|0.7450499534606934|-0.484026312828064|0|0|0|-1|-1|3
2021-03-02 00:20:42.880 +0000|203307.568999625|-1.162399291992188|0.89825439453125|-0.7398529052734375|203307.549037625|-0.1091573592308744|-0.6851005989626761|-0.7797913953377469|3.598579168319702|1.072795391082764|-0.05862633883953094|-0.4574245810508728|-0.09689956903457642|0.03233319520950317|XArbitraryZVertical|-0.3744240845168116|-0.2906887287087431|0.07995319188842433|0.8768775137101114|-0.4499240219593048|0.7031310796737671|-0.5506133437156677|0|0|0|-1|-1|3
2021-03-02 00:20:42.900 +0000|203307.588961625|-1.279144287109375|0.93267822265625|-0.8284454345703125|203307.568999625|-0.0585385238698111|-0.6235755228172997|-0.7276561492117051|2.722756862640381|1.610616683959961|-0.2509588301181793|-0.6213080286979675|0.2304016947746277|-0.02319800853729248|XArbitraryZVertical|-0.3469420884059215|-0.2766457958566636|0.08308455759340667|0.89229767848404|-0.4360497295856476|0.6651211977005005|-0.6061965823173523|0|0|0|-1|-1|3
2021-03-02 00:20:42.920 +0000|203307.608923625|-1.1866455078125|0.9659271240234375|-0.6200103759765625|203307.588961625|-0.03978411834358205|-0.5760284447438707|-0.6928306762587289|0.7545719146728516|1.824872016906738|-0.5358902812004089|-0.8498845100402832|0.2487484812736511|-0.1698614954948425|XArbitraryZVertical|-0.3307929931291132|-0.2606469991044452|0.07848503356626035|0.9035922954271055|-0.4191126525402069|0.6387177705764771|-0.64527827501297|0|0|0|-1|-1|3
2021-03-02 00:20:42.940 +0000|203307.628885625|-1.077484130859375|0.91278076171875|-0.4805450439453125|203307.608923625|-0.06295631339203756|-0.5560641864261527|-0.6968883489116816|-2.148921251296997|1.563282012939453|-0.8014193177223206|-0.8450102210044861|0.3589280843734741|-0.1070367693901062|XArbitraryZVertical|-0.3362803309146183|-0.2475088578973532|0.06521982486144132|0.9063118260488062|-0.4047761261463165|0.6418346762657166|-0.6513097882270813|0|0|0|-1|-1|3
2021-03-02 00:20:42.975 +0000|203307.648847625|-1.045242309570312|0.65374755859375|-0.4364471435546875|203307.628885625|-0.1364687604165493|-0.5812910102014828|-0.7474192126266042|-4.94047737121582|0.7613228559494019|-1.11693549156189|-0.7159149050712585|0.2398073673248291|0.08516347408294678|XArbitraryZVertical|-0.3671364119940553|-0.2423234822877496|0.04356206260291013|0.8969907584530631|-0.4027374088764191|0.6797481775283813|-0.6129803657531738|0|0|0|-1|-1|3
2021-03-02 00:20:42.989 +0000|203307.668809625|-0.826904296875|0.508056640625|-0.3032073974609375|203307.648847625|-0.2670534811731672|-0.6669140269745608|-0.8319670206103053|-7.246047496795654|-0.1077911034226418|-1.4153892993927|-0.6848851442337036|0.1390383243560791|0.08197247982025146|XArbitraryZVertical|-0.4182912678573366|-0.2458998643109433|0.01601699703087025|0.8742476099801868|-0.4165551960468292|0.7392574548721313|-0.5291313529014587|0|0|0|-1|-1|3
2021-03-02 00:20:43.000 +0000|203307.688771625|-0.6925811767578125|0.3376617431640625|0.079071044921875|203307.668809625|-0.4763199757680115|-0.8434001554574527|-0.9287102469491686|-8.68803882598877|-1.345517516136169|-1.730063438415527|-0.4548006057739258|-0.3108581304550171|-0.03029432892799377|XArbitraryZVertical|-0.4834167561265885|-0.2592425670321503|-0.0143201977862328|0.8360002167776871|-0.4472989439964294|0.8008482456207275|-0.3982030749320984|0|0|0|-1|-1|3
2021-03-02 00:20:43.021 +0000|203307.708732625|-0.47894287109375|0.521453857421875|0.2388458251953125|203307.688771625|-0.7644985976971236|-1.117386597944531|-0.9954527488881418|-8.477514266967773|-2.282315254211426|-2.00511908531189|-0.2965003252029419|-0.3523874878883362|0.1277023553848267|XArbitraryZVertical|-0.549351453766508|-0.2811422803803738|-0.0431062915538437|0.7856932020180446|-0.4891441762447357|0.8390054106712341|-0.2383439987897873|0|0|0|-1|-1|3
2021-03-02 00:20:43.040 +0000|203307.728694625|-0.5458984375|0.7770538330078125|0.3083648681640625|203307.708732625|-1.057080151604762|-1.417184376844374|-0.9990795407101125|-6.493865966796875|-2.949706315994263|-2.450099945068359|-0.04074937105178833|-0.5904240012168884|0.2939860820770264|XArbitraryZVertical|-0.6021434772100686|-0.3098847535819357|-0.06690343921025081|0.7327472995063637|-0.5347054004669189|0.8409733176231384|-0.082789346575737|0|0|0|-1|-1|3
2021-03-02 00:20:43.060 +0000|203307.748656625|-0.51593017578125|0.3752899169921875|0.403411865234375|203307.728694625|-1.246100485453112|-1.633127607482809|-0.9511763742630063|-4.133088111877441|-2.854089975357056|-2.730707168579102|0.0761493444442749|0.003191888332366943|0.2114608287811279|XArbitraryZVertical|-0.6326731131629038|-0.3432370820936301|-0.08422025075296601|0.689071676135016|-0.5795976519584656|0.8140991926193237|0.03617392480373383|0|0|0|-1|-1|3
2021-03-02 00:20:43.080 +0000|203307.768618625|-0.5542449951171875|0.7318267822265625|0.237396240234375|203307.748656625|-1.363398191768205|-1.781979370502769|-0.8875483796932634|-4.142876625061035|-2.78256630897522|-2.598891258239746|0.07191002368927002|-0.2810043096542358|0.2433216571807861|XArbitraryZVertical|-0.6521542851935983|-0.3753157640054001|-0.09846987444024008|0.651257644161355|-0.6172896027565002|0.7755263447761536|0.1323342621326447|0|0|0|-1|-1|3
2021-03-02 00:20:43.100 +0000|203307.788580625|-0.411376953125|0.545654296875|0.30657958984375|203307.768618625|-1.466213346115187|-1.913615984560388|-0.8136505712445171|-4.34130859375|-2.548469543457031|-2.680138111114502|0.1239178776741028|-0.2231983542442322|0.04428115487098694|XArbitraryZVertical|-0.6717244557609203|-0.4052486622174256|-0.1137334314539956|0.6096101166464166|-0.6468824148178101|0.7267994284629822|0.2308804392814636|0|0|0|-1|-1|3
2021-03-02 00:20:43.120 +0000|203307.808542625|-0.56280517578125|0.6434173583984375|0.346038818359375|203307.788580625|-1.555049178139456|-2.026395144954403|-0.731986547839646|-4.837873935699463|-2.409333229064941|-2.344025135040283|0.1909078359603882|0.04689174890518188|-0.1184616386890411|XArbitraryZVertical|-0.6907881382457421|-0.4318082388558179|-0.1302123162168324|0.5651531210715238|-0.6679738163948059|0.6683486700057983|0.3272932171821594|0|0|0|-1|-1|3
2021-03-02 00:20:43.140 +0000|203307.828504625|-0.610595703125|0.5716400146484375|0.1317596435546875|203307.808542625|-1.64725944287091|-2.127363435343832|-0.6459071912216247|-5.67765998840332|-1.83686089515686|-1.60089111328125|0.1506873369216919|-0.02588856220245361|0.006488800048828125|XArbitraryZVertical|-0.7128804489728704|-0.4502547313308753|-0.14933749360093|0.5164982112325516|-0.6780310869216919|0.6019231081008911|0.4218557178974152|0|0|0|-1|-1|3
2021-03-02 00:20:43.160 +0000|203307.848466625|-0.5450439453125|0.3891754150390625|0.546630859375|203307.828504625|-1.756813162464545|-2.220065699077116|-0.5571791618291883|-7.104313850402832|-1.296295166015625|-0.5210074782371521|0.06182396411895752|0.09706038236618042|-0.33646160364151|XArbitraryZVertical|-0.7409254658642317|-0.455640826232683|-0.1718018913287343|0.4624986325738596|-0.6760513186454773|0.5287941098213196|0.5131582021713257|0|0|0|-1|-1|3
2021-03-02 00:20:43.180 +0000|203307.868428625|-0.3078155517578125|1.055557250976562|1.118362426757812|203307.848466625|-1.898902194024458|-2.310497186845342|-0.4544518361584541|-8.677929878234863|-0.8676763772964478|0.5129370093345642|0.05780041217803955|-0.1895955204963684|-0.4208665490150452|XArbitraryZVertical|-0.7777158679749664|-0.4449529602278449|-0.1998232473983803|0.3965418283797592|-0.6636963486671448|0.4389698505401611|0.6056501865386963|0|0|0|-1|-1|3
2021-03-02 00:20:43.200 +0000|203307.888390625|-0.220703125|0.8938751220703125|1.10986328125|203307.868428625|-2.039825180414473|-2.379161862311378|-0.3489212016182808|-7.798234939575195|-0.4969193637371063|0.9425740242004395|0.2357473969459534|0.5741467475891113|0.2161686420440674|XArbitraryZVertical|-0.8126931524353722|-0.4234635381275458|-0.2278618521222549|0.3290704400310774|-0.6490622162818909|0.3418842256069183|0.6795830726623535|0|0|0|-1|-1|3
2021-03-02 00:20:43.220 +0000|203307.908352625|-0.431121826171875|1.18096923828125|1.012191772460938|203307.888390625|-2.158383625482734|-2.424116040540436|-0.2563110223293041|-6.795890331268311|-0.4904902875423431|1.133092641830444|0.4243213534355164|0.6244463920593262|0.5054763555526733|XArbitraryZVertical|-0.8398677606113513|-0.3988088271835432|-0.2504885540096639|0.2698686232739705|-0.6360064744949341|0.2535138130187988|0.7288526892662048|0|0|0|-1|-1|3
2021-03-02 00:20:43.239 +0000|203307.928314625|-0.880279541015625|1.85589599609375|0.5743408203125|203307.908352625|-2.254264085016943|-2.452216578241493|-0.1820971520988829|-4.101391792297363|-0.3122923076152802|1.359729290008545|0.2602896690368652|0.7963703274726868|0.2660328149795532|XArbitraryZVertical|-0.8597272343777529|-0.3745815186716636|-0.267191598396527|0.2217345817664801|-0.6255391240119934|0.1810924410820007|0.7588844895362854|0|0|0|-1|-1|3
2021-03-02 00:20:43.259 +0000|203307.948276625|-0.67840576171875|-0.2598724365234375|0.61663818359375|203307.928314625|-2.28726824741918|-2.455104243732654|-0.1696104981090857|0.1415424942970276|0.8706713318824768|-0.1398236453533173|-0.05065459012985229|2.437158584594727|-0.04083526134490967|XArbitraryZVertical|-0.865784173313459|-0.3627761741599044|-0.2721580488847096|0.2115211688344725|-0.6247299313545227|0.1687984466552734|0.7623775601387024|0|0|0|-1|-1|3
2021-03-02 00:20:43.279 +0000|203307.968238625|-0.4940643310546875|-0.1609954833984375|0.9268646240234375|203307.948276625|-2.294282485237676|-2.44420429163999|-0.1748957034067541|-0.6327935457229614|0.5113579630851746|0.6458609700202942|0.07584106922149658|-0.5604952573776245|-0.2304908037185669|XArbitraryZVertical|-0.8657260324684265|-0.3576767603108849|-0.2765315217903053|0.2147464768033828|-0.6324207186698914|0.1740054339170456|0.7548284530639648|0|0|0|-1|-1|3
2021-03-02 00:20:43.299 +0000|203307.988200625|-0.3465728759765625|-0.0186309814453125|1.033065795898438|203307.968238625|-2.321259416086844|-2.437035437102632|-0.165333893074724|-1.813693046569824|0.5544043183326721|0.8157995343208313|-0.05711972713470459|-0.3899691998958588|-0.03753483295440674|XArbitraryZVertical|-0.8691587420724534|-0.3468680598741323|-0.2844326434172555|0.2081914735145418|-0.6388641595840454|0.164581686258316|0.7515087127685547|0|0|0|-1|-1|3
2021-03-02 00:20:43.319 +0000|203308.008162625|-0.1642913818359375|0.609710693359375|0.630340576171875|203307.988200625|-2.35996610251369|-2.4352089468417|-0.1403761491138003|-2.523728847503662|0.1581834703683853|0.4436786770820618|0.2445698976516724|-0.1200790852308273|0.3141971826553345|XArbitraryZVertical|-0.8746319465960707|-0.3341175767282019|-0.2939598564001255|0.1922808129142958|-0.6427021622657776|0.1399155706167221|0.7532311677932739|0|0|0|-1|-1|3
2021-03-02 00:20:43.339 +0000|203308.028124625|-0.2464599609375|0.6729278564453125|0.59222412109375|203308.008162625|-2.400081685036748|-2.442514819281535|-0.1074858745541275|-2.370820045471191|-0.3487797975540161|0.5183546543121338|0.4029056429862976|0.03084361553192139|0.07565128803253174|XArbitraryZVertical|-0.8810942334859864|-0.3227727494016371|-0.300448797510144|0.1709422123152874|-0.6397984027862549|0.1072790250182152|0.7610185742378235|0|0|0|-1|-1|3
2021-03-02 00:20:43.359 +0000|203308.048086625|-0.3568115234375|0.7767333984375|0.5806884765625|203308.028124625|-2.432769312472014|-2.452877458551298|-0.08591241192024171|-1.488275408744812|-0.2363151013851166|0.7019418478012085|0.426155149936676|0.734292209148407|-0.2269030809402466|XArbitraryZVertical|-0.8870086982503059|-0.3127673218636629|-0.3022909481554628|0.1549591487956747|-0.6332017183303833|0.08580676466226578|0.7692156434059143|0|0|0|-1|-1|3
2021-03-02 00:20:43.379 +0000|203308.068048625|-0.3941497802734375|-0.315673828125|-0.1093902587890625|203308.048086625|-2.457677571538767|-2.452833678128233|-0.08268752881685418|0.03005003929138184|0.1758400797843933|0.7988907694816589|0.3549350500106812|0.446566253900528|-0.06418222188949585|XArbitraryZVertical|-0.8907062081573327|-0.3022268898476885|-0.3047468676295528|0.1497680879486654|-0.6334077119827271|0.08259333670139313|0.7693972587585449|0|0|0|-1|-1|3
2021-03-02 00:20:43.399 +0000|203308.088009625|-0.5545501708984375|0.151123046875|0.487945556640625|203308.068048625|-2.449283845300692|-2.451354752988762|-0.1062777643936745|1.852999567985535|-0.1173790171742439|0.3741911947727203|0.2504987120628357|0.4490980505943298|-0.4204000234603882|XArbitraryZVertical|-0.8900641749159505|-0.301923377270664|-0.3008343882287797|0.1616376027743903|-0.6331281661987305|0.1060778126120567|0.7667438983917236|0|0|0|-1|-1|3
2021-03-02 00:20:43.419 +0000|203308.107971625|-0.574432373046875|0.8839111328125|0.7018890380859375|203308.088009625|-2.436509530802039|-2.458597912014247|-0.1328523450491015|0.6843110918998718|-0.6973242163658142|0.3343783915042877|0.1764302253723145|-0.5491641163825989|-0.799658477306366|XArbitraryZVertical|-0.890029148404311|-0.3037653671403882|-0.2920126918455316|0.1740777668640079|-0.6255571842193604|0.13246189057827|0.768850564956665|0|0|0|-1|-1|3
2021-03-02 00:20:43.439 +0000|203308.127933625|-0.6278839111328125|0.61370849609375|0.984649658203125|203308.107971625|-2.436885432013877|-2.476929429265866|-0.1464943530607214|0.8133034110069275|-1.079671740531921|0.7286420464515686|0.03604495525360107|0.4283241629600525|-0.08090925216674805|XArbitraryZVertical|-0.8930694537691538|-0.3029415782723086|-0.2815094592318266|0.1772162161786656|-0.610187292098999|0.1459709405899048|0.7786933183670044|0|0|0|-1|-1|3
2021-03-02 00:20:43.474 +0000|203308.147895625|-0.44354248046875|0.6041259765625|1.330810546875|203308.127933625|-2.436479013542105|-2.498000829498037|-0.1764041520422925|1.377704262733459|-0.9429046511650085|0.9570680856704712|-0.02654951810836792|0.8303229808807373|0.01254796981811523|XArbitraryZVertical|-0.8964780226180922|-0.3001545298192952|-0.2668088013310692|0.187209503993477|-0.5907599925994873|0.17549067735672|0.7875311970710754|0|0|0|-1|-1|3
2021-03-02 00:20:43.488 +0000|203308.167857625|-0.6740264892578125|1.208511352539062|1.65264892578125|203308.147895625|-2.433481740183117|-2.517030141293348|-0.2146294899653055|2.406688928604126|-1.13659656047821|1.063604712486267|0.04228818416595459|0.1153379380702972|0.3174861669540405|XArbitraryZVertical|-0.8988835096557085|-0.2971721633869802|-0.2511772764800195|0.2015117751668523|-0.5713256001472473|0.2129854410886765|0.7926056981086731|0|0|0|-1|-1|3
2021-03-02 00:20:43.499 +0000|203308.187819625|-1.250961303710938|0.8514251708984375|1.463043212890625|203308.167857625|-2.406484486271256|-2.53519737002211|-0.2910061071976303|5.261754035949707|-1.298498868942261|1.20219349861145|0.05426371097564697|0.7951914668083191|0.7815811038017273|XArbitraryZVertical|-0.8967865703148488|-0.2989208713903251|-0.2259638058806955|0.2352882981061625|-0.545947790145874|0.2869161665439606|0.7871596813201904|0|0|0|-1|-1|3
2021-03-02 00:20:43.519 +0000|203308.207781625|-1.545303344726562|0.906402587890625|0.9871368408203125|203308.187819625|-2.352710227127085|-2.533830657808637|-0.4063476241559614|6.98958683013916|-0.2029753476381302|1.258351683616638|-0.4576449394226074|0.6534795165061951|0.8792508840560913|XArbitraryZVertical|-0.8859952358018354|-0.3034015003989404|-0.1965770477212987|0.2903743318556481|-0.524532675743103|0.3952569961547852|0.754080057144165|0|0|0|-1|-1|3
2021-03-02 00:20:43.539 +0000|203308.227743625|-1.78131103515625|0.4266204833984375|0.9783935546875|203308.207781625|-2.28222890004665|-2.491848972807048|-0.5432142021770561|7.557008266448975|1.172808051109314|1.703066468238831|-0.9110284447669983|0.3734296560287476|0.574207067489624|XArbitraryZVertical|-0.8656340204756988|-0.3024707367165952|-0.1736207143266625|0.359228343767565|-0.5178961157798767|0.5168901681900024|0.6816216111183167|0|0|0|-1|-1|3
2021-03-02 00:20:43.559 +0000|203308.247705625|-1.825942993164062|0.575653076171875|0.56640625|203308.227743625|-2.211415197071207|-2.415993963149246|-0.673177605993125|5.640711784362793|2.358374357223511|2.005872249603271|-1.167384028434753|0.1269537806510925|0.2612764239311218|XArbitraryZVertical|-0.8412834723336901|-0.2910187319780897|-0.1609132679823111|0.4262125063453396|-0.5188189744949341|0.6234735250473022|0.5848995447158813|0|0|0|-1|-1|3
2021-03-02 00:20:43.579 +0000|203308.267667625|-1.5223388671875|0.8630523681640625|0.6360931396484375|203308.247705625|-2.182766178243704|-2.34737248729504|-0.7610606127459258|2.720833539962769|2.51319146156311|2.497714757919312|-1.315926790237427|-0.4664385318756104|0.3468416929244995|XArbitraryZVertical|-0.8259496349701481|-0.2674853595682791|-0.1606218327934462|0.4695309328522615|-0.516516387462616|0.6896898150444031|0.5074824094772339|0|0|0|-1|-1|3
2021-03-02 00:20:43.599 +0000|203308.287629625|-1.234054565429688|1.124374389648438|0.23236083984375|203308.267667625|-2.197657907866267|-2.312961102529215|-0.8315286322376113|1.246622681617737|2.019272804260254|3.425706386566162|-1.189021110534668|0.3152675628662109|0.0123521089553833|XArbitraryZVertical|-0.8197790067457057|-0.2359026327521075|-0.1599197482822695|0.4967272386701197|-0.4965562224388123|0.7389621734619141|0.4553753435611725|0|0|0|-1|-1|3
2021-03-02 00:20:43.619 +0000|203308.307591625|-0.9011993408203125|1.060150146484375|0.177398681640625|203308.287629625|-2.240933873360031|-2.312650137423744|-0.9026036495061387|1.594606995582581|1.184829115867615|3.716491937637329|-1.076782584190369|-0.03166228532791138|-0.2942862212657928|XArbitraryZVertical|-0.8180154838424425|-0.200394465842541|-0.152497655449137|0.5171430714502604|-0.4567561149597168|0.7849426865577698|0.418614536523819|0|0|0|-1|-1|3
2021-03-02 00:20:43.639 +0000|203308.327553625|-0.9995574951171875|1.1998291015625|0.182159423828125|203308.307591625|-2.266024064965595|-2.311266221632367|-0.9929701013469988|3.14919114112854|1.152242183685303|3.858158349990845|-0.4864974319934845|0.2762090563774109|-0.3878367245197296|XArbitraryZVertical|-0.8101416069611137|-0.1670770302956511|-0.136414511538743|0.5451117487139716|-0.4031814336776733|0.8376519680023193|0.3684883117675781|0|0|0|-1|-1|3
2021-03-02 00:20:43.659 +0000|203308.347515625|-0.6004180908203125|0.469085693359375|0.0546112060546875|203308.327553625|-2.231044123398464|-2.250971691892555|-1.107445768329408|5.36185884475708|2.174680471420288|3.7735595703125|-0.6599918603897095|0.06733870506286621|-0.2714855968952179|XArbitraryZVertical|-0.7890296049294093|-0.1340951112889174|-0.1203808878044767|0.5873321912626699|-0.3474849164485931|0.8945599794387817|0.2810984253883362|0|0|0|-1|-1|3
2021-03-02 00:20:43.679 +0000|203308.367477625|-0.4185028076171875|-0.00531005859375|0.10699462890625|203308.347515625|-2.09774523343323|-2.077109818759495|-1.22812958910847|5.310707092285156|2.6756591796875|3.199546575546265|-0.5869383811950684|-0.04508781433105469|-0.06821894645690918|XArbitraryZVertical|-0.7562670686081423|-0.09763589284254183|-0.1120134345013617|0.6371658208932757|-0.2938446402549744|0.9418619871139526|0.1629453003406525|0|0|0|-1|-1|3
2021-03-02 00:20:43.699 +0000|203308.387439625|-0.1102752685546875|0.07806396484375|0.3444061279296875|203308.367477625|-1.917952516396788|-1.853346325318025|-1.314807121504869|2.637131214141846|2.442593574523926|2.650093555450439|-0.1860066950321198|-0.8365540504455566|0.006615154445171356|XArbitraryZVertical|-0.7289077389572453|-0.06317086682512241|-0.1084727585317549|0.6730055696517955|-0.2431619614362717|0.9674133062362671|0.07059410214424133|0|0|0|-1|-1|3
2021-03-02 00:20:43.719 +0000|203308.407401625|-0.1334075927734375|0.363983154296875|0.36895751953125|203308.387439625|-1.83399211759613|-1.731670962724194|-1.368452121547322|0.8176347017288208|1.57329785823822|2.177621364593506|-0.09084461629390717|-1.024871110916138|0.1749470233917236|XArbitraryZVertical|-0.7176002825863702|-0.03384247088951097|-0.105793066040055|0.687540672128252|-0.1983704119920731|0.9795981645584106|0.0321909561753273|0|0|0|-1|-1|3
2021-03-02 00:20:43.738 +0000|203308.427363625|-0.3186187744140625|0.4251861572265625|0.3296661376953125|203308.407401625|-1.755217188893225|-1.627746640574191|-1.408444737381525|1.180196523666382|1.234519481658936|1.723711252212524|0.06846542656421661|-0.7284272313117981|0.3720402717590332|XArbitraryZVertical|-0.7102502718430747|-0.01203066662877043|-0.1018083180995872|0.69644432824161|-0.1613761484622955|0.9868499040603638|0.009200370870530605|0|0|0|-1|-1|3
2021-03-02 00:20:43.758 +0000|203308.447325625|-0.31976318359375|0.4987945556640625|0.2977447509765625|203308.427363625|-1.608782154054264|-1.451086988958564|-1.438740619279225|0.7753595113754272|2.009192228317261|1.329821586608887|-0.07207554578781128|-0.5956482887268066|0.3737719655036926|XArbitraryZVertical|-0.7014680350743998|0.008958994802389953|-0.1021900954403359|0.7052796551962167|-0.1307289749383926|0.9912933111190796|-0.0157246645539999|0|0|0|-1|-1|3
2021-03-02 00:20:43.778 +0000|203308.467287625|-0.319305419921875|0.118011474609375|-0.02447509765625|203308.447325625|-1.508572168114964|-1.304846401625644|-1.459744999442417|-0.1404853016138077|2.648741722106934|0.9932738542556763|-0.1996543258428574|-0.5311938524246216|0.2510961890220642|XArbitraryZVertical|-0.6959471865963229|0.03307801449896475|-0.110507273029366|0.7087674412543977|-0.1069252118468285|0.9938401579856873|-0.0291267167776823|0|0|0|-1|-1|3
2021-03-02 00:20:43.798 +0000|203308.487249625|-0.2616729736328125|0.8185577392578125|0.12652587890625|203308.467287625|-1.745127745337538|-1.481300938280056|-1.481301188214073|-1.761510252952576|3.086941003799438|0.4859504997730255|-0.2006555646657944|-0.682811439037323|0.3575819134712219|XArbitraryZVertical|-0.701603107215659|0.06131145464576513|-0.1245154890869693|0.6989204585079465|-0.08901724964380264|0.9959979653358459|-0.007987970486283302|0|0|0|-1|-1|3
2021-03-02 00:20:43.818 +0000|203308.507211625|-0.38348388671875|0.41845703125|0.2435150146484375|203308.487249625|-2.10711715583176|-1.779511511784208|-1.489790276937821|-1.130067467689514|3.269272804260254|0.4617960751056671|-0.1712661385536194|-0.3211075067520142|0.04130852222442627|XArbitraryZVertical|-0.7074904579264084|0.08854599067820919|-0.1418824774624082|0.6866485220834337|-0.07916104793548584|0.9967207908630371|0.01676628179848194|0|0|0|-1|-1|3
2021-03-02 00:20:43.838 +0000|203308.5271727917|-0.36968994140625|0.6005706787109375|0.462860107421875|203308.507211625|-2.405073136189514|-2.008671833736962|-1.487438275450817|-1.250466346740723|3.521719694137573|0.1603174656629562|-0.2403005659580231|-0.5570290684700012|0.1095483303070068|XArbitraryZVertical|-0.7101631139846047|0.11541188426106|-0.1628123098408316|0.6751595226098136|-0.07540372759103775|0.9965277314186096|0.03530310466885567|0|0|0|-1|-1|3
2021-03-02 00:20:43.858 +0000|203308.5471347917|-0.3258819580078125|0.56890869140625|0.3327789306640625|203308.5271727917|-2.651905140120954|-2.182467004802081|-1.479326979152282|-1.023911118507385|3.609852075576782|0.2922499179840088|-0.3847547769546509|-0.2436378002166748|0.2634978294372559|XArbitraryZVertical|-0.7112083285159047|0.1428564683704371|-0.1857024132630616|0.6627889293824013|-0.07477883249521255|0.9958195686340332|0.0524505153298378|0|0|0|-1|-1|3
2021-03-02 00:20:43.878 +0000|203308.5670967917|-0.3532867431640625|0.393524169921875|0.3451690673828125|203308.5471347917|-2.822626060341555|-2.281132626178032|-1.472964534099822|-0.3713278472423553|3.596532106399536|0.1930970698595047|-0.2285457253456116|-0.5190984010696411|0.4419988393783569|XArbitraryZVertical|-0.7092678825692078|0.1696623606267025|-0.2081177249580562|0.6517980156352593|-0.07405125349760056|0.9952182769775391|0.06369249522686005|0|0|0|-1|-1|3
2021-03-02 00:20:43.898 +0000|203308.5870587917|-0.401031494140625|0.2876434326171875|0.3829498291015625|203308.5670967917|-2.779036414402106|-2.165400442654696|-1.477785965264256|0.9859073162078857|3.653585195541382|-0.03704781085252762|-0.2929840385913849|-0.4922598600387573|0.2027338743209839|XArbitraryZVertical|-0.6991341390637398|0.1929372751174168|-0.2337307811659839|0.6475773696673721|-0.07693471014499664|0.995677649974823|0.05202667415142059|0|0|0|-1|-1|3
2021-03-02 00:20:43.918 +0000|203308.6070207917|-0.3740386962890625|0.4481353759765625|0.4325103759765625|203308.5870587917|-2.45804798509834|-1.77170386230343|-1.485986799418777|1.830869793891907|3.761204481124878|-0.2877597212791443|-0.3122316598892212|-0.6263957023620605|0.4133025407791138|XArbitraryZVertical|-0.6807942637446307|0.2120636710432599|-0.2633566862037753|0.6497624193435597|-0.08300143480300903|0.9964058399200439|0.01690365932881832|0|0|0|-1|-1|3
2021-03-02 00:20:43.938 +0000|203308.6269827917|-0.4073028564453125|0.48663330078125|0.4649505615234375|203308.6070207917|-2.030865205850403|-1.271477156750548|-1.473254812563983|2.170258045196533|3.679030895233154|-0.8218087553977966|-0.2595282793045044|-0.6461408138275146|0.4141684770584106|XArbitraryZVertical|-0.658732108947368|0.2274067733760617|-0.2961288376627497|0.6531966321713296|-0.09305647015571594|0.9952465891838074|-0.02871633693575859|0|0|0|-1|-1|3
2021-03-02 00:20:43.973 +0000|203308.6469447917|-0.394500732421875|0.549591064453125|0.3424530029296875|203308.6269827917|-1.774694696665377|-0.9445414455978083|-1.43572291770909|1.839529275894165|3.560222625732422|-1.192965269088745|-0.287544846534729|-0.5368815660476685|0.6098417639732361|XArbitraryZVertical|-0.635585465694276|0.2378388580553023|-0.3311569130513071|0.6555904196126724|-0.1091072857379913|0.9908914566040039|-0.07892758399248123|0|0|0|-1|-1|3
2021-03-02 00:20:43.988 +0000|203308.6669067917|-0.2947235107421875|0.4380950927734375|0.2199249267578125|203308.6469447917|-1.761204270893713|-0.861191871761302|-1.399109703459657|0.5185508728027344|3.428382873535156|-1.60566258430481|-0.263338029384613|-0.4290083050727844|0.450895369052887|XArbitraryZVertical|-0.6188035745830078|0.2478438057990207|-0.3650330717872902|0.6499280869015519|-0.129606232047081|0.9852980375289917|-0.1113111674785614|0|0|0|-1|-1|3
2021-03-02 00:20:43.998 +0000|203308.6868687917|-0.3181304931640625|0.399688720703125|0.30975341796875|203308.6669067917|-1.895596776268294|-0.9275176034920463|-1.373186275313359|-0.916420578956604|3.102418899536133|-1.94243311882019|-0.2030507475137711|-0.3564236760139465|0.3982782363891602|XArbitraryZVertical|-0.6117630662775105|0.2585837805789045|-0.3963227335385257|0.6338837444441829|-0.157087117433548|0.9805386066436768|-0.1177607551217079|0|0|0|-1|-1|3
2021-03-02 00:20:44.018 +0000|203308.7068307917|-0.318756103515625|0.525360107421875|0.55999755859375|203308.6868687917|-2.156646566070487|-1.124461753301655|-1.357414646264613|-2.743186235427856|2.807087182998657|-2.138778209686279|-0.1000566333532333|-0.6459911465644836|0.3312791585922241|XArbitraryZVertical|-0.6167605093219403|0.2718472160781282|-0.4220780175849305|0.606263614177513|-0.1910199522972107|0.9773203730583191|-0.09141112864017487|0|0|0|-1|-1|3
2021-03-02 00:20:44.039 +0000|203308.7267927917|-0.33648681640625|0.34979248046875|0.734405517578125|203308.7068307917|-2.500644644328973|-1.403829646241918|-1.335740287619015|-3.911808252334595|2.862802743911743|-2.220653772354126|-0.09112720191478729|-0.5442177057266235|0.4340454339981079|XArbitraryZVertical|-0.6301163267288888|0.2891376948006096|-0.4430465614343883|0.5683858187504441|-0.2296582162380219|0.972501277923584|-0.03870561718940735|0|0|0|-1|-1|3
2021-03-02 00:20:44.058 +0000|203308.7467547917|-0.4783477783203125|0.6649017333984375|0.6730194091796875|203308.7267927917|-2.870980537773866|-1.706054648448565|-1.294128811996222|-5.445975303649902|2.787738561630249|-2.099824190139771|-0.003040611743927002|-0.5555380582809448|0.6625988483428955|XArbitraryZVertical|-0.6489972117954901|0.3118001176447767|-0.4587022052855421|0.5207451093866418|-0.2706561386585236|0.9619710445404053|0.03683338686823845|0|0|0|-1|-1|3
2021-03-02 00:20:44.078 +0000|203308.7667167917|-0.3731231689453125|1.36627197265625|0.492034912109375|203308.7467547917|3.104094793410156|-1.942966025211884|-1.230581369918574|-4.376956462860107|2.870894432067871|-1.674536824226379|-0.1503208577632904|-0.6030833721160889|0.5534167289733887|XArbitraryZVertical|-0.6680677530736594|0.3381663830565734|-0.4694816342571432|0.4678845395485043|-0.3108454346656799|0.9426829814910889|0.1213420480489731|0|0|0|-1|-1|3
2021-03-02 00:20:44.098 +0000|203308.7866787917|-0.2316436767578125|1.107635498046875|0.35089111328125|203308.7667167917|3.029409495860885|-1.956914964701277|-1.188739905680072|0.3584534823894501|2.690320014953613|-1.287122368812561|-0.0663318932056427|0.404802680015564|0.3932702541351318|XArbitraryZVertical|-0.6687471722265159|0.3506852424266063|-0.487872915754232|0.437923526771872|-0.3453806340694427|0.9278998970985413|0.1404058337211609|0|0|0|-1|-1|3
2021-03-02 00:20:44.118 +0000|203308.8066407917|-0.3278045654296875|1.177963256835938|0.28533935546875|203308.7866787917|-3.117438585388023|-1.783602165388989|-1.17837707917885|3.707693338394165|2.086441516876221|-1.216119289398193|0.07120072841644287|0.1007324457168579|0.2947036027908325|XArbitraryZVertical|-0.651159855075597|0.3411384894266074|-0.5168627473567173|0.4387118047912574|-0.3737975656986237|0.9239866137504578|0.08076924830675125|0|0|0|-1|-1|3
2021-03-02 00:20:44.138 +0000|203308.8266027917|-0.2657623291015625|0.779998779296875|0.252410888671875|203308.8066407917|-2.888181874389162|-1.532467615977453|-1.15731908359562|4.590439796447754|2.109347581863403|-1.595313549041748|0.1114311218261719|0.2868463397026062|0.2874606847763062|XArbitraryZVertical|-0.6256762367856372|0.3175389390406109|-0.5504642652829222|0.4524237206439509|-0.4015005230903625|0.9157292246818542|-0.01539653819054365|0|0|0|-1|-1|3
2021-03-02 00:20:44.158 +0000|203308.8465647917|-0.1535797119140625|0.8308563232421875|-0.123870849609375|203308.8266027917|-2.736244069765515|-1.351686521671516|-1.113837413596761|1.879549384117126|1.961121439933777|-1.894868493080139|0.0878986120223999|0.04367208480834961|0.4282252192497253|XArbitraryZVertical|-0.6031654275477148|0.2970511722904606|-0.5821724237192438|0.4571949996343248|-0.4306719303131104|0.8973984122276306|-0.09590413421392441|0|0|0|-1|-1|3
2021-03-02 00:20:44.178 +0000|203308.8665267917|-0.1183013916015625|1.031143188476562|-0.0247802734375|203308.8465647917|-2.740563819477797|-1.321888805340491|-1.075689763124087|-0.8203250765800476|1.526581645011902|-1.852357745170593|0.3467593789100647|-0.03737354278564453|0.2080024480819702|XArbitraryZVertical|-0.5971783721389451|0.2912997524366969|-0.6017411254026087|0.4432042641681001|-0.4604829847812653|0.879918098449707|-0.1170448884367943|0|0|0|-1|-1|3
2021-03-02 00:20:44.198 +0000|203308.8864877917|-0.2485504150390625|0.8214111328125|0.464935302734375|203308.8665267917|-2.81106188613377|-1.353454854180321|-1.048099708114979|-1.587689518928528|1.450199723243713|-1.556999683380127|0.2420668601989746|0.01165187358856201|-0.02018958330154419|XArbitraryZVertical|-0.5989949843768392|0.2956022414411645|-0.614249809749106|0.4201444934880021|-0.4874738156795502|0.8664761185646057|-0.1076486483216286|0|0|0|-1|-1|3
2021-03-02 00:20:44.218 +0000|203308.9064497917|-0.603973388671875|1.310714721679688|0.316619873046875|203308.8864877917|-2.889956974489158|-1.389173571500123|-1.02346082215396|-1.737744212150574|1.514858484268188|-1.563522934913635|0.2497841715812683|0.3055400848388672|0.1496946811676025|XArbitraryZVertical|-0.6008752587294733|0.3032306756566752|-0.6252685941606938|0.3950178913176692|-0.5118537545204163|0.853914201259613|-0.09400016069412231|0|0|0|-1|-1|3
2021-03-02 00:20:44.238 +0000|203308.9264117917|-0.7204437255859375|0.7841339111328125|0.278900146484375|203308.9064497917|-2.967566790697703|-1.426534973257423|-0.995930630611343|-1.422494411468506|1.44562029838562|-1.849155426025391|0.2324556112289429|0.1585677862167358|0.754618763923645|XArbitraryZVertical|-0.6040615570578559|0.309881450951407|-0.6347157467666753|0.3690783295431882|-0.538073718547821|0.8392653465270996|-0.07816624641418457|0|0|0|-1|-1|3
2021-03-02 00:20:44.258 +0000|203308.9463737917|-1.107986450195312|1.221023559570312|0.4925689697265625|203308.9264117917|-3.032874011028729|-1.45309243607597|-0.9650712679825257|-1.428039789199829|1.559967398643494|-1.519288420677185|-0.0918688178062439|0.0877920389175415|0.348583996295929|XArbitraryZVertical|-0.6064198347419265|0.3143635915711422|-0.6444014541849471|0.3437690858091947|-0.5654186606407166|0.8220894932746887|-0.06686103343963623|0|0|0|-1|-1|3
2021-03-02 00:20:44.278 +0000|203308.9663357917|-1.1707763671875|2.128097534179688|0.68231201171875|203308.9463737917|-3.076176898690754|-1.457018841116805|-0.9308574846231973|-1.87382447719574|1.435601949691772|-1.752122163772583|-0.5564643144607544|1.317771196365356|0.0419926643371582|XArbitraryZVertical|-0.6055741471893694|0.3152495844715664|-0.6566691782315756|0.3204421045847265|-0.5932852625846863|0.8021323084831238|-0.06779530644416809|0|0|0|-1|-1|3
2021-03-02 00:20:44.298 +0000|203308.9862977917|-1.0533447265625|0.7720184326171875|0.5501861572265625|203308.9663357917|3.111687918999292|-1.511239990568646|-0.8948612122588|-1.83458948135376|1.032956600189209|-1.993531107902527|-0.3480773568153381|-0.9958815574645996|0.7103641629219055|XArbitraryZVertical|-0.6134595167449359|0.3241117232453282|-0.6605610922460249|0.2868413170496066|-0.6245177388191223|0.7801222801208496|-0.03723802417516708|0|0|0|-1|-1|3
2021-03-02 00:20:44.318 +0000|203309.0062597917|-1.11053466796875|0.9569244384765625|0.4545440673828125|203308.9862977917|3.069668877592898|-1.523800033366918|-0.8595439654105234|-1.506525278091431|0.765418529510498|-1.760547518730164|-0.6243507266044617|0.644615650177002|0.6532103419303894|XArbitraryZVertical|-0.6162775888508524|0.3238338951022355|-0.667644720061937|0.2637877601320643|-0.6520621180534363|0.7575449347496033|-0.03066708333790302|0|0|0|-1|-1|3
2021-03-02 00:20:44.338 +0000|203309.0262217917|-0.9053802490234375|0.891387939453125|0.210296630859375|203309.0062597917|3.017429954774225|-1.551703180121942|-0.829744245918097|-1.765401363372803|0.3785944879055023|-1.400381207466125|-0.3192296028137207|0.4071539640426636|0.4914496541023254|XArbitraryZVertical|-0.6218287559717052|0.3269324658043035|-0.6695243272012885|0.241208100663335|-0.6749414205551147|0.7377587556838989|-0.01288832165300846|0|0|0|-1|-1|3
2021-03-02 00:20:44.358 +0000|203309.0461837917|-0.7850189208984375|0.74310302734375|0.2917327880859375|203309.0262217917|2.971221692549715|-1.579517942035995|-0.8056406953720961|-1.492383003234863|0.1780012398958206|-1.002630472183228|-0.3746682405471802|0.4298942685127258|0.3017897605895996|XArbitraryZVertical|-0.6274892927408067|0.3305717157022985|-0.6690049923420593|0.2222877068546708|-0.6926229000091553|0.7212745547294617|0.006040943320840597|0|0|0|-1|-1|3
2021-03-02 00:20:44.377 +0000|203309.0661457917|-0.675506591796875|0.616241455078125|0.59234619140625|203309.0461837917|2.923914500878499|-1.612234515514795|-0.7872530752460916|-1.892674803733826|-0.06932365894317627|-0.7402970194816589|-0.1305814981460571|0.07127642631530762|0.2597323656082153|XArbitraryZVertical|-0.633633329852253|0.3363451057237856|-0.6656410056525845|0.2056765195189149|-0.7051880955696106|0.7084171772003174|0.02923845313489437|0|0|0|-1|-1|3
2021-03-02 00:20:44.397 +0000|203309.0861077917|-0.587158203125|0.6577606201171875|0.6669769287109375|203309.0661457917|2.8630111707685|-1.655806716997575|-0.7715452191076387|-2.542855978012085|0.005796018056571484|-0.4880787432193756|-0.003802597522735596|-0.09702402353286743|0.397844672203064|XArbitraryZVertical|-0.6404398999711739|0.3467985272607303|-0.6591171927594732|0.187435224536232|-0.7142453789710999|0.6972437500953674|0.06086496636271477|0|0|0|-1|-1|3
2021-03-02 00:20:44.417 +0000|203309.1060697917|-0.5240020751953125|0.629608154296875|0.4987945556640625|203309.0861077917|2.792211238064008|-1.703959706177144|-0.7572217708680783|-2.497629880905151|0.08543071150779724|-0.456109881401062|0.1245489120483398|-0.03437823057174683|0.7036042213439941|XArbitraryZVertical|-0.6463401549862124|0.3612333883042246|-0.6508951113261617|0.167601327088181|-0.7203128933906555|0.6869050264358521|0.09649031609296799|0|0|0|-1|-1|3
2021-03-02 00:20:44.437 +0000|203309.1260317917|-0.3599853515625|0.48443603515625|0.4398040771484375|203309.1060697917|2.735598393301108|-1.741204060387693|-0.7422053902789878|-1.916166543960571|0.04737355560064316|-0.4380689859390259|0.1787585616111755|-0.0434991717338562|0.4668624401092529|XArbitraryZVertical|-0.6509176936486293|0.3725535967721266|-0.6440817646851704|0.1505604531276762|-0.7263047695159912|0.6759148836135864|0.124980054795742|0|0|0|-1|-1|3
2021-03-02 00:20:44.474 +0000|203309.1459937917|-0.4561920166015625|0.758148193359375|0.321563720703125|203309.1260317917|2.68367999509547|-1.776890198761679|-0.7265300431630065|-2.424445390701294|-0.1576395630836487|-0.367171585559845|0.2913272976875305|-0.09297561645507812|0.2669277191162109|XArbitraryZVertical|-0.6556575251312393|0.3828772688155629|-0.6366719180607728|0.1347849185108917|-0.731665313243866|0.6642798781394958|0.1529635936021805|0|0|0|-1|-1|3
2021-03-02 00:20:44.488 +0000|203309.1659557917|-0.317596435546875|0.8759613037109375|0.32183837890625|203309.1459937917|2.614699419572587|-1.826880234266659|-0.7057306376635025|-3.04866886138916|-0.2350144684314728|-0.3001613914966583|0.3578528761863708|-0.09541332721710205|0.1648741811513901|XArbitraryZVertical|-0.6622182147057799|0.3973196300499033|-0.6248364854668583|0.1148190375382501|-0.7363165020942688|0.6485901474952698|0.1927917003631592|0|0|0|-1|-1|3
2021-03-02 00:20:44.497 +0000|203309.1859177917|-0.415557861328125|0.88232421875|0.4376983642578125|203309.1659557917|2.545495258512388|-1.874496897737817|-0.6871682687867924|-2.368178367614746|-0.1547784805297852|-0.05868617072701454|0.3314028382301331|0.2119322419166565|0.1969949007034302|XArbitraryZVertical|-0.6668098835988554|0.4134676771054728|-0.6125559424455557|0.09583429215070637|-0.737667977809906|0.6343506574630737|0.231181874871254|0|0|0|-1|-1|3
2021-03-02 00:20:44.517 +0000|203309.2058797917|-0.399169921875|0.7165374755859375|0.3320770263671875|203309.1859177917|2.497496243402023|-1.907596314443223|-0.6781072083534881|-1.746962428092957|-0.07831694185733795|0.3706234991550446|0.414802610874176|0.2750388383865356|0.06960916519165039|XArbitraryZVertical|-0.6687332732957231|0.4259975071364811|-0.6034576875839071|0.08462056454226238|-0.735008180141449|0.6273201107978821|0.2573561370372772|0|0|0|-1|-1|3
2021-03-02 00:20:44.537 +0000|203309.2258417917|-0.4347686767578125|0.886749267578125|0.6861572265625|203309.2058797917|2.447471104942124|-1.938347081190798|-0.6740882147547081|-1.966513633728027|0.04457414522767067|0.5665256977081299|0.2668148875236511|0.1785796880722046|0.09572803974151611|XArbitraryZVertical|-0.6679814411374672|0.4406462685375859|-0.5950222692435846|0.07470008039792693|-0.7290950417518616|0.6241852045059204|0.2807366847991943|0|0|0|-1|-1|3
2021-03-02 00:20:44.557 +0000|203309.2458037917|-0.65216064453125|1.115447998046875|0.81707763671875|203309.2258417917|2.397689940618134|-1.97000587264191|-0.6693669423279124|-1.78532862663269|-0.1143528670072556|0.4279127717018127|0.3697522282600403|0.1480802893638611|0.2377250194549561|XArbitraryZVertical|-0.667222192188083|0.455217289354494|-0.5859516750502113|0.06520990527401407|-0.7225505709648132|0.6204896569252014|0.3048164546489716|0|0|0|-1|-1|3
2021-03-02 00:20:44.577 +0000|203309.2657647917|-0.896392822265625|1.318115234375|0.5027008056640625|203309.2458037917|2.360322895662775|-1.996247548616257|-0.6643796892420548|-1.108794808387756|-0.2174198180437088|0.3376562893390656|0.1542475819587708|0.3640962243080139|0.4426193237304688|XArbitraryZVertical|-0.6673675241232847|0.4659316862174992|-0.578030897319425|0.05838241818025982|-0.7171136736869812|0.6165708899497986|0.324943482875824|0|0|0|-1|-1|3
2021-03-02 00:20:44.597 +0000|203309.2857267917|-1.007354736328125|1.661361694335938|0.2780609130859375|203309.2657647917|2.338019703237004|-2.015368185172609|-0.6639657933203329|-0.2736739218235016|-0.3081206977367401|0.4114854037761688|-0.07829105854034424|0.588009238243103|0.3636420071125031|XArbitraryZVertical|-0.667725297915357|0.4727528712388016|-0.5722579681665612|0.05628944525105553|-0.7110002636909485|0.6162449717521667|0.3387047052383423|0|0|0|-1|-1|3
2021-03-02 00:20:44.617 +0000|203309.3056887917|-0.964019775390625|1.445022583007812|0.37066650390625|203309.2857267917|2.340496516386614|-2.02225715188372|-0.6771841547616811|1.150709629058838|-0.4731728136539459|0.7220109701156616|-0.2504929304122925|1.008851408958435|0.005371779203414917|XArbitraryZVertical|-0.6672881487341276|0.4740590900547277|-0.5708816048423939|0.06394372622362333|-0.7012588381767273|0.626600980758667|0.3400110006332397|0|0|0|-1|-1|3
2021-03-02 00:20:44.637 +0000|203309.3256507917|-0.9096527099609375|0.76763916015625|0.01690673828125|203309.3056887917|2.374554117389398|-2.010322678899712|-0.7083480814011299|2.369025707244873|-0.5163214802742004|0.9105676412582397|-0.3166202306747437|0.864998996257782|0.001908987760543823|XArbitraryZVertical|-0.6647711851981467|0.4686722671545155|-0.5757299319812976|0.08342932697707869|-0.687255322933197|0.650580108165741|0.3231488466262817|0|0|0|-1|-1|3
2021-03-02 00:20:44.657 +0000|203309.3456127917|-0.8221435546875|1.288009643554688|-0.3987274169921875|203309.3256507917|2.415267540979012|-1.993000923327854|-0.744429449130974|1.697526693344116|-0.4781286418437958|1.016476988792419|-0.2584913969039917|0.4018086194992065|-0.006028205156326294|XArbitraryZVertical|-0.6608933558442787|0.4625024812502568|-0.5815046457759252|0.1056582055127569|-0.670890748500824|0.6775522828102112|0.301377147436142|0|0|0|-1|-1|3
2021-03-02 00:20:44.677 +0000|203309.3655747917|-0.6796875|1.556930541992188|-0.0465850830078125|203309.3456127917|2.43676103582232|-1.989710448178577|-0.7749018008902174|1.218606472015381|-0.6775469183921814|1.208806037902832|-0.2125105857849121|0.379791259765625|-0.5604684352874756|XArbitraryZVertical|-0.6577632607716221|0.46115448677707|-0.5826389454272825|0.123351970558064|-0.6527083516120911|0.6996459364891052|0.2906319499015808|0|0|0|-1|-1|3
2021-03-02 00:20:44.697 +0000|203309.3855367917|-0.58233642578125|0.858978271484375|-0.15399169921875|203309.3655747917|2.460411281663668|-1.988131320021775|-0.8116027301464932|1.870684146881104|-0.8411786556243896|1.363498091697693|-0.1410204768180847|0.4400292038917542|-0.7353451251983643|XArbitraryZVertical|-0.654027408510679|0.4601612569993103|-0.5827591116433479|0.1445390441012745|-0.6292583346366882|0.7253913283348083|0.279000461101532|0|0|0|-1|-1|3
2021-03-02 00:20:44.717 +0000|203309.4054987917|-0.4454345703125|0.6729278564453125|-0.3169708251953125|203309.4054987917|2.621046042857914|-1.89505094242914|-0.9054411949383883|3.908860445022583|-0.6329479217529297|1.063720226287842|0.05109530687332153|-0.0989077091217041|-0.5253140926361084|XArbitraryZVertical|-0.6398790222652775|0.4346234978469256|-0.5986151249398082|0.2081277788115765|-0.5851680636405945|0.7866976261138916|0.1966854929924011|0|0|0|-1|-1|3
2021-03-02 00:20:44.737 +0000|203309.4254607917|-0.3927764892578125|0.4003448486328125|-0.2972869873046875||||||||||||||||||||||||3
2021-03-02 00:20:44.756 +0000|203309.4454227917|-0.303253173828125|0.61944580078125|-0.4457855224609375|203309.4254607917|2.727816543938599|-1.820273954048562|-0.9471405030109742|3.301889657974243|-0.4638294577598572|1.120755791664124|0.1258631944656372|-0.2649044394493103|-0.4218999147415161|XArbitraryZVertical|-0.6302178780223735|0.4182348338600876|-0.6084292838552516|0.240247246342383|-0.5659264922142029|0.8117488622665405|0.1441898941993713|0|0|0|-1|-1|3
2021-03-02 00:20:44.776 +0000|203309.4653847917|-0.2648162841796875|0.7928619384765625|-0.310821533203125|203309.4454227917|2.815887956035926|-1.756255714160505|-0.9821450927345181|2.482339143753052|-0.3857425153255463|1.191995978355408|0.2324553728103638|-0.3671669960021973|-0.4486376047134399|XArbitraryZVertical|-0.6208017085147514|0.4071827515244494|-0.6145154892346563|0.2667922009510798|-0.5457181930541992|0.8316903114318848|0.1023851111531258|0|0|0|-1|-1|3
2021-03-02 00:20:44.797 +0000|203309.4853467917|-0.1914215087890625|0.6402130126953125|-0.073974609375|203309.4653847917|2.899102073857562|-1.691796591824085|-1.014347764989583|2.486546039581299|-0.1377715319395065|1.298421859741211|0.2333576679229736|-0.0610959529876709|-0.4959585666656494|XArbitraryZVertical|-0.6105823938042158|0.3988305632713316|-0.6193139282911564|0.2908154548769483|-0.5243121981620789|0.8491362333297729|0.06375335901975632|0|0|0|-1|-1|3
2021-03-02 00:20:44.817 +0000|203309.5053087917|-0.2050933837890625|0.4234466552734375|0.048736572265625|203309.4853467917|2.991341354071598|-1.614728212461861|-1.043218137322272|2.443204879760742|-0.1140974164009094|1.211465954780579|0.2500877380371094|-0.1732940673828125|-0.2653962373733521|XArbitraryZVertical|-0.5987684331156479|0.3905526662174494|-0.6247889923109425|0.3139801722146741|-0.5029562711715698|0.8640288710594177|0.02211004309356213|0|0|0|-1|-1|3
2021-03-02 00:20:44.836 +0000|203309.52527125|-0.164825439453125|0.35565185546875|-0.0163726806640625|203309.5053087917|3.072370167884503|-1.545701501310944|-1.066834550215947|1.425963521003723|-0.04731630906462669|1.136145949363708|0.2981760501861572|-0.3155720233917236|0.05110311508178711|XArbitraryZVertical|-0.5882269922113039|0.384617365654773|-0.6283787081764768|0.3334644459730976|-0.4827462136745453|0.8756762742996216|-0.01211697515100241|0|0|0|-1|-1|3
2021-03-02 00:20:44.857 +0000|203309.54523325|-0.196807861328125|0.4405059814453125|-0.0721282958984375|203309.52527125|3.105365212888698|-1.518462597080273|-1.087100928572162|0.1145231276750565|-0.1365620791912079|0.9508206248283386|0.2988134622573853|-0.5418223738670349|0.06572389602661133|XArbitraryZVertical|-0.5822640450126163|0.3857526919596631|-0.6271704796590898|0.3447035877317202|-0.4644169807434082|0.8852823972702026|-0.02432688511908054|0|0|0|-1|-1|3
2021-03-02 00:20:44.876 +0000|203309.56519525|-0.195770263671875|0.4112701416015625|-0.0803375244140625|203309.54523325|3.095000821648352|-1.529844659014119|-1.104251965306467|-0.6448283195495605|-0.05663913115859032|0.751370370388031|0.2705165147781372|-0.4937137365341187|-0.03750849142670631|XArbitraryZVertical|-0.5806119923781503|0.3920232119456827|-0.6225328645373487|0.3487986057755594|-0.4494257867336273|0.893127977848053|-0.01841503195464611|0|0|0|-1|-1|3
2021-03-02 00:20:44.896 +0000|203309.58515725|-0.195068359375|0.359344482421875|-0.112548828125|203309.56519525|3.050291885230975|-1.571250993222692|-1.118152030788743|-1.341500878334045|-0.13188536465168|0.6082172989845276|0.2222875654697418|-0.4785022139549255|-0.07611143589019775|XArbitraryZVertical|-0.5818468369324229|0.4019374097413996|-0.6158050295948491|0.3473969396316269|-0.4373447597026825|0.8992937803268433|0.0001988459989661351|0|0|0|-1|-1|3
2021-03-02 00:20:44.916 +0000|203309.60511925|-0.172271728515625|0.60357666015625|-0.1102142333984375|203309.58515725|2.967884373384092|-1.648258466140775|-1.126620387435529|-2.063273191452026|-0.1452527344226837|0.3414939939975739|0.2549938261508942|-0.4845997095108032|-0.1121565103530884|XArbitraryZVertical|-0.5867545300515562|0.4151454595324438|-0.6060878250649094|0.3406329602088536|-0.4284251034259796|0.9029650688171387|0.033253263682127|0|0|0|-1|-1|3
2021-03-02 00:20:44.936 +0000|203309.62508125|-0.30499267578125|0.3768768310546875|-0.04205322265625|203309.60511925|2.878480340682628|-1.73257181901708|-1.126528539901977|-1.576340913772583|-0.2165602892637253|0.1143956854939461|0.2522489428520203|-0.4811268448829651|-0.1331468820571899|XArbitraryZVertical|-0.5932933186116615|0.4273369779378821|-0.5962430477516952|0.3314820795083158|-0.4241849184036255|0.9029256105422974|0.06922771036624908|0|0|0|-1|-1|3
2021-03-02 00:20:44.956 +0000|203309.64504325|-0.4767303466796875|0.6898956298828125|-0.043792724609375|203309.62508125|2.816748716064791|-1.792602446270589|-1.121780508768199|-1.162350177764893|-0.2181427478790283|-0.1357353329658508|0.2181072235107422|-0.4573171138763428|-0.2091871500015259|XArbitraryZVertical|-0.5989317893865146|0.4347730612490383|-0.5890407829225541|0.3244748646944935|-0.4234446287155151|0.9008747339248657|0.09549380838871002|0|0|0|-1|-1|3
2021-03-02 00:20:44.987 +0000|203309.66500425|-0.7299041748046875|0.7467498779296875|0.0619659423828125|203309.64504325|2.783596438427516|-1.827160901145922|-1.112370154205727|-0.427261084318161|-0.2129620015621185|-0.4551306366920471|0.07024061679840088|-0.3194795250892639|-0.137587770819664|XArbitraryZVertical|-0.604200402675524|0.4370903828997341|-0.5849635043249523|0.3189225291178833|-0.4280744194984436|0.8967500925064087|0.1122122555971146|0|0|0|-1|-1|3
2021-03-02 00:20:44.996 +0000|203309.68496625|-0.875823974609375|0.860076904296875|0.2434234619140625|203309.66500425|2.781213201721083|-1.832790661279489|-1.098076097422321|-0.2283794581890106|-0.1295889616012573|-0.9205821752548218|-0.1768656373023987|-0.1685618162155151|-0.1140834093093872|XArbitraryZVertical|-0.6089163387901718|0.4338031475942746|-0.5850229706690785|0.3142988617066789|-0.4397724270820618|0.8903330564498901|0.1179285570979118|0|0|0|-1|-1|3
2021-03-02 00:20:45.017 +0000|203309.70492825|-1.140701293945312|1.0498046875|0.4957427978515625|203309.70492825|2.734540226676412|-1.876925572875253|-1.034023543403254|-1.884138584136963|-0.05651076510548592|-1.706306338310242|-0.5300945043563843|0.05533987283706665|0.217365026473999|XArbitraryZVertical|-0.6277003239738409|0.4278403627651153|-0.5837665930755711|0.2866380696052571|-0.4875902831554413|0.8593634366989136|0.1541101485490799|0|0|0|-1|-1|3
2021-03-02 00:20:45.037 +0000|203309.72489025|-1.297515869140625|1.14715576171875|0.468170166015625|203309.72489025|2.683085470744586|-1.921340944375847|-0.9892041002637808|-2.009761095046997|0.01683790981769562|-1.614765167236328|-0.7140340805053711|0.3528569340705872|0.29646897315979|XArbitraryZVertical|-0.6406753691340324|0.4287911479868964|-0.579518882215678|0.2642554205145451|-0.5159461498260498|0.8355889916419983|0.1886535584926605|0|0|0|-1|-1|3
2021-03-02 00:20:45.056 +0000|203309.74485225|-1.309783935546875|1.107452392578125|0.383209228515625||||||||||||||||||||||||3
2021-03-02 00:20:45.076 +0000|203309.76481425|-1.3759765625|0.9900054931640625|0.3954620361328125|203309.74485225|2.644648628787654|-1.951893217504331|-0.9490593885523709|-1.358098745346069|0.09130106121301651|-1.364734053611755|-0.7620730400085449|0.2897167205810547|0.2436615973711014|XArbitraryZVertical|-0.6511253881515263|0.4293636820717405|-0.5762239676294992|0.2442300086675502|-0.540661096572876|0.8128679990768433|0.2166348844766617|0|0|0|-1|-1|3
2021-03-02 00:20:45.096 +0000|203309.78477625|-1.32781982421875|0.8873748779296875|0.433013916015625|203309.76481425|2.633960227460532|-1.958245348043977|-0.9202648679159945|-0.2891830205917358|0.1050925627350807|-1.046257138252258|-0.8008988499641418|0.2422170042991638|0.1355028003454208|XArbitraryZVertical|-0.657663541928913|0.4264817281382363|-0.5762802965366711|0.2312854533785756|-0.5607190132141113|0.7957620620727539|0.2288160026073456|0|0|0|-1|-1|3
2021-03-02 00:20:45.116 +0000|203309.80473825|-1.2379150390625|0.80572509765625|0.4541473388671875|203309.78477625|2.651667203429341|-1.942049040266255|-0.9058066823355841|0.6947124004364014|0.1467717885971069|-0.7080041766166687|-0.7813859581947327|0.1851685047149658|0.1839659214019775|XArbitraryZVertical|-0.660182172342639|0.4196275813612946|-0.5799934766544431|0.227331688141785|-0.5750133991241455|0.7869231700897217|0.2238556146621704|0|0|0|-1|-1|3
2021-03-02 00:20:45.136 +0000|203309.82470025|-1.13800048828125|0.6904144287109375|0.4364776611328125|203309.80473825|2.689590488299442|-1.90763503416877|-0.9025453482484085|1.349975824356079|0.2797462940216064|-0.4292516112327576|-0.7211290597915649|0.03531432151794434|0.2907282114028931|XArbitraryZVertical|-0.6587738650491588|0.4103776145659821|-0.5871212986120337|0.2299906875197837|-0.584794282913208|0.7849065661430359|0.2047855854034424|0|0|0|-1|-1|3
2021-03-02 00:20:45.156 +0000|203309.84466225|-1.063461303710938|0.5742950439453125|0.31805419921875|203309.82470025|2.738229504466918|-1.864538975837716|-0.9059658667440741|1.614959955215454|0.2358989268541336|-0.2207215875387192|-0.5514514446258545|-0.05188333988189697|0.2619900703430176|XArbitraryZVertical|-0.6551054950131751|0.4001850713911609|-0.5954362982968061|0.2369480620068735|-0.5905010104179382|0.7870213985443115|0.1786226034164429|0|0|0|-1|-1|3
2021-03-02 00:20:45.176 +0000|203309.86462425|-0.98748779296875|0.33343505859375|0.27838134765625|203309.84466225|2.795175064078994|-1.813381664879801|-0.9121295440513361|1.825397133827209|0.4126878976821899|-0.1288478523492813|-0.5240527987480164|-0.07549232244491577|0.2388844341039658|XArbitraryZVertical|-0.6496211081750702|0.3892366103833515|-0.6048503128721691|0.2462582973057827|-0.5941415429115295|0.7908089756965637|0.1470254510641098|0|0|0|-1|-1|3
2021-03-02 00:20:45.196 +0000|203309.88458625|-0.9232330322265625|0.3502197265625|0.203887939453125|203309.86462425|2.849260508656769|-1.759400072022123|-0.9168964961365362|1.500550389289856|0.7215129733085632|-0.1218215525150299|-0.417637050151825|-0.4282848834991455|0.1670817136764526|XArbitraryZVertical|-0.6425295067208763|0.3797089650297836|-0.6151386130103786|0.2541286670421187|-0.5974995493888855|0.793717622756958|0.1140461266040802|0|0|0|-1|-1|3
2021-03-02 00:20:45.216 +0000|203309.90454825|-0.7514190673828125|0.2694854736328125|0.10736083984375|203309.88458625|2.889982105381689|-1.709052287237054|-0.9186567220960556|0.9289659261703491|1.069547891616821|-0.104574128985405|-0.3586806654930115|-0.3842953443527222|0.1669867038726807|XArbitraryZVertical|-0.6342138985979743|0.3736203227391084|-0.6258290601419982|0.2579115717305192|-0.6010969877243042|0.7947871088981628|0.08363883197307587|0|0|0|-1|-1|3
2021-03-02 00:20:45.236 +0000|203309.92451025|-0.5275726318359375|-0.0657806396484375|0.0297393798828125|203309.90454825|2.908637250935244|-1.670081555896703|-0.9181463743627829|0.1242189630866051|1.369467973709106|-0.05952151864767075|-0.2424073219299316|-0.5124797821044922|0.1189875528216362|XArbitraryZVertical|-0.6255049618169937|0.3726146424121914|-0.6357579577258661|0.2563463613477749|-0.604302704334259|0.7944772839546204|0.06019625812768936|0|0|0|-1|-1|3
2021-03-02 00:20:45.256 +0000|203309.94447225|-0.237518310546875|-0.3449554443359375|-0.1415557861328125|203309.92451025|2.894921474973629|-1.650375055954545|-0.9178980398978782|-0.9534101486206055|1.685755252838135|0.1251411885023117|-0.05072712898254395|-0.6963191628456116|0.002214200794696808|XArbitraryZVertical|-0.6166727235553969|0.3792900382725052|-0.6436350752216609|0.2481686778726377|-0.6055685877799988|0.7943264245986938|0.0482923611998558|0|0|0|-1|-1|3
2021-03-02 00:20:45.276 +0000|203309.96443425|-0.1342926025390625|-0.206573486328125|-0.2236175537109375|203309.94447225|2.844705101317435|-1.653360561702552|-0.9203621198222542|-1.93433940410614|2.045488357543945|0.3041233718395233|0.2343896627426147|-0.9734485745429993|-0.08106648921966553|XArbitraryZVertical|-0.6074169494124997|0.3949859418306107|-0.6485098356694428|0.233378745170587|-0.6034690737724304|0.795820951461792|0.04993848875164986|0|0|0|-1|-1|3
2021-03-02 00:20:45.295 +0000|203309.98439625|-0.15234375|-0.2466583251953125|-0.0684814453125|203309.96443425|2.780490767628171|-1.659167378690357|-0.9219576563902048|-1.739668488502502|2.519549131393433|0.179616317152977|0.4553580284118652|-1.171465754508972|-0.2562106847763062|XArbitraryZVertical|-0.5959814096943767|0.4140905934383856|-0.6537979077179663|0.2142037915080298|-0.6019032597541809|0.7967860698699951|0.0533297210931778|0|0|0|-1|-1|3
2021-03-02 00:20:45.315 +0000|203310.00435825|-0.121673583984375|-0.30230712890625|0.003387451171875|203309.98439625|2.737231797919117|-1.639873043990899|-0.9212253214207564|-0.9704838991165161|2.833614826202393|-0.0857279971241951|0.4392634630203247|-0.9603144526481628|-0.1958765983581543|XArbitraryZVertical|-0.5806699608994645|0.4285978584134006|-0.6639694698974499|0.1956288223957943|-0.6034020781517029|0.7963433265686035|0.04174745455384254|0|0|0|-1|-1|3
2021-03-02 00:20:45.336 +0000|203310.02432025|-0.2234039306640625|0.22869873046875|-0.0533599853515625|203310.00435825|2.703993383903451|-1.608369187872781|-0.9135599506194461|-1.332237362861633|2.934371471405029|-0.6080992221832275|0.4823261499404907|-1.126232624053955|-0.06779468059539795|XArbitraryZVertical|-0.5645984867399177|0.4389795679893175|-0.676690814342404|0.1749710270292565|-0.6104997992515564|0.7916836142539978|0.02294902503490448|0|0|0|-1|-1|3
2021-03-02 00:20:45.355 +0000|203310.04428125|-0.2474212646484375|0.774200439453125|0.034820556640625|203310.02432025|2.653622963951726|-1.587888721776719|-0.8930168849604581|-1.788667917251587|3.076630830764771|-1.32389497756958|0.4480335712432861|-0.8636227250099182|-0.02557957172393799|XArbitraryZVertical|-0.551030768430977|0.4491367855297386|-0.6879710266035997|0.1460724975808155|-0.6269733309745789|0.7789670825004578|0.01071751955896616|0|0|0|-1|-1|3
2021-03-02 00:20:45.375 +0000|203310.06424325|-0.363372802734375|1.52587890625|0.29095458984375|203310.04428125|2.597093139216001|-1.570766601463677|-0.8598165644166212|-1.9383305311203|2.911316156387329|-1.978378415107727|0.4000435471534729|-0.2348194122314453|-0.0444905161857605|XArbitraryZVertical|-0.5398304187170421|0.4566983906293773|-0.6983449348056928|0.111013431331971|-0.6525763869285583|0.7577228546142578|-1.939804860739969e-05|0|0|0|-1|-1|3
2021-03-02 00:20:45.396 +0000|203310.08420525|-0.489349365234375|2.40289306640625|0.2311553955078125|203310.06424325|2.536288981073008|-1.561433377424695|-0.8143428228480464|-2.122975587844849|2.537764072418213|-2.464130401611328|0.3924625515937805|0.3268938660621643|0.1762869358062744|XArbitraryZVertical|-0.5330262201200682|0.4611615586904688|-0.7057508730314175|0.07161407474757725|-0.6863161325454712|0.7272747159004211|-0.006426130887120962|0|0|0|-1|-1|3
2021-03-02 00:20:45.415 +0000|203310.10416725|-0.6735687255859375|2.951705932617188|0.1648406982421875|203310.08420525|2.474444497427153|-1.559384330773491|-0.7699121409656783|-2.184833288192749|2.106834411621094|-1.950992584228516|0.2770681977272034|1.342700481414795|0.30360347032547|XArbitraryZVertical|-0.5282536202469675|0.4656731215039685|-0.7091992811670054|0.03366003902351269|-0.7179250121116638|0.6960721611976624|-0.008193313144147396|0|0|0|-1|-1|3
2021-03-02 00:20:45.435 +0000|203310.12412925|-0.7917327880859375|3.146224975585938|0.5953216552734375|203310.10416725|2.423347178107689|-1.556022662988324|-0.7422322026904447|-1.401235461235046|1.70505166053772|-0.8450057506561279|0.1468085646629333|1.991255879402161|0.124519407749176|XArbitraryZVertical|-0.5215680148440179|0.4717236405835966|-0.7109279916941489|0.004996051184869827|-0.7368810772895813|0.6759346127510071|-0.01088722515851259|0|0|0|-1|-1|3
2021-03-02 00:20:45.455 +0000|203310.14409125|-1.130020141601562|3.454605102539062|0.7653656005859375|203310.12412925|2.406475764240409|-1.539506222913207|-0.7377732063865079|0.2748243510723114|1.063494920730591|0.4254303574562073|0.005795598030090332|2.421672821044922|0.3971580266952515|XArbitraryZVertical|-0.5127414526095992|0.4748907797581973|-0.7152151482241075|-0.006490927039340599|-0.7396058440208435|0.6726418137550354|-0.02314990013837814|0|0|0|-1|-1|3
2021-03-02 00:20:45.486 +0000|203310.16405325|-1.153488159179688|3.045623779296875|0.6519012451171875|203310.14409125|2.436842510069625|-1.502499405263344|-0.7580765734449038|1.61231005191803|0.5904878973960876|1.702466487884521|-0.2357686161994934|2.72008204460144|0.76410973072052|XArbitraryZVertical|-0.5018107296432265|0.4726605807669746|-0.7244105469338628|0.002715548878310286|-0.7244669198989868|0.6875259876251221|-0.0495559349656105|0|0|0|-1|-1|3
2021-03-02 00:20:45.495 +0000|203310.18401525|-0.727813720703125|2.624252319335938|0.6019287109375|203310.16405325|2.48539893472153|-1.461421278882212|-0.7993050449374531|1.211518168449402|0.109029196202755|2.662960290908813|-0.5168609619140625|2.592454433441162|0.7643983364105225|XArbitraryZVertical|-0.4886367689427226|0.4724210725300223|-0.7331022271533497|0.02476876336606882|-0.6930388212203979|0.7168717384338379|-0.07610487937927246|0|0|0|-1|-1|3
2021-03-02 00:20:45.515 +0000|203310.20397725|-0.1722259521484375|2.4765625|0.8558502197265625|203310.18401525|2.517409298712055|-1.441073912454307|-0.8559520720213251|0.3943604230880737|-0.3818225562572479|3.138741731643677|-0.3364425897598267|2.039650440216064|0.7054307460784912|XArbitraryZVertical|-0.4755216296024743|0.4811255636197119|-0.7347304608946282|0.05068131933710644|-0.6499922871589661|0.7551953196525574|-0.08479474484920502|0|0|0|-1|-1|3
2021-03-02 00:20:45.535 +0000|203310.22393925|0.303070068359375|2.260116577148438|0.9406890869140625|203310.22393925|2.539598736567712|-1.45014842356006|-0.9811831707152725|-0.8713231086730957|-0.9912363886833191|3.163169145584106|0.7165636420249939|1.467382311820984|1.026776432991028|XArbitraryZVertical|-0.4541257222972894|0.5102045124714284|-0.7231292684077344|0.1026898560648071|-0.5519975423812866|0.8311558365821838|-0.06692236661911011|0|0|0|-1|-1|3
2021-03-02 00:20:45.555 +0000|203310.24390125|0.6930694580078125|1.814651489257812|0.983001708984375||||||||||||||||||||||||3
2021-03-02 00:20:45.575 +0000|203310.26386325|0.4768524169921875|2.067916870117188|1.154998779296875|203310.24390125|2.511645520272737|-1.498932054199148|-1.047264864334791|-1.02380907535553|-1.521590352058411|3.227036952972412|0.975473165512085|1.198241472244263|0.8998191356658936|XArbitraryZVertical|-0.447544530945634|0.5308063515170831|-0.7083042570699399|0.127489281604851|-0.4986511468887329|0.8660590648651123|-0.03589702025055885|0|0|0|-1|-1|3
2021-03-02 00:20:45.595 +0000|203310.28382525|-0.284576416015625|1.972640991210938|1.260391235351562|203310.26386325|2.496604588683454|-1.546943340012925|-1.111119256557281|0.07334952056407928|-1.988036513328552|3.115830659866333|1.14569616317749|0.9347825646400452|1.074180126190186|XArbitraryZVertical|-0.4433565940559054|0.5460257696464009|-0.6933254905235042|0.1568135532041506|-0.4435323774814606|0.8961958289146423|-0.01058157905936241|0|0|0|-1|-1|3
2021-03-02 00:20:45.615 +0000|203310.30378725|-0.6909637451171875|1.734420776367188|1.4822998046875|203310.28382525|2.509782974019871|-1.579301142135882|-1.174950392544868|0.2146546095609665|-2.456076622009277|3.275549411773682|0.4713445901870728|1.188825368881226|1.22378671169281|XArbitraryZVertical|-0.4405626645336485|0.554566677619669|-0.6793246233950898|0.1920375085133574|-0.3855749368667603|0.9226707220077515|0.00327932252548635|0|0|0|-1|-1|3
2021-03-02 00:20:45.635 +0000|203310.32374925|-0.9103240966796875|1.004165649414062|1.642791748046875|203310.30378725|2.528603355420144|-1.61606797953764|-1.240992731325438|0.88032466173172|-3.00658655166626|3.285646915435791|-0.1982643008232117|0.9384306669235229|1.332709789276123|XArbitraryZVertical|-0.4395494808748644|0.5604681252283622|-0.662753863109968|0.231147057784638|-0.3235251307487488|0.94610595703125|0.01465653069317341|0|0|0|-1|-1|3
2021-03-02 00:20:45.655 +0000|203310.34371125|-1.397018432617188|0.88116455078125|1.61395263671875|203310.32374925|2.634046280311793|-1.581671392351537|-1.304970988565847|2.340587377548218|-3.645010709762573|2.8541419506073|-0.4498340487480164|0.3328229188919067|1.610164880752563|XArbitraryZVertical|-0.4396062298149981|0.555134943991984|-0.6492618061000983|0.2775440373577236|-0.2626902759075165|0.9648759961128235|0.002856886712834239|0|0|0|-1|-1|3
2021-03-02 00:20:45.675 +0000|203310.36367325|-1.9052734375|0.2076873779296875|1.339599609375|203310.34371125|2.847572620506075|-1.452034009890462|-1.348230212288144|2.088838815689087|-4.077183723449707|1.662039875984192|-0.8722068667411804|-0.09841173887252808|1.720824718475342|XArbitraryZVertical|-0.44470384235471|0.537737778439689|-0.6386459148680494|0.3243576243478371|-0.2191778868436813|0.9753342270851135|-0.02615314908325672|0|0|0|-1|-1|3
2021-03-02 00:20:45.695 +0000|203310.38363525|-1.855438232421875|-0.3792266845703125|0.6369781494140625|203310.36367325|2.948254728024144|-1.434633408474452|-1.367721764850578|-0.1011274382472038|-3.897526502609253|0.6791712641716003|-1.597456693649292|-0.2527666091918945|1.388872742652893|XArbitraryZVertical|-0.4612179711803152|0.5230579197990014|-0.6214821112288009|0.3569991472430331|-0.1998149752616882|0.9794511198997498|-0.02737679146230221|0|0|0|-1|-1|3
2021-03-02 00:20:45.715 +0000|203310.40359725|-1.9573974609375|-0.72998046875|0.6648101806640625|203310.38363525|2.918406415974399|-1.530856733931023|-1.370713619449639|0.7811789512634277|-3.103674650192261|-0.5085341334342957|-1.850510478019714|-1.352715492248535|0.9396833181381226|XArbitraryZVertical|-0.4822335816164401|0.5133057729731848|-0.6036235350116288|0.3736397322438825|-0.1985922157764435|0.9800501465797424|-0.007935912348330021|0|0|0|-1|-1|3
2021-03-02 00:20:45.735 +0000|203310.42355925|-2.44854736328125|-0.9254302978515625|-0.3526611328125|203310.40359725|-3.114290534805989|-1.340710336012423|-1.348121406033182|4.779614925384521|-2.441852807998657|-1.225051164627075|-1.545325636863708|-1.723189234733582|0.9066271185874939|XArbitraryZVertical|-0.4920210492182893|0.4824238837530487|-0.6068723212738817|0.3960915980981833|-0.2150198221206665|0.975310206413269|-0.05036496743559837|0|0|0|-1|-1|3
2021-03-02 00:20:45.755 +0000|203310.44352025|-2.082351684570312|-1.6492919921875|0.155303955078125|203310.42355925|-2.726031080599911|-1.008693924359379|-1.273104247217492|5.96010160446167|-1.909666299819946|-1.608341336250305|-2.013733148574829|-1.418052196502686|0.2760316133499146|XArbitraryZVertical|-0.4875916511685456|0.4290584207600714|-0.6296262978073355|0.4263024708630922|-0.2481837272644043|0.9560160040855408|-0.1563265025615692|0|0|0|-1|-1|3
2021-03-02 00:20:45.775 +0000|203310.46348225|-1.23272705078125|-1.39215087890625|0.1784210205078125|203310.44352025|-2.566403307232843|-0.8866483943632834|-1.204304044043029|1.835588574409485|-1.001918435096741|-0.8184434771537781|-2.139810562133789|-2.083858728408813|-0.104043573141098|XArbitraryZVertical|-0.4841138142811258|0.3903783880598594|-0.6449607367753418|0.4441440976575214|-0.2777003049850464|0.9335900545120239|-0.2264770567417145|0|0|0|-1|-1|3
2021-03-02 00:20:45.794 +0000|203310.48344425|-0.86480712890625|-1.174484252929688|-0.120880126953125|203310.46348225|-2.56349896307807|-0.9029317917130448|-1.187618836616468|0.4274328947067261|-1.031294226646423|-0.5374138951301575|-1.305960416793823|-2.670248746871948|0.6081892251968384|XArbitraryZVertical|-0.4901055421777074|0.3795074371592312|-0.6452561042365159|0.4465592967024713|-0.2935420274734497|0.9274813532829285|-0.231541320681572|0|0|0|-1|-1|3
2021-03-02 00:20:45.815 +0000|203310.50340625|-0.68975830078125|-0.8627777099609375|-0.1879425048828125|203310.48344425|-2.510257862614234|-0.8760826338720309|-1.157475611926942|2.971002578735352|-1.159073233604431|-0.5263877511024475|-0.7314291000366211|-2.023076772689819|0.2641429305076599|XArbitraryZVertical|-0.4913214944964888|0.3606123427013061|-0.64862775267053|0.4558987942454486|-0.3085640370845795|0.9157921075820923|-0.2571238577365875|0|0|0|-1|-1|3
2021-03-02 00:20:45.834 +0000|203310.523368125|-0.6538848876953125|-0.9603424072265625|-0.0966033935546875|203310.50340625|-2.40398750945408|-0.8042075176346647|-1.102484238439048|3.929412126541138|-1.220911979675293|-0.5377615690231323|-0.4202707707881927|-1.987500548362732|0.0887952446937561|XArbitraryZVertical|-0.4847187893382576|0.3293786875574862|-0.6573255207585987|0.4737936977684005|-0.3251209557056427|0.8923314213752747|-0.3131147623062134|0|0|0|-1|-1|3
2021-03-02 00:20:45.854 +0000|203310.543330125|-0.817108154296875|-0.4551239013671875|-0.3651123046875|203310.523368125|-2.306630867721053|-0.7417678220831188|-1.039982785672909|3.476982831954956|-1.134288668632507|-0.4778340756893158|-0.3629931211471558|-1.705992937088013|0.2864274382591248|XArbitraryZVertical|-0.4752827227191075|0.2957853196932738|-0.6663335722183731|0.4925617039410453|-0.3420086205005646|0.8623955249786377|-0.373234748840332|0|0|0|-1|-1|3
2021-03-02 00:20:45.874 +0000|203310.563292125|-0.948699951171875|-0.1865081787109375|-0.4840545654296875|203310.543330125|-2.239083371252106|-0.7064136017617749|-0.9890120513714452|2.794299364089966|-1.04340934753418|-0.1674295961856842|-0.3243037760257721|-1.517078399658203|0.2151325941085815|XArbitraryZVertical|-0.4681852538443093|0.267947435041238|-0.6716055752866527|0.5078903135832982|-0.356695830821991|0.8354834914207458|-0.4180134832859039|0|0|0|-1|-1|3
2021-03-02 00:20:45.894 +0000|203310.583254125|-1.018081665039062|-0.008392333984375|-0.5012359619140625|203310.563292125|-2.180217021906384|-0.6779535660634293|-0.9492356308616429|2.430987596511841|-0.9753219485282898|0.1802878826856613|-0.5235720872879028|-1.140332698822021|-0.0008894801139831543|XArbitraryZVertical|-0.4615370730628106|0.2453920322486722|-0.6735257535641133|0.5226177569316971|-0.3652217388153076|0.8129706382751465|-0.4535325467586517|0|0|0|-1|-1|3
2021-03-02 00:20:45.914 +0000|203310.603216125|-1.163345336914062|0.128265380859375|-0.46697998046875|203310.583254125|-2.123640139768615|-0.6514426885224329|-0.9169112022334606|2.247629404067993|-0.9244861006736755|0.4412403106689453|-0.6203941106796265|-0.9084269404411316|0.01133966445922852|XArbitraryZVertical|-0.4548913361567941|0.226320194346672|-0.6728887856508008|0.537655799766917|-0.3688178360462189|0.7937265634536743|-0.4837060868740082|0|0|0|-1|-1|3
2021-03-02 00:20:45.934 +0000|203310.623178125|-1.365188598632812|0.205352783203125|-0.4847564697265625|203310.603216125|-2.068452585772337|-0.6257399038731251|-0.8872553677804401|2.095176458358765|-0.8311789631843567|0.5213907957077026|-0.7178910970687866|-0.6870540380477905|-0.003679990768432617|XArbitraryZVertical|-0.4476901487858406|0.2088815639881597|-0.6710531958460522|0.5528377579161269|-0.3698925673961639|0.7753413319587708|-0.5118840336799622|0|0|0|-1|-1|3
2021-03-02 00:20:45.954 +0000|203310.643140125|-1.525131225585938|0.3910675048828125|-0.518341064453125|203310.623178125|-2.02128897130159|-0.6056174443906772|-0.8622826211170473|1.702391386032104|-0.7823779582977295|0.4877415001392365|-0.8727366924285889|-0.5959082841873169|0.111409604549408|XArbitraryZVertical|-0.4414495383853917|0.1939925679052422|-0.6684189944549557|0.5663084645145366|-0.3704272508621216|0.7593298554420471|-0.5349783897399902|0|0|0|-1|-1|3
2021-03-02 00:20:45.986 +0000|203310.663102125|-1.47039794921875|0.610382080078125|-0.7165069580078125|203310.643140125|-1.985638926021059|-0.5945263766887505|-0.8425929071229313|1.205453991889954|-0.8392007946968079|0.3183694183826447|-1.087308645248413|-0.4749632477760315|0.04883158206939697|XArbitraryZVertical|-0.4374961372013627|0.1814664787038559|-0.6653695494336805|0.5770185182125137|-0.3727741837501526|0.7463712692260742|-0.5513340830802917|0|0|0|-1|-1|3
2021-03-02 00:20:45.994 +0000|203310.683064125|-1.244232177734375|0.7040863037109375|-1.080917358398438|203310.663102125|-1.967128181108507|-0.6001638724710784|-0.8314712646966044|0.2924050986766815|-1.14390754699707|0.06033440306782722|-1.148175716400146|-0.2270522117614746|-0.01883494853973389|XArbitraryZVertical|-0.4388823696461527|0.1713543024438097|-0.6613895146264658|0.5835955720093268|-0.3805411756038666|0.7389234900474548|-0.5560399293899536|0|0|0|-1|-1|3
2021-03-02 00:20:46.014 +0000|203310.703026125|-1.078292846679688|1.341354370117188|-1.384262084960938|203310.683064125|-1.976953485677856|-0.6342048770071134|-0.837778727152374|-1.289035201072693|-1.560597538948059|-0.2515459954738617|-0.9735956192016602|-0.08622211217880249|-0.3921665549278259|XArbitraryZVertical|-0.4504507865083063|0.1661130644003111|-0.6551883278391449|0.5832912285098387|-0.396475613117218|0.7431586384773254|-0.5390011072158813|0|0|0|-1|-1|3
2021-03-02 00:20:46.035 +0000|203310.722988125|-1.093704223632812|1.5196533203125|-1.552978515625|203310.703026125|-2.027653670428268|-0.7087701438715659|-0.8628218170475221|-2.560681343078613|-1.984410405158997|-0.9084033966064453|-0.6847079992294312|0.1586238145828247|-0.7502308487892151|XArbitraryZVertical|-0.4748840425584624|0.1662669023916237|-0.6464655792205402|0.5735178431683567|-0.4232783019542694|0.7596806287765503|-0.4936809241771698|0|0|0|-1|-1|3
