loggingTime(txt)|accelerometerTimestamp_sinceReboot(s)|accelerometerAccelerationX(G)|accelerometerAccelerationY(G)|accelerometerAccelerationZ(G)|motionTimestamp_sinceReboot(s)|motionYaw(rad)|motionRoll(rad)|motionPitch(rad)|motionRotationRateX(rad/s)|motionRotationRateY(rad/s)|motionRotationRateZ(rad/s)|motionUserAccelerationX(G)|motionUserAccelerationY(G)|motionUserAccelerationZ(G)|motionAttitudeReferenceFrame(txt)|motionQuaternionX(R)|motionQuaternionY(R)|motionQuaternionZ(R)|motionQuaternionW(R)|motionGravityX(G)|motionGravityY(G)|motionGravityZ(G)|motionMagneticFieldX(µT)|motionMagneticFieldY(µT)|motionMagneticFieldZ(µT)|motionHeading(°)|motionMagneticFieldCalibrationAccuracy(Z)|label
2021-03-03 00:32:41.796 +0000|217289.7643365417|-0.16534423828125|0.1192626953125|-0.989349365234375|217289.7443745417|-0.421246809224151|-0.1996526502988734|-0.154051259337477|-0.00157121941447258|0.1159203127026558|-0.02591131255030632|-0.06581489741802216|-0.005234047770500183|-0.02272838354110718|XArbitraryZVertical|-0.09564854675189716|-0.08116151501476238|-0.1999125363817291|0.9717506339463532|-0.1959801912307739|0.1534426659345627|-0.9685283303260803|0|0|0|-1|-1|3
2021-03-03 00:32:41.815 +0000|217289.7842995417|-0.1847076416015625|0.1476287841796875|-0.94793701171875|217289.7643365417|-0.4217599466072314|-0.1989113248573552|-0.1553518558734339|-0.06529508531093597|0.02794242091476917|-0.02778661996126175|0.03961336612701416|-0.02186945080757141|-0.02445828914642334|XArbitraryZVertical|-0.09622498803425691|-0.08063687372628413|-0.2001238896170791|0.9716938439863687|-0.1952225416898727|0.1547277271747589|-0.9684768915176392|0|0|0|-1|-1|3
2021-03-03 00:32:41.826 +0000|217289.8042615417|-0.1775665283203125|0.1280975341796875|-0.9421844482421875|217289.7842995417|-0.422647045923723|-0.1979070596949889|-0.1562189302630461|-0.07944121956825256|0.03042848035693169|-0.0455116480588913|0.005563691258430481|-0.02321431040763855|0.01294368505477905|XArbitraryZVertical|-0.09657986904094676|-0.08001282503576419|-0.2005543832148871|0.9716214614498848|-0.1942233890295029|0.155584305524826|-0.9685405492782593|0|0|0|-1|-1|3
2021-03-03 00:32:41.827 +0000|217289.8242235417|-0.1854248046875|0.1523284912109375|-0.9544525146484375|217289.8042615417|-0.4238802427988204|-0.1973544393221456|-0.1573403936599984|-0.08757223188877106|0.0104474201798439|-0.06635141372680664|0.01620928943157196|-0.03614756464958191|0.0279853343963623|XArbitraryZVertical|-0.09711654172449614|-0.0795635743404427|-0.201117113891586|0.9714884809158254|-0.193653792142868|0.1566920131444931|-0.9684760570526123|0|0|0|-1|-1|3
2021-03-03 00:32:41.840 +0000|217289.8441855417|-0.2148590087890625|0.1678924560546875|-0.944244384765625|217289.8242235417|-0.4261250233821365|-0.1990696401635176|-0.159786162469182|-0.08301789313554764|-0.02914520911872387|-0.0969838947057724|0.02295123040676117|-0.01259219646453857|0.01216697692871094|XArbitraryZVertical|-0.09856270366270689|-0.08002154434288387|-0.2019851605314796|0.971125073556965|-0.1952382624149323|0.1591071039438248|-0.9677639007568359|0|0|0|-1|-1|3
2021-03-03 00:32:41.860 +0000|217289.8641475417|-0.2039794921875|0.16265869140625|-0.9434051513671875|217289.8441855417|-0.4280719044468569|-0.1991679837528937|-0.1599373540612883|-0.03565432131290436|0.02663304843008518|-0.07994623482227325|-0.02105624973773956|-0.0003971010446548462|0.02004349231719971|XArbitraryZVertical|-0.09872367236204933|-0.07995679036032563|-0.2029169478368087|0.9709197989324296|-0.1953286677598953|0.1592563539743423|-0.9677211046218872|0|0|0|-1|-1|3
2021-03-03 00:32:41.880 +0000|217289.8841095417|-0.2113800048828125|0.151611328125|-0.948516845703125|217289.8641475417|-0.4296476363118666|-0.1986268897676674|-0.1595029426512634|-0.03365884721279144|0.0250848475843668|-0.07525524497032166|-0.01006114482879639|0.005814835429191589|0.02581679821014404|XArbitraryZVertical|-0.09852139067778611|-0.07966394935684316|-0.2037331963240775|0.9707935461014012|-0.1948186457157135|0.1588274836540222|-0.9678943753242493|0|0|0|-1|-1|3
2021-03-03 00:32:41.900 +0000|217289.9040725417|-0.2159271240234375|0.1523284912109375|-0.9544525146484375|217289.8841095417|-0.4313696729917525|-0.1982416971894629|-0.159573904906364|-0.05963345617055893|0.0252013336867094|-0.08528675138950348|-0.01397626101970673|-0.004890576004981995|0.02333247661590576|XArbitraryZVertical|-0.09858487036032294|-0.07938434838044485|-0.2045839623080798|0.9706310300805104|-0.1944435834884644|0.1588975340127945|-0.9679582715034485|0|0|0|-1|-1|3
2021-03-03 00:32:41.920 +0000|217289.9240345417|-0.2332611083984375|0.188720703125|-0.969085693359375|217289.9040725417|-0.4331632881099542|-0.1974512678819805|-0.1604444648045742|-0.08843649178743362|0.05473126471042633|-0.07016230374574661|-0.02027705311775208|-0.01090748608112335|0.0142250657081604|XArbitraryZVertical|-0.09899576260768292|-0.07881622847615666|-0.2054441105811819|0.9704538532803046|-0.1936512142419815|0.1597569733858109|-0.9679756760597229|0|0|0|-1|-1|3
2021-03-03 00:32:41.940 +0000|217289.9439965417|-0.200836181640625|0.17254638671875|-0.9704742431640625|217289.9240345417|-0.4349615221743358|-0.1965475705041189|-0.1621125791937186|-0.1147601753473282|0.107380785048008|-0.06101026758551598|-0.03780575096607208|0.02667638659477234|0.001975715160369873|XArbitraryZVertical|-0.09977977991820484|-0.07810381456052357|-0.2062672498309877|0.9702565168196875|-0.1927240788936615|0.1614034473896027|-0.9678875803947449|0|0|0|-1|-1|3
2021-03-03 00:32:41.960 +0000|217289.9639585417|-0.22491455078125|0.2052459716796875|-0.9601898193359375|217289.9439965417|-0.4369797354151355|-0.1950402421925454|-0.1642984515149865|-0.1210073009133339|0.08404973894357681|-0.1056955382227898|-0.02181665599346161|0.006758332252502441|-0.002203166484832764|XArbitraryZVertical|-0.1007587966556283|-0.07702851772657149|-0.2071986875954629|0.9700427772736168|-0.1911960989236832|0.1635602712631226|-0.9678285717964172|0|0|0|-1|-1|3
2021-03-03 00:32:41.980 +0000|217289.9839205417|-0.203338623046875|0.1596221923828125|-0.932342529296875|217289.9639585417|-0.4390086999959619|-0.1944808072469529|-0.165515803300454|-0.004600615240633488|0.0877293199300766|-0.04113767296075821|-0.01157824695110321|0.00677819550037384|0.007183253765106201|XArbitraryZVertical|-0.1013668513528575|-0.07651876611389115|-0.2081425282937116|0.9698176633632727|-0.1906160116195679|0.1647611111402512|-0.9677392840385437|0|0|0|-1|-1|3
2021-03-03 00:32:42.000 +0000|217290.0038825417|-0.158966064453125|0.10186767578125|-0.929931640625|217289.9839205417|-0.4404549188143758|-0.1922371370464646|-0.1651330515471601|0.03704556450247765|0.1649383455514908|-0.1307196617126465|-0.04961138963699341|0.03567442297935486|0.03278630971908569|XArbitraryZVertical|-0.1010028715523765|-0.07540054202724161|-0.2089786941527317|0.9697634564057925|-0.1884562820196152|0.1643835753202438|-0.9682263731956482|0|0|0|-1|-1|3
2021-03-03 00:32:42.020 +0000|217290.0238455417|-0.23431396484375|0.088348388671875|-0.9113311767578125|217290.0038825417|-0.4438337223531122|-0.1926510899205467|-0.1640893265780242|0.009270575828850269|-0.05253218486905098|-0.1745544970035553|0.0562298446893692|-0.07193855941295624|0.03099924325942993|XArbitraryZVertical|-0.1006696270081541|-0.07554841290573194|-0.2106539844820242|0.9694240071540047|-0.1888898015022278|0.1633539646863937|-0.9683161377906799|0|0|0|-1|-1|3
2021-03-03 00:32:42.040 +0000|217290.0438075417|-0.2024993896484375|0.13665771484375|-0.922760009765625|217290.0238455417|-0.448019249996467|-0.1943686286117604|-0.165099334214423|-0.1499397605657578|0.006335233338177204|-0.1883117705583572|-0.04800474643707275|-0.05659274756908417|0.06310379505157471|XArbitraryZVertical|-0.1014976295095093|-0.07605447124565676|-0.2125388390181935|0.9688865358936307|-0.1905206888914108|0.1643503159284592|-0.9678279161453247|0|0|0|-1|-1|3
2021-03-03 00:32:42.060 +0000|217290.0637695417|-0.2277679443359375|0.14996337890625|-0.920196533203125|217290.0438075417|-0.4529420306561605|-0.195401648998328|-0.1685620968561048|-0.2506865561008453|-0.02974942699074745|-0.2262623459100723|-0.0133642703294754|-0.03876720368862152|0.04685473442077637|XArbitraryZVertical|-0.1034656335944645|-0.07590529410386167|-0.2146741972665951|0.9682191488239922|-0.1914087235927582|0.1677650064229965|-0.9670665264129639|0|0|0|-1|-1|3
2021-03-03 00:32:42.080 +0000|217290.0837315417|-0.2137451171875|0.1224365234375|-0.8978729248046875|217290.0637695417|-0.4591552242040478|-0.1985741842253127|-0.1736548019017177|-0.2621433138847351|-0.07058655470609665|-0.2848526537418365|-0.026291623711586|-0.02971692383289337|0.05239623785018921|XArbitraryZVertical|-0.1064995185314493|-0.07652269489258337|-0.2172221091629195|0.9672727792766385|-0.1943047344684601|0.1727833300828934|-0.9656042456626892|0|0|0|-1|-1|3
2021-03-03 00:32:42.100 +0000|217290.1036935417|-0.2515869140625|0.136322021484375|-0.8780517578125|217290.0837315417|-0.4667102228566016|-0.2006329789464207|-0.1771866278625706|-0.3502906560897827|-0.1167196929454803|-0.3567910492420197|-0.0220160037279129|-0.03775691986083984|0.06613016128540039|XArbitraryZVertical|-0.1087143907906575|-0.07669485139550888|-0.2205573880008035|0.9662574604681176|-0.1961694657802582|0.1762609481811523|-0.9645981788635254|0|0|0|-1|-1|3
2021-03-03 00:32:42.120 +0000|217290.1236565417|-0.2706298828125|0.1380462646484375|-0.8714752197265625|217290.1036935417|-0.4761333655545074|-0.2058231272669745|-0.1821336985429079|-0.4553176462650299|-0.1447816342115402|-0.4265474081039429|-0.04078301787376404|-0.04715621471405029|0.07102382183074951|XArbitraryZVertical|-0.1120343691121498|-0.07808626470007804|-0.2245256967111783|0.9648518478733424|-0.200992539525032|0.1811283975839615|-0.962701678276062|0|0|0|-1|-1|3
2021-03-03 00:32:42.140 +0000|217290.1436185417|-0.2820281982421875|0.095947265625|-0.8895111083984375|217290.1236565417|-0.4872420203195789|-0.2112006336969112|-0.1883683457897663|-0.5607421398162842|-0.1100500747561455|-0.5117983222007751|-0.05187147855758667|-0.0652318000793457|0.0775952935218811|XArbitraryZVertical|-0.1160722385130587|-0.07927930608970088|-0.2291914175255217|0.9631787449539596|-0.2059258073568344|0.1872563511133194|-0.9604840278625488|0|0|0|-1|-1|3
2021-03-03 00:32:42.160 +0000|217290.163581125|-0.252044677734375|0.1833038330078125|-0.909210205078125|217290.1436185417|-0.5000595295848533|-0.2157706277020262|-0.199073295842881|-0.7680160403251648|-0.0809493362903595|-0.5076870918273926|-0.06022404134273529|-0.1258310824632645|0.06518596410751343|XArbitraryZVertical|-0.1222333418083355|-0.07936654776700727|-0.2344093141451861|0.961151541905598|-0.2098718285560608|0.1977610141038895|-0.9575199484825134|0|0|0|-1|-1|3
2021-03-03 00:32:42.180 +0000|217290.183543125|-0.2437591552734375|0.2014007568359375|-0.8882904052734375|217290.163581125|-0.5142592748018878|-0.2197717852178619|-0.212437849609308|-0.8854661583900452|-0.06214965879917145|-0.5380390882492065|-0.05348028242588043|-0.03373479843139648|0.04673540592193604|XArbitraryZVertical|-0.1296466057896845|-0.07866309741714583|-0.2401028389356709|0.9588297156807716|-0.2131060659885406|0.210843563079834|-0.9540077447891235|0|0|0|-1|-1|3
2021-03-03 00:32:42.200 +0000|217290.203505125|-0.2700958251953125|0.1927490234375|-0.8594818115234375|217290.183543125|-0.5291365174516962|-0.2258122783125091|-0.2263608152028257|-0.9733767509460449|-0.1514499634504318|-0.5301635265350342|-0.01695163547992706|-0.03529997169971466|0.04931342601776123|XArbitraryZVertical|-0.1375881188846669|-0.07870581717691366|-0.245883529460637|0.9562511652636295|-0.2181863635778427|0.2244326770305634|-0.9497498273849487|0|0|0|-1|-1|3
2021-03-03 00:32:42.220 +0000|217290.223467125|-0.2762603759765625|0.2502593994140625|-0.83697509765625|217290.203505125|-0.5451277275441548|-0.2328905847177769|-0.2438663429473412|-1.182440400123596|-0.1238141432404518|-0.5476107597351074|-0.04306653141975403|-0.03463873267173767|0.07972711324691772|XArbitraryZVertical|-0.147392029448434|-0.07854096545268838|-0.2517835461656943|0.9532639342611738|-0.2239623218774796|0.2414563596248627|-0.9442138075828552|0|0|0|-1|-1|3
2021-03-03 00:32:42.240 +0000|217290.243430125|-0.2490081787109375|0.256988525390625|-0.833709716796875|217290.223467125|-0.5624450675223145|-0.2391048802315212|-0.2655676886647093|-1.313247203826904|-0.05021203681826591|-0.5985167622566223|-0.04650914669036865|-0.03519269824028015|0.09488582611083984|XArbitraryZVertical|-0.1590942986051843|-0.07709290609515462|-0.2579536949046273|0.9498451566037214|-0.2285305708646774|0.2624571025371552|-0.9374913573265076|0|0|0|-1|-1|3
2021-03-03 00:32:42.290 +0000|217290.263392125|-0.256744384765625|0.3270263671875|-0.8295745849609375|217290.263392125|-0.6043304569497424|-0.2516524313784034|-0.3113747251643632|-1.380101323127747|0.009310411289334297|-0.7622270584106445|-0.01139751076698303|0.01313623785972595|0.08725923299789429|XArbitraryZVertical|-0.1837577912533835|-0.07258082808854444|-0.2730871232660614|0.9414820493539345|-0.2370308637619019|0.3063675463199615|-0.921930193901062|0|0|0|-1|-1|3
2021-03-03 00:32:42.292 +0000|217290.283354125|-0.26458740234375|0.3427886962890625|-0.830474853515625||||||||||||||||||||||||3
2021-03-03 00:32:42.300 +0000|217290.303316125|-0.23297119140625|0.371429443359375|-0.8122100830078125|217290.283354125|-0.6269322213950014|-0.2585165442506734|-0.3352082810242979|-1.476909875869751|0.02900598011910915|-0.7331717014312744|-0.0223914235830307|-0.006669700145721436|0.07380449771881104|XArbitraryZVertical|-0.1965575492624289|-0.0698879934972427|-0.2810453079547981|0.9367466479393671|-0.2414178401231766|0.3289658725261688|-0.9129616022109985|0|0|0|-1|-1|3
2021-03-03 00:32:42.320 +0000|217290.323278125|-0.2314605712890625|0.47125244140625|-0.7900390625|217290.303316125|-0.6509440621725017|-0.2664495353217085|-0.3608923017138766|-1.619887113571167|-0.03268897160887718|-0.788544237613678|0.008156433701515198|0.02124994993209839|0.09044861793518066|XArbitraryZVertical|-0.210323444919614|-0.06693630109392887|-0.2891895233497665|0.931479011836578|-0.246346190571785|0.3531091809272766|-0.9025671482086182|0|0|0|-1|-1|3
2021-03-03 00:32:42.340 +0000|217290.343240125|-0.282012939453125|0.42816162109375|-0.835113525390625|217290.323278125|-0.6783333809631585|-0.2770167921718683|-0.3868040119849657|-1.535336852073669|-0.0380534827709198|-0.9910391569137573|0.01512277126312256|0.05904883146286011|0.08931326866149902|XArbitraryZVertical|-0.2245919480830342|-0.06444085797714223|-0.2983472512972807|0.9254160477377743|-0.2532819807529449|0.3772304654121399|-0.8908116817474365|0|0|0|-1|-1|3
2021-03-03 00:32:42.359 +0000|217290.363203125|-0.2830047607421875|0.575286865234375|-0.88360595703125|217290.343240125|-0.7078347425524792|-0.289071572040244|-0.4089923246119957|-1.349413990974426|-0.007229310926049948|-0.9844905734062195|-0.003860324621200562|0.03473386168479919|0.05486816167831421|XArbitraryZVertical|-0.2373796872260067|-0.06264461365871836|-0.3083785779721216|0.9190371015695522|-0.2615510821342468|0.3976849615573883|-0.8794530630111694|0|0|0|-1|-1|3
2021-03-03 00:32:42.380 +0000|217290.383165125|-0.3088531494140625|0.496124267578125|-0.8667144775390625|217290.363203125|-0.7367210451277256|-0.3001967072813586|-0.426495846927574|-1.073758006095886|0.04806792736053467|-1.077093720436096|-0.0188823938369751|0.1317118108272552|0.003326654434204102|XArbitraryZVertical|-0.2478446867025935|-0.0609942634507339|-0.3184489499221647|0.9129310350445309|-0.2692188620567322|0.4136830866336823|-0.8697054386138916|0|0|0|-1|-1|3
2021-03-03 00:32:42.400 +0000|217290.403127125|-0.311431884765625|0.7117919921875|-0.8899383544921875|217290.383165125|-0.7674662303069284|-0.3140797911075201|-0.4395581242067507|-1.05558705329895|-0.06971601396799088|-1.132400035858154|3.230571746826172e-05|0.1290715932846069|-0.0007942914962768555|XArbitraryZVertical|-0.256814476549358|-0.06091603394825765|-0.3292663022227942|0.9065977050476736|-0.279573380947113|0.425539642572403|-0.8606711030006409|0|0|0|-1|-1|3
2021-03-03 00:32:42.420 +0000|217290.423089125|-0.227203369140625|0.37579345703125|-0.8382720947265625|217290.403127125|-0.7975981293975535|-0.3270411294280603|-0.4478621932217139|-0.6064878702163696|0.0677872970700264|-1.264928460121155|-0.03758865594863892|0.1894579827785492|-0.07590502500534058|XArbitraryZVertical|-0.2635446741451242|-0.0611925667252827|-0.3402522554705791|0.9005709922762296|-0.2895598411560059|0.4330395460128784|-0.8535993695259094|0|0|0|-1|-1|3
2021-03-03 00:32:42.440 +0000|217290.443051125|-0.2440032958984375|0.4375|-0.808746337890625|217290.423089125|-0.8283857906073021|-0.3386889811520523|-0.4476624143077655|-0.3395726382732391|0.04677842557430267|-1.314118981361389|0.05860552191734314|0.03502076864242554|-0.002929568290710449|XArbitraryZVertical|-0.2664266246362436|-0.06238330909169766|-0.3525522898860115|0.8948922296448399|-0.2995113134384155|0.432859480381012|-0.8502503633499146|0|0|0|-1|-1|3
2021-03-03 00:32:42.459 +0000|217290.463013125|-0.291961669921875|0.499755859375|-0.8232879638671875|217290.443051125|-0.8595193416941483|-0.3519170849385918|-0.4449471694249837|-0.3175288438796997|-0.005701508373022079|-1.406181693077087|0.0804382860660553|-0.02429753541946411|0.04964584112167358|XArbitraryZVertical|-0.2686201173173419|-0.06469997723970211|-0.3649971586102826|0.8890637356932418|-0.3111359775066376|0.4304102063179016|-0.8473142981529236|0|0|0|-1|-1|3
2021-03-03 00:32:42.479 +0000|217290.482976125|-0.28125|0.4327545166015625|-0.880462646484375|217290.463013125|-0.8913869618520291|-0.3649095431226856|-0.439830083982334|-0.2632650434970856|0.05993220210075378|-1.460691094398499|0.03533264994621277|0.09524089097976685|0.02473598718643188|XArbitraryZVertical|-0.26990296817205|-0.06729764064003271|-0.3780035680982288|0.8830270132257355|-0.3228998482227325|0.4257857203483582|-0.8452468514442444|0|0|0|-1|-1|3
2021-03-03 00:32:42.499 +0000|217290.502938125|-0.2973785400390625|0.486572265625|-0.919830322265625|217290.482976125|-0.9241838628097007|-0.3777604055602197|-0.4347132928762755|-0.3199552297592163|0.0441545695066452|-1.514268279075623|0.04690602421760559|-0.01387801766395569|-0.03064608573913574|XArbitraryZVertical|-0.2713367759760986|-0.06968160721632419|-0.3913459113309355|0.8765667690926524|-0.334534227848053|0.4211503863334656|-0.8430416584014893|0|0|0|-1|-1|3
2021-03-03 00:32:42.519 +0000|217290.522900125|-0.3257598876953125|0.3601837158203125|-0.9449920654296875|217290.502938125|-0.9585087520399145|-0.3914320327267915|-0.4288436065102086|-0.3527134656906128|0.04013841599225998|-1.572942733764648|0.05773511528968811|0.1079232692718506|-0.0796281099319458|XArbitraryZVertical|-0.2728250724697723|-0.07236360396394695|-0.4052384226267465|0.8695469646822834|-0.3469655215740204|0.4158194065093994|-0.8406599760055542|0|0|0|-1|-1|3
2021-03-03 00:32:42.539 +0000|217290.542862125|-0.3461151123046875|0.449462890625|-0.9191131591796875|217290.522900125|-0.9931974864164651|-0.4054320464266806|-0.425158935363932|-0.5202111005783081|0.004855742212384939|-1.5352543592453|0.04521527886390686|-0.08072423934936523|-0.09132903814315796|XArbitraryZVertical|-0.2754610265365|-0.07456533540284771|-0.4188307973315127|0.8620567790283968|-0.3593022227287292|0.4124655723571777|-0.8371224403381348|0|0|0|-1|-1|3
2021-03-03 00:32:42.559 +0000|217290.562824125|-0.349884033203125|0.3350067138671875|-0.8650054931640625|217290.542862125|-1.029322338182525|-0.4197094715397964|-0.4240004416432405|-0.7031119465827942|0.05786330252885818|-1.527932643890381|0.02656295895576477|0.05346432328224182|-0.09987717866897583|XArbitraryZVertical|-0.279386734080283|-0.07596986365710753|-0.4325071067773664|0.8538790379109439|-0.3714116513729095|0.4114099442958832|-0.8323432803153992|0|0|0|-1|-1|3
2021-03-03 00:32:42.579 +0000|217290.582787125|-0.3347015380859375|0.339202880859375|-0.773223876953125|217290.562824125|-1.067368727459441|-0.4337949882693484|-0.4266760015499521|-0.9955349564552307|0.09833626449108124|-1.536627769470215|0.03290283679962158|-0.07421699166297913|-0.04611903429031372|XArbitraryZVertical|-0.2850027038654713|-0.07589249640457012|-0.446300247483689|0.8448845880755367|-0.3826343417167664|0.4138471186161041|-0.8260275721549988|0|0|0|-1|-1|3
2021-03-03 00:32:42.599 +0000|217290.602749125|-0.3250732421875|0.306854248046875|-0.6412811279296875|217290.582787125|-1.109387485757236|-0.4488783013883128|-0.4361554892619137|-1.514561414718628|0.1369757056236267|-1.515713930130005|0.05638480186462402|-0.0728181004524231|0.02282905578613281|XArbitraryZVertical|-0.2937429863811042|-0.07361686922051237|-0.460379991339088|0.8344734825385608|-0.3933294415473938|0.4224579930305481|-0.816591203212738|0|0|0|-1|-1|3
2021-03-03 00:32:42.619 +0000|217290.622711125|-0.324737548828125|0.4058074951171875|-0.5505828857421875|217290.602749125|-1.156671105185227|-0.4664742639144753|-0.4561467769587226|-2.179139614105225|0.141272708773613|-1.452326893806458|0.08132356405258179|-0.1431899070739746|0.1333369612693787|XArbitraryZVertical|-0.3072747971293907|-0.0682813012776113|-0.4742978168141453|0.8221687535601943|-0.4037570357322693|0.4404921233654022|-0.8018397092819214|0|0|0|-1|-1|3
2021-03-03 00:32:42.639 +0000|217290.642673125|-0.34832763671875|0.540740966796875|-0.55865478515625|217290.622711125|-1.211215590428057|-0.4887595673756546|-0.4872819025049308|-2.846258401870728|0.1046419888734818|-1.43235981464386|0.09076979756355286|-0.09015890955924988|0.2130442261695862|XArbitraryZVertical|-0.3261096772540993|-0.05980238523065284|-0.4880466671267512|0.8073949229564821|-0.4148817658424377|0.46822589635849|-0.7801523208618164|0|0|0|-1|-1|3
2021-03-03 00:32:42.659 +0000|217290.662635125|-0.37451171875|0.612091064453125|-0.5857391357421875|217290.642673125|-1.274639498808039|-0.5171144486880508|-0.5281800401942386|-3.436729192733765|0.1849921643733978|-1.463546991348267|0.08212429285049438|0.008199036121368408|0.1963649392127991|XArbitraryZVertical|-0.3496849643335384|-0.04820708437050142|-0.5016799287810361|0.7897555518526311|-0.4270034730434418|0.5039622187614441|-0.7507929801940918|0|0|0|-1|-1|3
2021-03-03 00:32:42.679 +0000|217290.682597125|-0.3857269287109375|0.6692352294921875|-0.6188201904296875|217290.662635125|-1.348763946080218|-0.551963165781773|-0.5743899050129366|-3.825168371200562|0.214276134967804|-1.591305732727051|0.07053795456886292|0.05079352855682373|0.1015554666519165|XArbitraryZVertical|-0.3760610149956714|-0.03394324862352696|-0.5158887891762324|0.7689504658697437|-0.4402126669883728|0.5433226823806763|-0.7148519158363342|0|0|0|-1|-1|3
2021-03-03 00:32:42.699 +0000|217290.702560125|-0.362884521484375|0.593048095703125|-0.6325836181640625|217290.682597125|-1.433618814286767|-0.5955311838499177|-0.6221954433027769|-3.987575054168701|0.2153698951005936|-1.760478258132935|0.06884914636611938|0.064564049243927|0.06146031618118286|XArbitraryZVertical|-0.4041145927351262|-0.01831206684554902|-0.5302176496805078|0.7451343699743964|-0.4558272659778595|0.5828205943107605|-0.6727121472358704|0|0|0|-1|-1|3
2021-03-03 00:32:42.719 +0000|217290.722522125|-0.4594573974609375|0.5866851806640625|-0.6276397705078125|217290.702560125|-1.529852214468413|-0.6506816302829935|-0.6651349206153394|-3.893321752548218|0.03098044544458389|-1.903380036354065|0.1133875548839569|0.009665727615356445|-0.009315252304077148|XArbitraryZVertical|-0.4323836988235513|-0.003741964549263843|-0.5449226907853393|0.7183937124371452|-0.4766077995300293|0.6171653270721436|-0.6260606646537781|0|0|0|-1|-1|3
2021-03-03 00:32:42.739 +0000|217290.742484125|-0.5430450439453125|0.5169219970703125|-0.4729461669921875|217290.722522125|-1.62794369143098|-0.7124367440384263|-0.699795240788486|-3.496102333068848|0.01830044388771057|-1.803537130355835|0.05671918392181396|-0.01997661590576172|-0.0454639196395874|XArbitraryZVertical|-0.4587702066163625|0.008641045446941498|-0.5580108718033504|0.691432727643297|-0.5000481009483337|0.6440610885620117|-0.5789104700088501|0|0|0|-1|-1|3
2021-03-03 00:32:42.775 +0000|217290.762446125|-0.658233642578125|0.7014617919921875|-0.652862548828125|217290.742484125|-1.724853754743857|-0.774378663591495|-0.7306479273216112|-3.85793924331665|0.2652640044689178|-1.576728940010071|0.003718078136444092|-0.1263977289199829|0.08154702186584473|XArbitraryZVertical|-0.4830467692064424|0.02177628662960905|-0.5690392946102437|0.6651210910023204|-0.5207774639129639|0.6673523187637329|-0.5323832035064697|0|0|0|-1|-1|3
2021-03-03 00:32:42.789 +0000|217290.782408125|-0.712921142578125|0.63580322265625|-0.6391143798828125|217290.762446125|-1.831455095909613|-0.8394765349145064|-0.7634120643342343|-4.022933006286621|0.472280889749527|-1.524346709251404|-0.0731169581413269|-0.08604389429092407|-0.1921258568763733|XArbitraryZVertical|-0.5071445676918501|0.0393562317192131|-0.5795707956272096|0.6366736560143929|-0.5377382040023804|0.6913906335830688|-0.4825109541416168|0|0|0|-1|-1|3
2021-03-03 00:32:42.799 +0000|217290.802370125|-0.608795166015625|0.609588623046875|-0.4405670166015625|217290.782408125|-1.941378852783792|-0.9055394399178426|-0.7918061675789536|-3.749776601791382|0.6325295567512512|-1.338959693908691|-0.1692390441894531|-0.09132307767868042|-0.2388825714588165|XArbitraryZVertical|-0.5289370251185905|0.05825560351853636|-0.5894445549522972|0.6077722380291719|-0.5527458190917969|0.7116233706474304|-0.4336638152599335|0|0|0|-1|-1|3
2021-03-03 00:32:42.819 +0000|217290.822333125|-0.7749786376953125|0.5802001953125|-0.1732635498046875|217290.802370125|-2.052699454324764|-0.9755592150862935|-0.8164096124175574|-3.897865056991577|0.3155830800533295|-1.137504935264587|-0.03610491752624512|-0.06450706720352173|-0.09932774305343628|XArbitraryZVertical|-0.5495889238787599|0.07716733745752316|-0.5972040657909923|0.5790895348123426|-0.5670598745346069|0.7286916971206665|-0.3839944303035736|0|0|0|-1|-1|3
2021-03-03 00:32:42.839 +0000|217290.842295125|-0.875701904296875|0.9778900146484375|0.054779052734375|217290.822333125|-2.171003088998518|-1.056830510288084|-0.8463970600029298|-4.590036392211914|0.3839681148529053|-0.4342736005783081|-0.1703534722328186|-0.1361199021339417|0.09641385078430176|XArbitraryZVertical|-0.5720515666348079|0.09928442642769862|-0.5999198594853576|0.550450599905027|-0.5770678520202637|0.7488976716995239|-0.3257992267608643|0|0|0|-1|-1|3
2021-03-03 00:32:42.858 +0000|217290.862257125|-0.690826416015625|1.517974853515625|-0.0370025634765625|217290.842295125|-2.307507457066076|-1.150594990995873|-0.8950996860663971|-5.493666648864746|0.7382758855819702|0.443482905626297|-0.3102698922157288|-0.09892070293426514|0.2415343523025513|XArbitraryZVertical|-0.5955329913283686|0.1332962275216468|-0.5961908642515809|0.5216599715515295|-0.5710320472717285|0.7802714109420776|-0.2551451325416565|0|0|0|-1|-1|3
2021-03-03 00:32:42.878 +0000|217290.882219125|-0.7851104736328125|1.554641723632812|-0.2068023681640625|217290.862257125|-2.459985869324537|-1.258650284207121|-0.9439651220810603|-4.644585132598877|0.596701443195343|0.7651693224906921|-0.1156838536262512|0.6886753439903259|0.1531015634536743|XArbitraryZVertical|-0.6169481137425687|0.1711868941772005|-0.5891801935554954|0.492886240411851|-0.5582358837127686|0.8098903298377991|-0.1801401376724243|0|0|0|-1|-1|3
2021-03-03 00:32:42.898 +0000|217290.902181125|-0.6064300537109375|1.229110717773438|-0.337677001953125|217290.882219125|-2.582986013165268|-1.346005373928599|-0.9803100149259709|-3.089512586593628|0.8097051382064819|0.8402223587036133|-0.2354866862297058|0.7141603231430054|-0.02219688892364502|XArbitraryZVertical|-0.6301174333881525|0.2022370502447618|-0.5822533204518934|0.4722640545243605|-0.5427573323249817|0.8306699991226196|-0.1241043880581856|0|0|0|-1|-1|3
2021-03-03 00:32:42.918 +0000|217290.922143125|-0.47808837890625|0.9637298583984375|-0.2392120361328125|217290.902181125|-2.662043404488061|-1.396185083352982|-1.007235291545784|-1.772180557250977|0.7388812899589539|0.9967926144599915|-0.1399995684623718|0.5081116557121277|-0.2258909940719604|XArbitraryZVertical|-0.6346475668671084|0.2254338803916605|-0.578095511898703|0.4606600354199995|-0.5260770320892334|0.8453581929206848|-0.09280405938625336|0|0|0|-1|-1|3
2021-03-03 00:32:42.938 +0000|217290.942106125|-0.391357421875|0.7873382568359375|-0.139556884765625|217290.922143125|-2.71066325839562|-1.423325413977333|-1.033173542435872|-1.158090949058533|0.7070981860160828|1.159441113471985|-0.01227670907974243|0.1423227787017822|-0.1880751252174377|XArbitraryZVertical|-0.6347091086633856|0.2439701781065176|-0.5742680962746165|0.4558937956424168|-0.5065373778343201|0.8589284420013428|-0.07524579763412476|0|0|0|-1|-1|3
2021-03-03 00:32:42.958 +0000|217290.962068125|-0.3172760009765625|0.74310302734375|0.0158843994140625|217290.942106125|-2.752831183358481|-1.443678153126428|-1.060306676827049|-1.481578469276428|0.8536103963851929|1.270054578781128|0.07197317481040955|-0.01070410013198853|-0.09415394812822342|XArbitraryZVertical|-0.6326399876554275|0.2622878928103843|-0.5708231806925885|0.4529158445391274|-0.4846624433994293|0.8725053668022156|-0.0619434155523777|0|0|0|-1|-1|3
2021-03-03 00:32:42.978 +0000|217290.982030125|-0.2605743408203125|1.011306762695312|-0.0032196044921875|217290.962068125|-2.828849873758875|-1.493188707349815|-1.091093428995908|-2.448061227798462|0.9673851728439331|1.393781423568726|0.1282630562782288|-0.1830000281333923|0.02749568596482277|XArbitraryZVertical|-0.6327915862357557|0.2858045045705676|-0.5649241794082702|0.4458152898051236|-0.4601264894008636|0.8871321082115173|-0.03578118607401848|0|0|0|-1|-1|3
2021-03-03 00:32:42.998 +0000|217291.001992125|-0.21551513671875|1.03204345703125|-0.1002197265625|217290.982030125|-2.945489720401042|-1.578511836674581|-1.120074932503406|-2.823463678359985|0.9236817955970764|1.276722073554993|0.1687866747379303|0.05290025472640991|0.003261327045038342|XArbitraryZVertical|-0.6351335525149989|0.3135057399552431|-0.5569902164206183|0.4336834547245263|-0.4356018304824829|0.9001330733299255|0.003360957140102983|0|0|0|-1|-1|3
2021-03-03 00:32:43.018 +0000|217291.021954125|-0.255615234375|0.8434600830078125|-0.02203369140625|217291.001992125|-3.075655683367049|-1.680469683389988|-1.140404923494929|-2.823544979095459|0.5858970284461975|1.20934796333313|0.1784219741821289|0.1509965658187866|-0.1417820453643799|XArbitraryZVertical|-0.6384988390286213|0.3393415646299478|-0.5481596509344482|0.4203420393312969|-0.4147195518016815|0.9088025093078613|0.04566692933440208|0|0|0|-1|-1|3
2021-03-03 00:32:43.038 +0000|217291.041917125|-0.1396636962890625|1.0347900390625|0.1428985595703125|217291.021954125|3.040200677029401|-1.825024840549173|-1.151568108798753|-3.436025142669678|0.3315866589546204|1.028899908065796|0.1439414322376251|-0.04104316234588623|-0.1551388502120972|XArbitraryZVertical|-0.645767903992488|0.3662933512137662|-0.534290541774804|0.4041616354396343|-0.3939719200134277|0.9134033918380737|0.1023740097880363|0|0|0|-1|-1|3
2021-03-03 00:32:43.058 +0000|217291.061879125|-0.1262969970703125|1.16717529296875|0.1681976318359375|217291.041917125|2.859778802846816|-1.985751319931203|-1.149141778941026|-3.442912578582764|0.07694926857948303|1.207326292991638|0.2049666941165924|0.07713466882705688|-0.01402653753757477|XArbitraryZVertical|-0.6544390144366981|0.3926933112229897|-0.5179503151033187|0.3863016812160449|-0.3745376169681549|0.9124130606651306|0.1649969220161438|0|0|0|-1|-1|3
2021-03-03 00:32:43.078 +0000|217291.081841125|-0.22515869140625|1.061386108398438|0.1435699462890625|217291.061879125|2.708429379075002|-2.126017023844589|-1.142897243721275|-2.508497714996338|-0.3009805083274841|1.13737416267395|0.2351643741130829|0.1999015808105469|-0.06155744194984436|XArbitraryZVertical|-0.6613032461651841|0.4147856929025743|-0.5009947711922409|0.3736777569012791|-0.3526265621185303|0.9098395705223083|0.2187383025884628|0|0|0|-1|-1|3
2021-03-03 00:32:43.098 +0000|217291.101803125|-0.293426513671875|0.9264984130859375|0.1581573486328125|217291.081841125|2.587052157679569|-2.244205430753357|-1.134217505204585|-2.292035341262817|-0.4456660449504852|1.124465107917786|0.1242673993110657|0.2405861616134644|-0.1156055629253387|XArbitraryZVertical|-0.6671542262388938|0.4321561676194773|-0.4843999438318873|0.365380832985283|-0.3305357694625854|0.90620356798172|0.2637074291706085|0|0|0|-1|-1|3
2021-03-03 00:32:43.118 +0000|217291.121765125|-0.2176666259765625|0.738250732421875|0.2521209716796875|217291.101803125|2.47212877582275|-2.356737131054348|-1.117864707596957|-2.647822141647339|-0.3383399546146393|0.9740633368492126|0.001845657825469971|0.04301637411117554|-0.2047266066074371|XArbitraryZVertical|-0.6732726677179292|0.4488920402492155|-0.4672026378868598|0.3562605566915181|-0.3092644810676575|0.899168074131012|0.309600293636322|0|0|0|-1|-1|3
2021-03-03 00:32:43.138 +0000|217291.141727125|-0.206329345703125|0.94268798828125|0.3882904052734375|217291.121765125|2.35603401870831|-2.467367480953736|-1.085866750428516|-3.067710399627686|-0.411805659532547|0.7929049134254456|0.06696680188179016|-0.1411010026931763|-0.106733649969101|XArbitraryZVertical|-0.6810651494914907|0.4671455712614251|-0.4482538366339138|0.3420437752396699|-0.2910116612911224|0.8847078084945679|0.3641494512557983|0|0|0|-1|-1|3
2021-03-03 00:32:43.159 +0000|217291.1616909167|-0.2185211181640625|0.9241790771484375|0.5386962890625|217291.141727125|2.256482170136553|-2.564656666439753|-1.044432184158784|-3.114755630493164|-0.6628320813179016|0.7331575155258179|0.06666749715805054|0.05660992860794067|-0.06259983777999878|XArbitraryZVertical|-0.6900857709796244|0.4840649689970998|-0.4275982112620315|0.3265309906884092|-0.2740344405174255|0.8646394014358521|0.4210745394229889|0|0|0|-1|-1|3
2021-03-03 00:32:43.178 +0000|217291.1816529167|-0.231964111328125|1.061248779296875|0.555755615234375|217291.1616909167|2.182198218406886|-2.643174614790696|-1.005284635520091|-2.162270784378052|-0.7811824083328247|0.5996548533439636|0.02748683094978333|0.0555574893951416|0.02764946222305298|XArbitraryZVertical|-0.698556857070386|0.4973396729929594|-0.4071989934473013|0.3144211450585346|-0.2561550736427307|0.8443145155906677|0.4706568717956543|0|0|0|-1|-1|3
2021-03-03 00:32:43.198 +0000|217291.2016149167|-0.2938079833984375|1.201690673828125|0.5230865478515625|217291.1816529167|2.132938450296513|-2.702323907466268|-0.9796692355259327|-1.334129214286804|-0.9655136466026306|0.6459372639656067|0.02320000529289246|0.2007538676261902|0.04884868860244751|XArbitraryZVertical|-0.7044593664565225|0.505896810086964|-0.3902008660173061|0.3091096205898008|-0.2370061725378036|0.8303130865097046|0.5043891668319702|0|0|0|-1|-1|3
2021-03-03 00:32:43.218 +0000|217291.2215769167|-0.2798004150390625|1.19287109375|0.5547027587890625|217291.2016149167|2.095794002623122|-2.752004814939353|-0.965959685291506|-0.7940167784690857|-0.9247921705245972|0.7097450494766235|-0.07172036170959473|0.3768220543861389|-0.0002916455268859863|XArbitraryZVertical|-0.7078704228877847|0.5117894178212877|-0.376059400942696|0.3091445417652662|-0.2159688472747803|0.8225950002670288|0.5260179042816162|0|0|0|-1|-1|3
2021-03-03 00:32:43.238 +0000|217291.2415389167|-0.3066864013671875|1.268096923828125|0.6275634765625|217291.2215769167|2.064049217011229|-2.795227126781731|-0.9604697405004383|-0.3970997631549835|-0.8167222738265991|0.7663256525993347|-0.08918367326259613|0.3544741272926331|0.02442395687103271|XArbitraryZVertical|-0.7090164970594869|0.5165702482239534|-0.3646690789582736|0.3121975948644553|-0.1945688128471375|0.8194608688354492|0.5390984416007996|0|0|0|-1|-1|3
2021-03-03 00:32:43.258 +0000|217291.2615009167|-0.345916748046875|1.225173950195312|0.6220855712890625|217291.2415389167|2.03602393207444|-2.833669946201657|-0.961497923588048|0.05369726195931435|-0.708121120929718|0.7775091528892517|-0.1183589100837708|0.4400516152381897|0.04340094327926636|XArbitraryZVertical|-0.7084348420631168|0.5203915776257835|-0.3556581761019163|0.3175215789993532|-0.1734501719474792|0.8200497627258301|0.5453746318817139|0|0|0|-1|-1|3
2021-03-03 00:32:43.294 +0000|217291.2814639167|-0.3486175537109375|0.9232025146484375|0.5567474365234375|217291.2615009167|2.012238004745741|-2.866928526232293|-0.9732721080823789|0.6536039113998413|-0.7034966945648193|0.9171305298805237|-0.191907986998558|0.4469199776649475|0.1121927499771118|XArbitraryZVertical|-0.7054024028810492|0.5226489815175845|-0.3501291559172464|0.3265807714482377|-0.1525896787643433|0.8267310261726379|0.5415090322494507|0|0|0|-1|-1|3
2021-03-03 00:32:43.298 +0000|217291.3014259167|-0.345672607421875|0.9369049072265625|0.40997314453125|217291.2814639167|1.985191013115412|-2.903655628572865|-0.9987869634258367|1.436591267585754|-0.7331645488739014|1.177562236785889|-0.2164205759763718|0.1202905178070068|0.04872685670852661|XArbitraryZVertical|-0.6989125368323432|0.5239820296611764|-0.3471300555269153|0.3412695524645763|-0.1275888681411743|0.8408149480819702|0.5260717868804932|0|0|0|-1|-1|3
2021-03-03 00:32:43.320 +0000|217291.3213879167|-0.3286590576171875|0.698486328125|0.3049468994140625|217291.3014259167|1.948011656927423|-2.951163549829325|-1.040062497772698|1.992834806442261|-0.8220884203910828|1.575084090232849|-0.2439753711223602|0.06764841079711914|-0.08068060874938965|XArbitraryZVertical|-0.6879977883918231|0.5245639991445084|-0.3462339808977717|0.3627861225001595|-0.09580735117197037|0.8624358773231506|0.4970166981220245|0|0|0|-1|-1|3
2021-03-03 00:32:43.338 +0000|217291.3413499167|-0.2103271484375|0.9334259033203125|0.1115264892578125|217291.3213879167|1.891527762497414|-3.015732008602889|-1.088693036387103|2.644818067550659|-0.7165257930755615|1.907281517982483|-0.2854426503181458|-0.1674549579620361|-0.12823486328125|XArbitraryZVertical|-0.6733057759471641|0.5259728193324394|-0.3460399624025819|0.3876444367646998|-0.05820053443312645|0.8860217332839966|0.4599761366844177|0|0|0|-1|-1|3
2021-03-03 00:32:43.357 +0000|217291.3613119167|-0.0146331787109375|1.024185180664062|-0.062744140625|217291.3413499167|1.809771422810572|-3.102509159241445|-1.154207261358676|3.668642997741699|-0.6102479100227356|2.163354396820068|-0.2279025614261627|-0.01054376363754272|-0.2513042986392975|XArbitraryZVertical|-0.6522895247964267|0.5260092606001969|-0.34987050479724|0.4188356537617593|-0.01581086590886116|0.9144744873046875|0.4043347239494324|0|0|0|-1|-1|3
2021-03-03 00:32:43.377 +0000|217291.3812739167|0.0289306640625|1.092742919921875|-0.0569915771484375|217291.3613119167|1.681672707566341|3.048504325221159|-1.23979338348466|5.000723838806152|-0.698921263217926|2.237595558166504|-0.09109184145927429|0.04619592428207397|-0.3348913490772247|XArbitraryZVertical|-0.6239157211093149|0.5220358705153532|-0.3587606848847245|0.4577100390170785|0.0302092544734478|0.9457168579101562|0.3235845565795898|0|0|0|-1|-1|3
2021-03-03 00:32:43.397 +0000|217291.4012369167|0.0139312744140625|0.79620361328125|-0.0219573974609375|217291.3812739167|1.443185067531098|2.804362017324267|-1.337982993858223|5.760384559631348|-0.7277519702911377|2.130818843841553|-0.03237766027450562|0.1285260915756226|-0.3057794570922852|XArbitraryZVertical|-0.5889805217188403|0.5118226727076883|-0.37204956566676|0.5027113274336344|0.07633821666240692|0.9730211496353149|0.2177210003137589|0|0|0|-1|-1|3
2021-03-03 00:32:43.417 +0000|217291.4211989167|0.0924835205078125|0.596771240234375|0.0849609375|217291.4012369167|0.9360912047176558|2.295469049952404|-1.412629847174407|5.465029239654541|-0.3629920482635498|1.920836925506592|-0.1097195222973824|-0.1089319586753845|-0.1638586521148682|XArbitraryZVertical|-0.5507583776465311|0.4988691588771171|-0.3872581149052596|0.5457343013361975|0.117928721010685|0.9875177145004272|0.1044104546308517|0|0|0|-1|-1|3
2021-03-03 00:32:43.437 +0000|217291.4411609167|0.1757049560546875|0.498992919921875|0.2069244384765625|217291.4211989167|0.2913852613705961|1.654293644255945|-1.416632339398078|3.459449291229248|-0.06476370990276337|1.623608589172363|-0.090825155377388|-0.3524284362792969|0.04117906093597412|XArbitraryZVertical|-0.5168954444224485|0.4891036357935636|-0.3990966087849669|0.5782030494460216|0.1530199944972992|0.9881402254104614|0.0128065338358283|0|0|0|-1|-1|3
2021-03-03 00:32:43.457 +0000|217291.4611229167|0.2226104736328125|0.5473785400390625|0.2621612548828125|217291.4411609167|0.04014991214772566|1.405556343205684|-1.386852205049718|0.9143480658531189|-0.07207158207893372|1.157866716384888|-0.02573917806148529|-0.4749358892440796|0.2089805603027344|XArbitraryZVertical|-0.4976025665228364|0.4871841838446631|-0.4012617087220168|0.5950061871723489|0.1804174929857254|0.9831299185752869|-0.03008651360869408|0|0|0|-1|-1|3
2021-03-03 00:32:43.477 +0000|217291.4810849167|0.2605438232421875|0.6702423095703125|0.2475128173828125|217291.4611229167|0.06429008698447031|1.427933536107293|-1.369346695411032|-0.8546984791755676|-0.007615203037858009|0.6078373193740845|0.01734107732772827|-0.4612074494361877|0.2903291583061218|XArbitraryZVertical|-0.4940201518283712|0.4916298596672511|-0.39510201441723|0.5984468982503975|0.1980520188808441|0.9797775745391846|-0.02848834171891212|0|0|0|-1|-1|3
2021-03-03 00:32:43.497 +0000|217291.5010469167|0.189849853515625|0.6771240234375|0.298736572265625|217291.4810849167|0.1945166857887929|1.556499370432202|-1.365291114531746|-1.650668740272522|0.01790262199938297|0.05690465122461319|0.04923950135707855|-0.3209685087203979|0.2540770769119263|XArbitraryZVertical|-0.5000254516430096|0.4985136557462256|-0.3871275880182841|0.5929510535073407|0.2040410935878754|0.9789580106735229|-0.002917365403845906|0|0|0|-1|-1|3
2021-03-03 00:32:43.517 +0000|217291.5210099167|0.1182708740234375|0.7246856689453125|0.2169342041015625|217291.5010469167|0.3984999051472304|1.754722268001111|-1.36477847141018|-2.402683019638062|-0.07647496461868286|-0.3770454525947571|0.01914672553539276|-0.3111590147018433|0.2514512538909912|XArbitraryZVertical|-0.5132596088834152|0.5052435263781999|-0.3772226505160345|0.5822342736112789|0.2011138945817947|0.9788532853126526|0.03741289302706718|0|0|0|-1|-1|3
2021-03-03 00:32:43.537 +0000|217291.5409719167|0.0641021728515625|0.7228240966796875|0.07745361328125|217291.5210099167|0.6340773499553546|1.984786537497706|-1.359708888505214|-2.265178918838501|0.01524792890995741|-0.5053316950798035|-0.06253577768802643|-0.263722836971283|0.1895959377288818|XArbitraryZVertical|-0.5295667490651983|0.5115672888932249|-0.3676426077962955|0.5680641637512699|0.1918234825134277|0.977803647518158|0.08428406715393066|0|0|0|-1|-1|3
2021-03-03 00:32:43.557 +0000|217291.5609339167|0.0198974609375|0.82086181640625|0.1365966796875|217291.5409719167|0.8377132188119513|2.185125104432522|-1.347862068414765|-2.012256622314453|0.1320862919092178|-0.5847652554512024|-0.1090740859508514|-0.2237116098403931|-0.02558766305446625|XArbitraryZVertical|-0.5445173302414797|0.5169341838199727|-0.3598989553782008|0.5538526764578169|0.1806683242321014|0.9752529263496399|0.1274401396512985|0|0|0|-1|-1|3
2021-03-03 00:32:43.577 +0000|217291.5808959167|-0.0053863525390625|1.087738037109375|0.171600341796875|217291.5609339167|0.9921555102389903|2.339172487998175|-1.333869968538387|-1.53620171546936|0.2511927783489227|-0.5958151817321777|-0.1377186626195908|-0.2050199508666992|-0.04199601709842682|XArbitraryZVertical|-0.5567442089216725|0.5211487604714897|-0.3547595868659646|0.5409117424121977|0.1687702834606171|0.9720640182495117|0.1631202846765518|0|0|0|-1|-1|3
2021-03-03 00:32:43.597 +0000|217291.6008579167|0.0290679931640625|1.051422119140625|0.2137298583984375|217291.5808959167|1.088727219538448|2.43920842181834|-1.326901465986391|-0.5081342458724976|0.3602083027362823|-0.6113156080245972|-0.1608300507068634|0.05896842479705811|-0.009750008583068848|XArbitraryZVertical|-0.5643507064826445|0.5231359200821343|-0.3543030278932871|0.5313252053467343|0.1560082733631134|0.9704048037528992|0.1843258142471313|0|0|0|-1|-1|3
2021-03-03 00:32:43.617 +0000|217291.6208209167|0.05517578125|0.965911865234375|0.3096466064453125|217291.6008579167|1.131037843826343|2.487461306374613|-1.333292586485063|0.2905657589435577|0.3540180027484894|-0.5791990160942078|-0.1243908703327179|0.1226304173469543|0.007610082626342773|XArbitraryZVertical|-0.5665304817623058|0.5219180892633291|-0.3591127844009687|0.5269561109759364|0.1431591808795929|0.9719282984733582|0.1867105513811111|0|0|0|-1|-1|3
2021-03-03 00:32:43.637 +0000|217291.6407829167|0.058074951171875|0.9390716552734375|0.3624267578125|217291.6208209167|1.146362201287368|2.509148723977278|-1.348559928085545|0.6004247665405273|0.3085860908031464|-0.5934418439865112|-0.07940143346786499|-0.01057839393615723|0.1040029525756836|XArbitraryZVertical|-0.5657472032584923|0.5184791710959138|-0.366806100262459|0.5258924054457692|0.1302894651889801|0.9754069447517395|0.1777811050415039|0|0|0|-1|-1|3
2021-03-03 00:32:43.657 +0000|217291.6607449167|0.062225341796875|0.9408721923828125|0.399932861328125|217291.6407829167|1.162270848714504|2.530429844749214|-1.363028272860521|0.3039483726024628|0.2731404900550842|-0.533430278301239|-0.05986351519823074|-0.02636057138442993|0.1803523153066635|XArbitraryZVertical|-0.5650044499589095|0.5150129278916727|-0.3738951828740789|0.5251038676341109|0.1183656752109528|0.9784937500953674|0.1689366847276688|0|0|0|-1|-1|3
2021-03-03 00:32:43.677 +0000|217291.6807069167|0.0586090087890625|0.9698944091796875|0.3717803955078125|217291.6607449167|1.205844578675192|2.578420472704988|-1.36803995466397|-0.3995963037014008|0.2563334703445435|-0.4685457050800323|-0.04724855720996857|-0.04532647132873535|0.228822335600853|XArbitraryZVertical|-0.5668136251792494|0.5136710935505718|-0.3778722697336272|0.5216098366016003|0.1075054854154587|0.9795152544975281|0.1702713519334793|0|0|0|-1|-1|3
2021-03-03 00:32:43.697 +0000|217291.7006689167|0.0557403564453125|0.9927825927734375|0.3747711181640625|217291.6807069167|1.276412941252913|2.652313721890093|-1.360033425733854|-1.012736678123474|0.2324924767017365|-0.3811899721622467|-0.04118046909570694|-0.0114714503288269|0.1877152770757675|XArbitraryZVertical|-0.5717671120285206|0.5151820025003104|-0.3777986657705994|0.5147213236954706|0.09832461923360825|0.9778715968132019|0.1846602559089661|0|0|0|-1|-1|3
2021-03-03 00:32:43.717 +0000|217291.7206309167|0.05419921875|1.060775756835938|0.3970794677734375|217291.7006689167|1.353464360944924|2.732214685616616|-1.341754763350165|-1.302485942840576|0.2336942553520203|-0.3359837532043457|-0.03579184412956238|0.003166437149047852|0.1605976819992065|XArbitraryZVertical|-0.5788013525870835|0.5187781291003216|-0.3748476363948522|0.5053192568842537|0.09037251770496368|0.9738844633102417|0.2082834988832474|0|0|0|-1|-1|3
2021-03-03 00:32:43.737 +0000|217291.7405939167|0.0614776611328125|1.01898193359375|0.4212799072265625|217291.7206309167|1.421681584541492|2.80295905579464|-1.318207883972011|-1.287220001220703|0.204543873667717|-0.3079566061496735|-0.02865300327539444|0.09149980545043945|0.1632532775402069|XArbitraryZVertical|-0.586633044002147|0.5231833421056504|-0.37053737372198|0.4948159913326913|0.08302003145217896|0.9682688117027283|0.2357182800769806|0|0|0|-1|-1|3
2021-03-03 00:32:43.757 +0000|217291.7605559167|0.0512542724609375|1.043075561523438|0.4659423828125|217291.7405939167|1.475749358636125|2.859344969227728|-1.295169726576706|-1.050613760948181|0.1811799108982086|-0.2973127961158752|-0.0163801982998848|0.07023113965988159|0.1512771546840668|XArbitraryZVertical|-0.5939691679192534|0.5271540740105086|-0.3664513264328906|0.4847913571323261|0.07579790055751801|0.9622548818588257|0.2613815665245056|0|0|0|-1|-1|3
2021-03-03 00:32:43.777 +0000|217291.7805179167|0.048675537109375|1.075469970703125|0.4350128173828125|217291.7605559167|1.51561029210134|2.901334096033077|-1.278321254541082|-0.6351131200790405|0.164877638220787|-0.3199233114719391|-0.01208915561437607|0.06254756450653076|0.1843593418598175|XArbitraryZVertical|-0.5995969900765651|0.5296266721479609|-0.3640491347463203|0.4769144398012612|0.06860768795013428|0.9575331807136536|0.2800419330596924|0|0|0|-1|-1|3
2021-03-03 00:32:43.797 +0000|217291.8004799167|0.055694580078125|0.9672698974609375|0.4306488037109375|217291.7805179167|1.544020039155345|2.931961526385837|-1.27186797838557|-0.1966414302587509|0.1444600224494934|-0.3251221477985382|-0.01721704378724098|0.1364036202430725|0.1562869250774384|XArbitraryZVertical|-0.6026559349749402|0.529934290588345|-0.3645045089945119|0.4723472593327997|0.06128440797328949|0.95565265417099|0.288049042224884|0|0|0|-1|-1|3
2021-03-03 00:32:43.817 +0000|217291.8204419167|0.0387420654296875|0.99346923828125|0.4538421630859375|217291.8004799167|1.564060743317258|2.952903734278843|-1.271865185642236|0.04807491600513458|0.05684453248977661|-0.2923770248889923|0.003567785024642944|0.02648019790649414|0.1458017826080322|XArbitraryZVertical|-0.6041359587537369|0.5288248983460353|-0.3660982645120457|0.4704636841007042|0.05523956939578056|0.9556518197059631|0.2892720699310303|0|0|0|-1|-1|3
2021-03-03 00:32:43.837 +0000|217291.8404039167|0.011016845703125|1.082275390625|0.4676055908203125|217291.8204419167|1.58244673360691|2.971006827075046|-1.273350930977808|0.03012214601039886|0.009638618677854538|-0.2645748555660248|-0.004373423755168915|0.02654737234115601|0.1620719730854034|XArbitraryZVertical|-0.605395453186084|0.5271707739919547|-0.3677003566520102|0.4694506227127623|0.04975304752588272|0.9560883045196533|0.2888253629207611|0|0|0|-1|-1|3
2021-03-03 00:32:43.857 +0000|217291.8603669167|0.002716064453125|1.100509643554688|0.4602508544921875|217291.8404039167|1.599561864682905|2.98767466741515|-1.274561474290687|0.04030565544962883|0.03641813993453979|-0.2593042552471161|-0.02688676118850708|0.1025176644325256|0.1803711652755737|XArbitraryZVertical|-0.606601227351181|0.5256140491146367|-0.3690975613380467|0.4685422968076286|0.044754758477211|0.9564424157142639|0.2884703576564789|0|0|0|-1|-1|3
2021-03-03 00:32:43.877 +0000|217291.8803289167|-0.0019378662109375|1.017791748046875|0.40997314453125|217291.8603669167|1.616587669751462|3.004918878834896|-1.276113816649885|0.03058165498077869|0.05894198641180992|-0.2339617162942886|-0.037282794713974|0.1558375954627991|0.1691658496856689|XArbitraryZVertical|-0.6075791946015546|0.5241293206279524|-0.3708030939170285|0.4675907755689786|0.03957157954573631|0.9568943977355957|0.2877280414104462|0|0|0|-1|-1|3
2021-03-03 00:32:43.897 +0000|217291.9002909167|-0.020904541015625|1.025558471679688|0.401885986328125|217291.8803289167|1.633084155170927|3.022146072344786|-1.276808839009563|-0.01259872037917376|0.07366910576820374|-0.2713496685028076|-0.03573545068502426|0.07564961910247803|0.1319707036018372|XArbitraryZVertical|-0.6085591521018956|0.5229812175714108|-0.3723903175503507|0.4663390108781137|0.03453001379966736|0.9570960402488708|0.2877071797847748|0|0|0|-1|-1|3
2021-03-03 00:32:43.916 +0000|217291.9202529167|-0.0178070068359375|0.9817352294921875|0.3991546630859375|217291.9002909167|1.65145585236513|3.041285261236613|-1.276115860766642|-0.1015850976109505|0.09296296536922455|-0.2626462578773499|-0.04325934872031212|0.06713777780532837|0.1153221428394318|XArbitraryZVertical|-0.609928993072738|0.5219904254532868|-0.3737473514513218|0.4645704034215246|0.02908391319215298|0.9568949937820435|0.2889747619628906|0|0|0|-1|-1|3
2021-03-03 00:32:43.937 +0000|217291.9402149167|-0.0149993896484375|1.023712158203125|0.3822021484375|217291.9202529167|1.670048798920756|3.061466084405322|-1.274429402004931|-0.09180973470211029|0.1392134875059128|-0.2535528242588043|-0.0427849292755127|0.03532582521438599|0.1059996783733368|XArbitraryZVertical|-0.6113500610395777|0.5213503942695221|-0.3751273486105172|0.462303255431063|0.02337571419775486|0.9564038515090942|0.2911102473735809|0|0|0|-1|-1|3
2021-03-03 00:32:43.956 +0000|217291.9601769167|0.014556884765625|0.9345703125|0.3849029541015625|217291.9402149167|1.687350119265953|3.081137580660407|-1.274061223993355|-0.002756292466074228|0.1773689240217209|-0.2800740599632263|-0.0348781943321228|0.05670416355133057|0.08987924456596375|XArbitraryZVertical|-0.6122360467982597|0.5206722928023201|-0.3770525153776729|0.4603246136445506|0.01766626164317131|0.9562962651252747|0.2918652296066284|0|0|0|-1|-1|3
2021-03-03 00:32:43.976 +0000|217291.9801399167|-0.00433349609375|0.959075927734375|0.365478515625|217291.9601769167|1.704926625910308|3.100798494613794|-1.274770371046306|0.03810327127575874|0.113800011575222|-0.2355439066886902|0.001896681264042854|-0.003683388233184814|0.08223918080329895|XArbitraryZVertical|-0.6129367711301275|0.5196615163939009|-0.3792285154142784|0.4587442362105796|0.0118972472846508|0.9565033316612244|0.2914791405200958|0|0|0|-1|-1|3
2021-03-03 00:32:43.996 +0000|217292.0001019167|0.031768798828125|0.8885650634765625|0.355072021484375|217291.9801399167|1.721762228863527|3.119594782668307|-1.276628617578874|0.1472189575433731|0.1660143285989761|-0.2626799941062927|-0.009215801022946835|-0.005551338195800781|0.09196212887763977|XArbitraryZVertical|-0.6133203491710806|0.5184352303942062|-0.3816293145582498|0.4576267757306252|0.006377636920660734|0.9570437669754028|0.289873868227005|0|0|0|-1|-1|3
2021-03-03 00:32:44.016 +0000|217292.0200639167|0.0449066162109375|0.9022979736328125|0.35552978515625|217292.0001019167|1.737463355365964|3.137751868094574|-1.280335974474391|0.2063929438591003|0.1372962296009064|-0.2071624100208282|0.02293261885643005|-0.04917657375335693|0.06681916117668152|XArbitraryZVertical|-0.6130715810820684|0.5170482660220608|-0.3845764801587591|0.4570615798096159|0.001099973102100194|0.9581121206283569|0.2863913476467133|0|0|0|-1|-1|3
2021-03-03 00:32:44.036 +0000|217292.0400259167|0.065216064453125|0.9229583740234375|0.3511962890625|217292.0200639167|1.75212144656703|-3.128862591498035|-1.284012727535937|0.2438333034515381|0.1168714910745621|-0.1934612542390823|0.04605075716972351|-0.07198208570480347|0.07422506809234619|XArbitraryZVertical|-0.6128142494415554|0.5156371058744504|-0.3872518550969041|0.4567418293130633|-0.003600839758291841|0.9591586589813232|0.2828458547592163|0|0|0|-1|-1|3
2021-03-03 00:32:44.057 +0000|217292.0599879167|0.0791473388671875|0.9298095703125|0.3824920654296875|217292.0400259167|1.765201353115374|-3.114141099007239|-1.287991319187068|0.3313285112380981|0.09943636506795883|-0.185113936662674|0.06466624140739441|-0.03338134288787842|0.07228156924247742|XArbitraryZVertical|-0.6123931883504015|0.5142442851419692|-0.389779997189753|0.4567263462550389|-0.00765940360724926|0.9602764844894409|0.2789452075958252|0|0|0|-1|-1|3
2021-03-03 00:32:44.076 +0000|217292.0799499167|0.0951995849609375|0.9804229736328125|0.4005126953125|217292.0599879167|1.779332737100639|-3.098594214677245|-1.292829834232649|0.3803440630435944|0.109448567032814|-0.2163820117712021|0.08753976225852966|-0.04331094026565552|0.1040265560150146|XArbitraryZVertical|-0.6118318944565643|0.5125771822866263|-0.3925125450670097|0.4570123578692183|-0.01179517433047295|0.9616154432296753|0.2741472721099854|0|0|0|-1|-1|3
2021-03-03 00:32:44.096 +0000|217292.0999129167|0.1078033447265625|0.972076416015625|0.3711700439453125|217292.0799499167|1.795709681625427|-3.080651872367458|-1.298486116899497|0.4413056373596191|0.1253075897693634|-0.2735462188720703|0.1072921454906464|0.007093191146850586|0.1303765475749969|XArbitraryZVertical|-0.6111193926439585|0.5106485164061866|-0.3956320692585165|0.4574345600590676|-0.016380300745368|0.9631521105766296|0.2684576511383057|0|0|0|-1|-1|3
2021-03-03 00:32:44.116 +0000|217292.1198749167|0.09271240234375|0.995025634765625|0.3582305908203125|217292.0999129167|1.816086982097452|-3.059332325788048|-1.305464486441821|0.6046199798583984|0.07827956974506378|-0.3689876198768616|0.1296248435974121|0.01064157485961914|0.1209043562412262|XArbitraryZVertical|-0.6103525155112295|0.5080763870785678|-0.3991360355381387|0.4582780702027094|-0.02154683507978916|0.9650055170059204|0.2613436281681061|0|0|0|-1|-1|3
2021-03-03 00:32:44.136 +0000|217292.1398369167|0.073394775390625|1.035385131835938|0.330322265625|217292.1198749167|1.843770602851479|-3.031863588283412|-1.315859207486914|0.7875603437423706|0.04911833256483078|-0.4300476014614105|0.1260509788990021|0.02287572622299194|0.1140166521072388|XArbitraryZVertical|-0.6092178684765412|0.5041704195438986|-0.4035439592187412|0.4602370758561497|-0.02761654183268547|0.9676791429519653|0.2506684362888336|0|0|0|-1|-1|3
2021-03-03 00:32:44.156 +0000|217292.1597985417|0.06475830078125|1.043411254882812|0.335235595703125|217292.1398369167|1.879196333277982|-2.997541351286376|-1.329668978079262|0.9772778153419495|0.006120902951806784|-0.4632099866867065|0.110681027173996|0.05181884765625|0.09523379802703857|XArbitraryZVertical|-0.6075307662299505|0.4990677151776718|-0.4088374324037424|0.4633462934479702|-0.03428028523921967|0.9710693955421448|0.2363244295120239|0|0|0|-1|-1|3
2021-03-03 00:32:44.176 +0000|217292.1797605417|0.0623016357421875|1.013015747070312|0.32574462890625|217292.1597985417|1.91974070181625|-2.959334838596392|-1.345376772670426|1.007012486457825|-0.06636757403612137|-0.4428061842918396|0.1065981388092041|0.07482969760894775|0.1188702583312988|XArbitraryZVertical|-0.6054873181721769|0.4932463993132919|-0.4142412456125293|0.4674370489713899|-0.04051236063241959|0.974700391292572|0.21981380879879|0|0|0|-1|-1|3
2021-03-03 00:32:44.196 +0000|217292.1997235417|0.0487213134765625|0.9860687255859375|0.3299407958984375|217292.1797605417|1.965923525644649|-2.917227058114621|-1.3617597225238|1.153199791908264|-0.1870591044425964|-0.4532797634601593|0.1067170202732086|0.03472346067428589|0.1284178495407104|XArbitraryZVertical|-0.6034480358999346|0.4868353718151369|-0.4192730764992197|0.4722837163356683|-0.0461701899766922|0.9782313108444214|0.2023164182901382|0|0|0|-1|-1|3
2021-03-03 00:32:44.216 +0000|217292.2196855417|0.0092010498046875|0.9757080078125|0.321044921875|217292.1997235417|2.036585729715463|-2.85388776011551|-1.382384192350875|1.185996413230896|-0.4023673236370087|-0.3635738492012024|0.1081394553184509|0.01754456758499146|0.1515446901321411|XArbitraryZVertical|-0.6011143618564391|0.477977318615102|-0.4251145554600865|0.4790375055497387|-0.05314680561423302|0.9823029041290283|0.1796015799045563|0|0|0|-1|-1|3
2021-03-03 00:32:44.236 +0000|217292.2396475417|-0.0308074951171875|0.96087646484375|0.2251434326171875|217292.2196855417|2.107730746043153|-2.793603995914485|-1.401594454323368|0.9854580163955688|-0.5558633208274841|-0.2369497865438461|0.07779479026794434|-0.01077437400817871|0.1777266263961792|XArbitraryZVertical|-0.5992589890223149|0.4690840837410937|-0.4289012587885384|0.4867160816695946|-0.05742433667182922|0.9857195019721985|0.1583024263381958|0|0|0|-1|-1|3
2021-03-03 00:32:44.256 +0000|217292.2596095417|-0.0514678955078125|0.950897216796875|0.140838623046875|217292.2396475417|2.150715962587678|-2.76322033560529|-1.413987097659118|0.5475720167160034|-0.6096076965332031|-0.08776136487722397|0.03283280879259109|-0.02360409498214722|0.1008660644292831|XArbitraryZVertical|-0.5988887635770672|0.4624853148456786|-0.429090462232297|0.4932756847405754|-0.05768939107656479|0.9877306222915649|0.1451208293437958|0|0|0|-1|-1|3
2021-03-03 00:32:44.276 +0000|217292.2795715417|-0.059234619140625|0.9653167724609375|0.087615966796875|217292.2596095417|2.144987785343303|-2.781647514365027|-1.416863706174725|0.04805121198296547|-0.6086650490760803|0.0348685048520565|0.008365899324417114|-0.03939944505691528|0.01912784576416016|XArbitraryZVertical|-0.6006012714953201|0.459378168120366|-0.4253446918197255|0.4973246375872994|-0.0540049634873867|0.9881757497787476|0.1435003727674484|0|0|0|-1|-1|3
2021-03-03 00:32:44.296 +0000|217292.2995335417|-0.0495758056640625|0.9849853515625|0.076690673828125|217292.2795715417|2.111133029394427|-2.827057876708497|-1.412433469023778|-0.2446595132350922|-0.5414402484893799|0.1011611521244049|-0.01015579327940941|-0.02744954824447632|-0.04882992804050446|XArbitraryZVertical|-0.6038001553536585|0.4587024928898932|-0.4195095663979943|0.4990282079954752|-0.04878891631960869|0.9874867796897888|0.1499652117490768|0|0|0|-1|-1|3
2021-03-03 00:32:44.316 +0000|217292.3194965417|-0.0455474853515625|0.995819091796875|0.0817108154296875|217292.2995335417|2.078757073545993|-2.869319666816957|-1.40556761565953|-0.3896972835063934|-0.4659940898418427|0.1062146797776222|-0.01002845168113708|-0.005347371101379395|-0.08131694793701172|XArbitraryZVertical|-0.6072751723850092|0.4587228711335405|-0.4137846949441134|0.4995723390400325|-0.044231828302145|0.9863807559013367|0.1584196090698242|0|0|0|-1|-1|3
2021-03-03 00:32:44.336 +0000|217292.3394585417|-0.046051025390625|0.975372314453125|0.09814453125|217292.3194965417|2.056330458482501|-2.899804603838398|-1.398193437149161|-0.4137212932109833|-0.3611690104007721|0.06373095512390137|-0.002425696700811386|0.006985366344451904|-0.09334100782871246|XArbitraryZVertical|-0.6106121034938947|0.4588337383730873|-0.4089356535134815|0.4993956989533321|-0.0411229282617569|0.9851410388946533|0.1667510867118835|0|0|0|-1|-1|3
2021-03-03 00:32:44.356 +0000|217292.3594205417|-0.0406951904296875|0.9460601806640625|0.090576171875|217292.3394585417|2.040249430234952|-2.921264070551035|-1.389457377139331|-0.486452043056488|-0.1927442103624344|-0.007109218277037144|-0.004820376634597778|0.000253140926361084|-0.07596588134765625|XArbitraryZVertical|-0.6138662668671956|0.4595234994223122|-0.4049229286277524|0.4980399885510306|-0.0394148975610733|0.9836031198501587|0.1759872734546661|0|0|0|-1|-1|3
2021-03-03 00:32:44.376 +0000|217292.3793825417|-0.0498809814453125|0.923431396484375|0.046417236328125|217292.3594205417|2.034459203737678|-2.929103543184324|-1.379604545468103|-0.598563551902771|-0.04553430154919624|-0.05992627143859863|-0.001824501901865005|-0.02334320545196533|-0.09617172181606293|XArbitraryZVertical|-0.6169926857744342|0.4606496486798879|-0.4022602749520462|0.4952865444739508|-0.04007614776492119|0.9817784428596497|0.1857561469078064|0|0|0|-1|-1|3
2021-03-03 00:32:44.396 +0000|217292.3993445417|-0.0570526123046875|0.9169921875|0.00653076171875|217292.3793825417|2.031595502374373|-2.931680844128153|-1.367854107600746|-0.7881433963775635|0.05392890423536301|-0.0949561595916748|-0.00493791326880455|-0.05204862356185913|-0.129546657204628|XArbitraryZVertical|-0.6202508923319654|0.4624421558477041|-0.4001253631418422|0.4912593793684418|-0.04199813306331635|0.9794778227806091|0.1971278339624405|0|0|0|-1|-1|3
2021-03-03 00:32:44.416 +0000|217292.4193065417|-0.0632476806640625|0.9245758056640625|-0.0118865966796875|217292.3993445417|2.026364358986942|-2.93443011925438|-1.352704141985981|-1.000522971153259|0.160154789686203|-0.1068455800414085|-0.01149642094969749|-0.06017428636550903|-0.1971693187952042|XArbitraryZVertical|-0.6239332826216759|0.4653793546817506|-0.3978758068613722|0.485617340227033|-0.0445033460855484|0.9763120412826538|0.2117413729429245|0|0|0|-1|-1|3
2021-03-03 00:32:44.436 +0000|217292.4392695417|-0.0857696533203125|1.001129150390625|-0.0253753662109375|217292.4193065417|2.017420749234446|-2.939318781682025|-1.333443723786902|-1.172554135322571|0.206081748008728|-0.09320265054702759|-0.01468323916196823|-0.05410206317901611|-0.2426957339048386|XArbitraryZVertical|-0.6282715859890515|0.4695133933670785|-0.3950365405072794|0.4783074577552004|-0.04723695293068886|0.9719638824462891|0.2303360253572464|0|0|0|-1|-1|3
2021-03-03 00:32:44.456 +0000|217292.4592315417|-0.1260223388671875|1.10662841796875|-0.0069427490234375|217292.4392695417|2.007746779528113|-2.944282915396843|-1.313064056670437|-1.132700204849243|0.2270513623952866|-0.09968238323926926|-0.02788400650024414|0.009546279907226562|-0.2723431587219238|XArbitraryZVertical|-0.6326583744845078|0.4740411998745778|-0.3920141526327832|0.4704820069182027|-0.04996636137366295|0.9669705033302307|0.2499433606863022|0|0|0|-1|-1|3
2021-03-03 00:32:44.476 +0000|217292.4791935417|-0.1819915771484375|1.173004150390625|0.0423583984375|217292.4592315417|2.002840936885192|-2.944204410292281|-1.295832078880215|-0.9300616979598999|0.2374709844589233|-0.1163644194602966|-0.06092023104429245|0.1173380017280579|-0.282689243555069|XArbitraryZVertical|-0.6362250031434116|0.4778471274927137|-0.3899522252490741|0.4634836740769688|-0.05324602872133255|0.9624348878860474|0.266240268945694|0|0|0|-1|-1|3
2021-03-03 00:32:44.496 +0000|217292.4991555417|-0.2185821533203125|1.135818481445312|0.088165283203125|217292.4791935417|2.002390511738824|-2.939488877400035|-1.284510607074706|-0.6947451233863831|0.2627080380916595|-0.09380239248275757|-0.1110704615712166|0.2031458616256714|-0.2480795085430145|XArbitraryZVertical|-0.6382936841693182|0.4805238665952001|-0.3894176550568857|0.4582924989973126|-0.05668469145894051|0.9592993855476379|0.2766440212726593|0|0|0|-1|-1|3
2021-03-03 00:32:44.515 +0000|217292.5191175417|-0.1940155029296875|1.107162475585938|0.0874176025390625|217292.4991555417|2.003492467177905|-2.931752682398122|-1.278040624943039|-0.5287908315658569|0.3736838400363922|-0.05884343385696411|-0.1556902527809143|0.1983554363250732|-0.2058460414409637|XArbitraryZVertical|-0.6388145204141734|0.4827494510396582|-0.3904129832302211|0.454364227657835|-0.06011480093002319|0.9574522376060486|0.2822620570659637|0|0|0|-1|-1|3
2021-03-03 00:32:44.536 +0000|217292.5390795417|-0.1507720947265625|1.105865478515625|0.04638671875|217292.5191175417|2.00102042405092|-2.925849893152332|-1.271688216938358|-0.4079696238040924|0.4195032715797424|0.000481501454487443|-0.1393883228302002|0.1476261019706726|-0.1932328939437866|XArbitraryZVertical|-0.6387908622061848|0.4856592845981333|-0.3916574808886343|0.4502064218186735|-0.06308057904243469|0.9555996656417847|0.287837415933609|0|0|0|-1|-1|3
2021-03-03 00:32:44.555 +0000|217292.5590425417|-0.1101531982421875|1.106658935546875|0.029052734375|217292.5390795417|2.002265083475926|-2.915768293024274|-1.272339899282034|-0.1187765598297119|0.4021106362342834|0.04048626497387886|-0.09570509940385818|0.1515084505081177|-0.232746809720993|XArbitraryZVertical|-0.6369341397743828|0.4874472569773338|-0.3947159004056001|0.4482293428573583|-0.0658397376537323|0.9557915329933167|0.2865798473358154|0|0|0|-1|-1|3
2021-03-03 00:32:44.575 +0000|217292.5790045417|-0.06414794921875|1.072341918945312|0.02362060546875|217292.5590425417|2.000182999436512|-2.910117672672447|-1.273245340393898|0.209305927157402|0.3621158599853516|0.03673963993787766|-0.05246113985776901|0.1511660814285278|-0.2477624714374542|XArbitraryZVertical|-0.6350596318479403|0.4892640722492991|-0.3971479856222987|0.4467587346085997|-0.06725931167602539|0.9560573697090149|0.2853601276874542|0|0|0|-1|-1|3
2021-03-03 00:32:44.595 +0000|217292.5989665417|-0.0250091552734375|0.992523193359375|0.03521728515625|217292.5790045417|2.004607987393963|-2.899140626913504|-1.280630097981994|0.5256584882736206|0.3077544271945953|0.01722639240324497|-0.008656136691570282|0.1326697468757629|-0.2568693459033966|XArbitraryZVertical|-0.6319228419542374|0.4894335485375522|-0.4010043525977644|0.4475754986824745|-0.06869068741798401|0.9581963419914246|0.2777433395385742|0|0|0|-1|-1|3
2021-03-03 00:32:44.615 +0000|217292.6189285417|-0.0053558349609375|0.9469146728515625|0.0439605712890625|217292.5989665417|2.014505272593489|-2.884208630819188|-1.293063650283545|0.7123193144798279|0.2342910617589951|0.01981338672339916|0.03701604157686234|0.04619395732879639|-0.2392502129077911|XArbitraryZVertical|-0.6278743070812549|0.488206971223092|-0.4057396393749717|0.4503367217656592|-0.06979193538427353|0.9616795778274536|0.2651443779468536|0|0|0|-1|-1|3
2021-03-03 00:32:44.635 +0000|217292.6388905417|0.0055694580078125|0.9275665283203125|0.063232421875|217292.6189285417|2.026808571069836|-2.868391379848343|-1.307340931788443|0.7547433376312256|0.1680313050746918|0.0411861427128315|0.06069784611463547|-0.007030129432678223|-0.2095162570476532|XArbitraryZVertical|-0.6236172359212568|0.4862941409403865|-0.4104170061945809|0.4540678899589875|-0.07026512920856476|0.9654958844184875|0.2507608830928802|0|0|0|-1|-1|3
2021-03-03 00:32:44.655 +0000|217292.6588525417|0.0241241455078125|0.941131591796875|0.06591796875|217292.6388905417|2.037835156498358|-2.854924500620734|-1.322135562556913|0.7534912824630737|0.1137138903141022|0.09874078631401062|0.07369318604469299|-0.04286646842956543|-0.1728918552398682|XArbitraryZVertical|-0.6192799376816642|0.4842767941360104|-0.414603888945241|0.4583361788852093|-0.06958858668804169|0.9692428708076477|0.2360633164644241|0|0|0|-1|-1|3
2021-03-03 00:32:44.675 +0000|217292.6788155417|0.018524169921875|0.922607421875|0.091461181640625|217292.6588525417|2.053903710684004|-2.836987386460783|-1.341649065476335|0.8195712566375732|0.07521501928567886|0.1322992742061615|0.08588659763336182|-0.03448355197906494|-0.1528940200805664|XArbitraryZVertical|-0.6137398177991237|0.4813200020466952|-0.4196215418988693|0.4642976933287133|-0.06812536716461182|0.9738604426383972|0.2166910171508789|0|0|0|-1|-1|3
2021-03-03 00:32:44.695 +0000|217292.6987775417|0.019256591796875|0.990692138671875|0.1701202392578125|217292.6788155417|2.070335287978092|-2.819576891775084|-1.361599217498665|0.798743724822998|0.05082797259092331|0.1030344143509865|0.08392875641584396|-0.04548907279968262|-0.1244759261608124|XArbitraryZVertical|-0.6080973988834829|0.4782447746933474|-0.4242145985669823|0.4706821150777816|-0.06572506576776505|0.9781979918479919|0.1970010250806808|0|0|0|-1|-1|3
2021-03-03 00:32:44.715 +0000|217292.7187395417|0.0324554443359375|0.9114227294921875|0.161529541015625|217292.6987775417|2.080595195069386|-2.808767980190089|-1.379931089699356|0.7037392854690552|0.02738049067556858|0.1660068035125732|0.08140483498573303|-0.02282553911209106|-0.02313949167728424|XArbitraryZVertical|-0.6027243105568476|0.4757860621215906|-0.4277995409738181|0.4768003644557802|-0.06198043003678322|0.9818404316902161|0.1792979389429092|0|0|0|-1|-1|3
2021-03-03 00:32:44.735 +0000|217292.7387015417|0.0164642333984375|0.898956298828125|0.1674041748046875|217292.7187395417|2.08436468508375|-2.80520896191545|-1.395466314676521|0.5873979330062866|-0.04415819048881531|0.168665274977684|0.08893322199583054|-0.02737820148468018|-0.0006716102361679077|XArbitraryZVertical|-0.5981264037837206|0.4738921190209597|-0.4302249617399901|0.4822631021549266|-0.05757645145058632|0.984669029712677|0.1646578758955002|0|0|0|-1|-1|3
2021-03-03 00:32:44.755 +0000|217292.7586635417|-0.00103759765625|0.965576171875|0.1409912109375|217292.7387015417|2.079915020632672|-2.811153884302402|-1.407709076563152|0.368235856294632|-0.08993713557720184|0.1668875217437744|0.07529419660568237|-0.1089231371879578|0.02035365998744965|XArbitraryZVertical|-0.5946026775201512|0.4724809940126411|-0.4312965346305065|0.4870242898376618|-0.05268070846796036|0.986730694770813|0.1535812616348267|0|0|0|-1|-1|3
2021-03-03 00:32:44.775 +0000|217292.7786255417|-0.00146484375|0.947967529296875|0.1318206787109375|217292.7586635417|2.06570720365249|-2.827296468675895|-1.416728194562781|0.2848601341247559|-0.1058045104146004|0.1859928667545319|0.04899776726961136|-0.02782785892486572|0.003609642386436462|XArbitraryZVertical|-0.5919638249516029|0.471751693585768|-0.4313023906435925|0.4909250131868956|-0.04744141176342964|0.9881549477577209|0.1459416598081589|0|0|0|-1|-1|3
2021-03-03 00:32:44.795 +0000|217292.7985885417|-0.0062408447265625|0.9569854736328125|0.15911865234375|217292.7786255417|2.042545123181412|-2.852832634567633|-1.423360424994584|0.249407947063446|-0.1470889896154404|0.2077259421348572|0.04000157117843628|-0.03833001852035522|-0.006421446800231934|XArbitraryZVertical|-0.5899789538130169|0.4715244148604643|-0.43047006135824|0.4942521337536453|-0.04183265566825867|0.9891510009765625|0.1408208757638931|0|0|0|-1|-1|3
2021-03-03 00:32:44.815 +0000|217292.8185505417|-0.0214996337890625|0.927703857421875|0.14678955078125|217292.7985885417|2.011659172658696|-2.887146920157234|-1.428073021679727|0.1328011751174927|-0.2084125429391861|0.2184427678585052|0.03146958351135254|-0.03011548519134521|0.01891016960144043|XArbitraryZVertical|-0.5886446260176386|0.4715163168477128|-0.4287724478137213|0.4973169461645668|-0.03580308333039284|0.9898322820663452|0.1376602649688721|0|0|0|-1|-1|3
2021-03-03 00:32:44.835 +0000|217292.8385125417|-0.0356597900390625|0.9594573974609375|0.1263427734375|217292.8185505417|1.972452802910814|-2.930892014169996|-1.429716619997186|-0.01436667703092098|-0.2684052586555481|0.232230931520462|0.01213547587394714|-0.06002622842788696|0.01242983341217041|XArbitraryZVertical|-0.5882567558994538|0.4719168327033522|-0.4259575065580041|0.4998087253505565|-0.02940846048295498|0.9900647401809692|0.1375030130147934|0|0|0|-1|-1|3
2021-03-03 00:32:44.855 +0000|217292.8584745417|-0.0495452880859375|1.0028076171875|0.099700927734375|217292.8385125417|1.931536092811414|-2.977481176267001|-1.428849185447237|-0.1179072186350822|-0.3286622762680054|0.2547999620437622|-0.008808314800262451|-0.04646086692810059|-0.008330225944519043|XArbitraryZVertical|-0.5887287186783159|0.4724235830856729|-0.4223338790724775|0.50184526549938|-0.02311309054493904|0.9899424314498901|0.1395710855722427|0|0|0|-1|-1|3
2021-03-03 00:32:44.875 +0000|217292.8784365417|-0.079925537109375|1.027847290039062|0.08038330078125|217292.8584745417|1.888659383246424|-3.02709495416729|-1.427056977018346|-0.1327848732471466|-0.3857346475124359|0.2956438362598419|-0.02815976552665234|0.006757378578186035|-0.03337456285953522|XArbitraryZVertical|-0.5895256658239338|0.4728773950766043|-0.4181437525264253|0.5039863838687699|-0.01636541076004505|0.9896872639656067|0.1423070877790451|0|0|0|-1|-1|3
2021-03-03 00:32:44.895 +0000|217292.8983985417|-0.094940185546875|1.05755615234375|0.081756591796875|217292.8784365417|1.844185739079834|-3.079005771243894|-1.424999037734958|-0.1199190989136696|-0.3933177292346954|0.2995901703834534|-0.06395703554153442|0.03052240610122681|-0.06128776073455811|XArbitraryZVertical|-0.5903613616806246|0.4732570124229434|-0.4136257506657864|0.5063744461587103|-0.009086807258427143|0.9893903732299805|0.1449974775314331|0|0|0|-1|-1|3
2021-03-03 00:32:44.915 +0000|217292.9183615417|-0.1043548583984375|1.048812866210938|0.0838165283203125|217292.8983985417|1.803136298868589|-3.12741724532651|-1.423340396466935|-0.03400134667754173|-0.3897609114646912|0.3107995986938477|-0.09142327308654785|0.06398308277130127|-0.06756234169006348|XArbitraryZVertical|-0.5910424926637186|0.4734160916002714|-0.4093698064162117|0.5088835055539052|-0.002082620980218053|0.9891480803489685|0.1469080448150635|0|0|0|-1|-1|3
2021-03-03 00:32:44.935 +0000|217292.9383235417|-0.109344482421875|1.024673461914062|0.0747833251953125|217292.9183615417|1.765218218836498|3.110645173609865|-1.423484952495603|0.04119081050157547|-0.3830621540546417|0.3103174865245819|-0.1052192449569702|0.06715095043182373|-0.06580734252929688|XArbitraryZVertical|-0.5912284379527992|0.4730789244126594|-0.4057435208560914|0.5118764856074968|0.004541738424450159|0.9891692996025085|0.1467094719409943|0|0|0|-1|-1|3
2021-03-03 00:32:44.955 +0000|217292.9582855417|-0.0937042236328125|1.004608154296875|0.055999755859375|217292.9383235417|1.730111580005268|3.068856749668061|-1.425174803317621|0.08794736117124557|-0.3343568444252014|0.2942125499248505|-0.1183486580848694|0.04064404964447021|-0.06177805364131927|XArbitraryZVertical|-0.5909650886778816|0.4723586811554997|-0.4028280344412476|0.5151381044537583|0.01054530125111341|0.9894158840179443|0.1447249203920364|0|0|0|-1|-1|3
2021-03-03 00:32:44.975 +0000|217292.9782475417|-0.0842132568359375|0.9886322021484375|0.0412750244140625|217292.9582855417|1.700252833356826|3.033057678235938|-1.428229969785053|0.1254697740077972|-0.3197441697120667|0.2751180231571198|-0.1127419769763947|0.01879715919494629|-0.08085405826568604|XArbitraryZVertical|-0.5903921902594883|0.4712337272104934|-0.4007596097156866|0.5184280374796626|0.01539086550474167|0.989854633808136|0.1412483304738998|0|0|0|-1|-1|3
2021-03-03 00:32:44.995 +0000|217292.9982095417|-0.0526275634765625|0.9365997314453125|0.03948974609375|217292.9782475417|1.6746387085431|3.001750363766457|-1.432152352942425|0.1735175400972366|-0.2957889437675476|0.2397220581769943|-0.1073220074176788|0.004484176635742188|-0.09229682385921478|XArbitraryZVertical|-0.5897301203484918|0.4697282231937182|-0.3992255982641934|0.5217210608499466|0.0192634928971529|0.9904043078422546|0.1368524432182312|0|0|0|-1|-1|3
2021-03-03 00:32:45.015 +0000|217293.0181715417|-0.0113677978515625|0.9366607666015625|0.070556640625|217292.9982095417|1.654610158310644|2.976776539873549|-1.436889709116312|0.2159602642059326|-0.2433984875679016|0.1793394088745117|-0.08530470728874207|-0.04358404874801636|-0.09547236561775208|XArbitraryZVertical|-0.5889581105092856|0.4679494401349018|-0.3983925442257784|0.5248189561010339|0.02190443314611912|0.9910479187965393|0.1316966712474823|0|0|0|-1|-1|3
2021-03-03 00:32:45.034 +0000|217293.0381345417|-0.00360107421875|0.96759033203125|0.1035003662109375|217293.0181715417|1.645935504751705|2.963775893096543|-1.442000202225531|0.2177914530038834|-0.2275343537330627|0.09246806055307388|-0.04224982857704163|-0.05867290496826172|-0.06191565096378326|XArbitraryZVertical|-0.5884009676965286|0.4658235654731856|-0.3982526764807742|0.5274347843852119|0.02271858230233192|0.9917172193527222|0.1264145821332932|0|0|0|-1|-1|3
2021-03-03 00:32:45.054 +0000|217293.0580965417|-0.024505615234375|0.9859619140625|0.123046875|217293.0381345417|1.653732246805163|2.967559619909903|-1.447578529887982|0.171506330370903|-0.19790019094944|-0.02000246942043304|-0.0249746460467577|-0.03053474426269531|-0.02412617951631546|XArbitraryZVertical|-0.5882332266833551|0.4631486602527247|-0.3988389581123077|0.5295304656408498|0.02128199674189091|0.9924182891845703|0.1210500225424767|0|0|0|-1|-1|3
2021-03-03 00:32:45.074 +0000|217293.0780585417|-0.05548095703125|1.0072021484375|0.1520233154296875|217293.0580965417|1.682185213976099|2.992646777557035|-1.452234582211083|0.07615837454795837|-0.1331902742385864|-0.1570156216621399|-0.03432226181030273|-0.01412850618362427|-0.003082528710365295|XArbitraryZVertical|-0.5887468656720712|0.4602870991578297|-0.3999390781028416|0.5306237925878117|0.01755281537771225|0.9929797649383545|0.1169741675257683|0|0|0|-1|-1|3
2021-03-03 00:32:45.094 +0000|217293.0980205417|-0.070831298828125|0.9750823974609375|0.1728363037109375|217293.0780585417|1.732674628912209|3.041295972416149|-1.454921916225335|-0.05142940580844879|-0.03349883854389191|-0.2685139179229736|-0.06067919731140137|0.0100933313369751|0.02835272252559662|XArbitraryZVertical|-0.5899549426200956|0.4576791752125915|-0.4015845396190918|0.5302949953408885|0.01157638430595398|0.9932940602302551|0.1150341257452965|0|0|0|-1|-1|3
2021-03-03 00:32:45.114 +0000|217293.1179825417|-0.0642852783203125|0.8980560302734375|0.1663055419921875|217293.0980205417|1.790824026197006|3.099501545732096|-1.454020741312753|-0.1988228857517242|0.06617672741413116|-0.3028588593006134|-0.07454374432563782|-0.001124083995819092|0.05295000970363617|XArbitraryZVertical|-0.5917525431048338|0.45610591522015|-0.4031668730078348|0.5284437659085174|0.004902610089629889|0.9931894540786743|0.1164073571562767|0|0|0|-1|-1|3
2021-03-03 00:32:45.134 +0000|217293.1379445417|-0.0482025146484375|0.8570098876953125|0.14208984375|217293.1179825417|1.841413865398617|-3.131417128694837|-1.448924277785541|-0.3778955042362213|0.1265262961387634|-0.2723576426506042|-0.06652727723121643|-0.08001548051834106|0.04751695692539215|XArbitraryZVertical|-0.5940631695681492|0.4559295856474979|-0.4041517576337034|0.5252415352092455|-0.001237037242390215|0.9925827980041504|0.1215656697750092|0|0|0|-1|-1|3
2021-03-03 00:32:45.154 +0000|217293.157907875|-0.0352783203125|0.84002685546875|0.12994384765625|217293.1379445417|1.877349687608537|-3.092987625774961|-1.440724876293852|-0.449581652879715|0.1368168145418167|-0.1810595393180847|-0.04550173878669739|-0.12813401222229|0.02236402034759521|XArbitraryZVertical|-0.5966955427244948|0.4568705157606945|-0.4043826778853314|0.5212470506304699|-0.006301864981651306|0.9915526509284973|0.1295524835586548|0|0|0|-1|-1|3
2021-03-03 00:32:45.174 +0000|217293.177869875|-0.0289764404296875|0.89410400390625|0.151611328125|217293.157907875|1.899015391712779|-3.068910420433563|-1.431803130986563|-0.4134025573730469|0.1202296316623688|-0.1044725254178047|-0.02735352516174316|-0.1534571647644043|-0.01196038722991943|XArbitraryZVertical|-0.599222366093308|0.4582827972211924|-0.4040586305725429|0.5173452987369828|-0.01006103586405516|0.9903559684753418|0.138181135058403|0|0|0|-1|-1|3
2021-03-03 00:32:45.194 +0000|217293.197831875|-0.0228729248046875|0.957611083984375|0.20697021484375|217293.177869875|1.914104815755377|-3.05148022831471|-1.424128092996168|-0.2698718011379242|0.1215839087963104|-0.07656232267618179|-0.01568758487701416|-0.1140497922897339|-0.00320136547088623|XArbitraryZVertical|-0.6012802549164473|0.4596056759497243|-0.4038048200421828|0.5139712325008616|-0.01315153855830431|0.9892634749412537|0.1455506384372711|0|0|0|-1|-1|3
2021-03-03 00:32:45.214 +0000|217293.217793875|-0.023651123046875|0.9546661376953125|0.251922607421875|217293.197831875|1.92289796892532|-3.040101002170982|-1.420791070597711|-0.04673255607485771|0.1501294672489166|-0.09509162604808807|-0.007517965510487556|-0.03965818881988525|0.04329515993595123|XArbitraryZVertical|-0.6019294891033813|0.4604549608345596|-0.4042900881230883|0.5120662388374709|-0.01514137256890535|0.9887703061103821|0.1486757546663284|0|0|0|-1|-1|3
2021-03-03 00:32:45.234 +0000|217293.237755875|-0.044189453125|0.975433349609375|0.2982177734375|217293.217793875|1.944265515415175|-3.015580024320239|-1.419923337155009|0.02804562821984291|0.1769500076770782|-0.1460655033588409|-0.002304673194885254|-0.0298694372177124|0.09136879444122314|XArbitraryZVertical|-0.6021243129241471|0.4604359099848965|-0.4060355877702453|0.5104705949895105|-0.01888981275260448|0.9886402487754822|0.1491098254919052|0|0|0|-1|-1|3
2021-03-03 00:32:45.254 +0000|217293.257717875|-0.0651397705078125|1.004425048828125|0.30615234375|217293.237755875|1.966558178552471|-2.989572295074749|-1.419118521895119|-0.09028444439172745|0.2206095010042191|-0.1901541352272034|-0.01583015732467175|-0.02358371019363403|0.1421651691198349|XArbitraryZVertical|-0.602192497594462|0.4604793321084116|-0.4080305422854302|0.5087573305696858|-0.02288139052689075|0.9885189533233643|0.1493540406227112|0|0|0|-1|-1|3
2021-03-03 00:32:45.274 +0000|217293.277680875|-0.0603179931640625|1.023361206054688|0.297454833984375|217293.257717875|1.987317071304999|-2.964244957857106|-1.414839191222016|-0.2777696847915649|0.2602887153625488|-0.1807511299848557|-0.03357177227735519|0.01096159219741821|0.153233140707016|XArbitraryZVertical|-0.6030315842886725|0.4612995161533404|-0.4096018648636362|0.5057488258384338|-0.02740234509110451|0.987863302230835|0.1528886705636978|0|0|0|-1|-1|3
2021-03-03 00:32:45.294 +0000|217293.297642875|-0.039276123046875|0.990753173828125|0.2896728515625|217293.277680875|1.998778515061601|-2.947371402301608|-1.40647378768481|-0.4459800720214844|0.3002638518810272|-0.1588966101408005|-0.03162962570786476|0.03524506092071533|0.1375100761651993|XArbitraryZVertical|-0.6046497213927354|0.4633070347925123|-0.4102993179869068|0.5013979675073462|-0.03157232701778412|0.9865294098854065|0.160509392619133|0|0|0|-1|-1|3
2021-03-03 00:32:45.314 +0000|217293.317604875|-0.0115814208984375|0.9788055419921875|0.2850494384765625|217293.297642875|2.001976354335241|-2.937963806134809|-1.395037853099599|-0.5219939351081848|0.326467752456665|-0.1482355296611786|-0.01287310943007469|0.01517689228057861|0.1183239072561264|XArbitraryZVertical|-0.6067834244831471|0.466299212835414|-0.4103091023109483|0.4960094096887506|-0.03535993024706841|0.9845942258834839|0.1712421625852585|0|0|0|-1|-1|3
2021-03-03 00:32:45.334 +0000|217293.337566875|0.0071258544921875|0.966888427734375|0.2882537841796875|217293.317604875|2.003639056094117|-2.930098273778864|-1.381867248453114|-0.5400112867355347|0.3049463331699371|-0.158992663025856|0.02207550778985023|-0.0006690621376037598|0.1017318814992905|XArbitraryZVertical|-0.6093716007392538|0.469550445972022|-0.4099444383581481|0.4900349282837562|-0.03942475840449333|0.9822059273719788|0.183622732758522|0|0|0|-1|-1|3
2021-03-03 00:32:45.354 +0000|217293.357528875|0.0127410888671875|0.9469451904296875|0.28326416015625|217293.337566875|2.006714795577276|-2.921431699089833|-1.368461585625786|-0.5472928285598755|0.2650587260723114|-0.165137991309166|0.04609883204102516|-0.007950901985168457|0.09324608743190765|XArbitraryZVertical|-0.6121856224765148|0.4725271728442118|-0.4094570991990154|0.4840368941125211|-0.04388632625341415|0.9796000719070435|0.1961063295602798|0|0|0|-1|-1|3
2021-03-03 00:32:45.374 +0000|217293.377490875|-0.007476806640625|0.96484375|0.266143798828125|217293.357528875|2.010051373435089|-2.913401835193753|-1.354984475833689|-0.5800134539604187|0.2074855417013168|-0.1732902079820633|0.06196131557226181|-0.02795016765594482|0.07883980870246887|XArbitraryZVertical|-0.6152044776288893|0.4752036068229015|-0.4087258803487363|0.4781717804851293|-0.04844207316637039|0.9768028855323792|0.208590030670166|0|0|0|-1|-1|3
2021-03-03 00:32:45.394 +0000|217293.397453875|-0.036956787109375|1.000579833984375|0.268707275390625|217293.377490875|2.012927391965808|-2.907072073393064|-1.342009517341389|-0.5164554119110107|0.1529280841350555|-0.192159503698349|0.05287006497383118|-0.01787221431732178|0.04810380935668945|XArbitraryZVertical|-0.6183085082203483|0.4774816214480907|-0.4076934112459695|0.4727494678582412|-0.05270224437117577|0.9739422798156738|0.2205882221460342|0|0|0|-1|-1|3
2021-03-03 00:32:45.414 +0000|217293.417415875|-0.034576416015625|0.99859619140625|0.290008544921875|217293.397453875|2.017302764287251|-2.900334558710171|-1.331665288733752|-0.3594708144664764|0.1317983418703079|-0.2246775776147842|0.02576844021677971|0.02291679382324219|0.0318882018327713|XArbitraryZVertical|-0.6209308779141278|0.4790031555920066|-0.4069208341019747|0.4684188338057905|-0.0565912239253521|0.9715441465377808|0.2299983501434326|0|0|0|-1|-1|3
2021-03-03 00:32:45.434 +0000|217293.437377875|-0.040008544921875|1.017135620117188|0.296478271484375|217293.417415875|2.025958476486284|-2.88980430019697|-1.324141029245706|-0.2294654846191406|0.1138385236263275|-0.2656976282596588|0.02593264728784561|0.0264812707901001|0.04783889651298523|XArbitraryZVertical|-0.6230059685509317|0.4796821308680467|-0.4068553229019433|0.4650132309581272|-0.06082951277494431|0.9697344899177551|0.2364627718925476|0|0|0|-1|-1|3
2021-03-03 00:32:45.454 +0000|217293.457339875|-0.0435943603515625|1.00115966796875|0.2981414794921875|217293.437377875|2.035519241663996|-2.879122739268716|-1.317981416485289|-0.210190013051033|0.07260069996118546|-0.2573667168617249|0.02736406773328781|0.04774868488311768|0.05697348713874817|XArbitraryZVertical|-0.6248832961358585|0.4798992282154145|-0.4069055843072173|0.4622181580328287|-0.06490073353052139|0.9682121872901917|0.2415648102760315|0|0|0|-1|-1|3
2021-03-03 00:32:45.474 +0000|217293.477301875|-0.0417938232421875|0.98846435546875|0.27423095703125|217293.477301875|2.04629999579167|-2.867441547199441|-1.30646379810014|-0.2934345901012421|0.01966158486902714|-0.1318380981683731|0.02791624516248703|0.02605080604553223|0.03151121735572815|XArbitraryZVertical|-0.6283841959348916|0.4805077697064818|-0.4061221680671675|0.4575046540901191|-0.07073242217302322|0.9652671217918396|0.2515088319778442|0|0|0|-1|-1|3
2021-03-03 00:32:45.494 +0000|217293.497263875|-0.0351715087890625|0.9931793212890625|0.2575836181640625||||||||||||||||||||||||3
2021-03-03 00:32:45.514 +0000|217293.517226875|-0.0432586669921875|1.02099609375|0.251129150390625|217293.497263875|2.046917142786094|-2.866952410702048|-1.300041369205134|-0.2916240692138672|-0.01220596022903919|-0.1097669750452042|0.03568504005670547|0.0302203893661499|0.004085153341293335|XArbitraryZVertical|-0.6302623385875392|0.4811309852377415|-0.4050459925479133|0.455214329615644|-0.07253503054380417|0.9635692238807678|0.2574352920055389|0|0|0|-1|-1|3
2021-03-03 00:32:45.534 +0000|217293.537188875|-0.0343475341796875|1.059539794921875|0.2590179443359375|217293.517226875|2.046238895258782|-2.868076312713825|-1.29461116581551|-0.1761512458324432|-0.006617689039558172|-0.1004103124141693|0.03248988837003708|0.03963696956634521|-0.01575562357902527|XArbitraryZVertical|-0.6318676525235161|0.4816834422769177|-0.403921099569947|0.4534007092853627|-0.07365812361240387|0.9621027112007141|0.262551337480545|0|0|0|-1|-1|3
2021-03-03 00:32:45.554 +0000|217293.557150875|-0.0322418212890625|1.018798828125|0.3004302978515625|217293.537188875|2.048981068908779|-2.865563306629673|-1.292479104327846|0.03511166200041771|0.01199109479784966|-0.1003546491265297|0.03764490783214569|0.09712028503417969|-0.01004987955093384|XArbitraryZVertical|-0.6326246774996553|0.481616922085501|-0.4037311513859708|0.4525839995213158|-0.07487635314464569|0.9615191221237183|0.2643376886844635|0|0|0|-1|-1|3
2021-03-03 00:32:45.573 +0000|217293.577112875|-0.0295257568359375|1.012298583984375|0.3108673095703125|217293.557150875|2.055037538616957|-2.859605414146883|-1.29319688419023|0.08840081840753555|0.02560815587639809|-0.1057938113808632|0.04563349485397339|0.06831324100494385|0.02701330184936523|XArbitraryZVertical|-0.6326748057794087|0.4809726456205093|-0.4043665367379594|0.4526318931645187|-0.07625792175531387|0.9617160558700562|0.263224184513092|0|0|0|-1|-1|3
2021-03-03 00:32:45.593 +0000|217293.597074875|-0.0234527587890625|1.020599365234375|0.2882232666015625|217293.577112875|2.061234654621822|-2.853070356563248|-1.294155266487695|0.02678165771067142|0.05094131454825401|-0.100212000310421|0.04649455845355988|0.04897743463516235|0.04755097627639771|XArbitraryZVertical|-0.6325686120375666|0.480390473381753|-0.4051910300000546|0.4526611379887047|-0.07771405577659607|0.9619782567024231|0.2618361115455627|0|0|0|-1|-1|3
2021-03-03 00:32:45.613 +0000|217293.617036875|-0.0308074951171875|1.013137817382812|0.272369384765625|217293.597074875|2.065064700612692|-2.848541835797411|-1.294029455863452|-0.03130076825618744|0.04880636930465698|-0.08381731063127518|0.05465739965438843|0.0592353343963623|0.03335440158843994|XArbitraryZVertical|-0.6326063106076962|0.480216895387885|-0.4057361754256065|0.4523043515444163|-0.07893414795398712|0.9619439244270325|0.2615980207920074|0|0|0|-1|-1|3
2021-03-03 00:32:45.633 +0000|217293.636999875|-0.025665283203125|0.984954833984375|0.2508392333984375|217293.617036875|2.066400611668382|-2.846593575276385|-1.293557702918153|-0.04911217465996742|0.04067680239677429|-0.05595185980200768|0.05015656352043152|0.05373382568359375|0.01757180690765381|XArbitraryZVertical|-0.6326666250225264|0.4802830501080747|-0.4059729100442948|0.4519371320548849|-0.07957553118467331|0.9618148803710938|0.2618777453899384|0|0|0|-1|-1|3
2021-03-03 00:32:45.653 +0000|217293.656961875|-0.0207977294921875|0.9709625244140625|0.240234375|217293.636999875|2.065347158894823|-2.847257588306025|-1.293145486093423|-0.007336946204304695|0.01384103484451771|-0.0215570442378521|0.05174551159143448|0.03195029497146606|-0.00765565037727356|XArbitraryZVertical|-0.6326662113302406|0.4805083371620766|-0.4059331038786055|0.4517338666238522|-0.07951653748750687|0.9617019891738892|0.2623095810413361|0|0|0|-1|-1|3
2021-03-03 00:32:45.673 +0000|217293.676923875|-0.0223541259765625|0.968994140625|0.2366790771484375|217293.656961875|2.062922619659436|-2.849961426338813|-1.29334329412738|0.06774134188890457|-0.02258722856640816|-0.005589085165411234|0.05781728774309158|0.008916378021240234|-0.01771274209022522|XArbitraryZVertical|-0.6325757323821836|0.480644133078872|-0.4056582510493164|0.4519630165068243|-0.07875238358974457|0.96175616979599|0.2623416781425476|0|0|0|-1|-1|3
2021-03-03 00:32:45.693 +0000|217293.696885875|-0.0382232666015625|0.968841552734375|0.2442626953125|217293.676923875|2.06059713300212|-2.853333456808397|-1.29525883479919|0.135580763220787|-0.06059463694691658|0.01224867813289165|0.05604202300310135|0.01039230823516846|-0.02444937825202942|XArbitraryZVertical|-0.6321538575012209|0.4804172808446165|-0.4054352465782608|0.452993286423562|-0.07734330743551254|0.9622790813446045|0.2608385384082794|0|0|0|-1|-1|3
2021-03-03 00:32:45.713 +0000|217293.716847875|-0.06402587890625|0.997955322265625|0.257965087890625|217293.696885875|2.059129701780161|-2.85645794786082|-1.298119974459651|0.1396598219871521|-0.072879858314991|0.005871118046343327|0.0431298166513443|0.002324104309082031|-0.01708751916885376|XArbitraryZVertical|-0.6316179599328758|0.4798714168955531|-0.40525626482836|0.4544770879226353|-0.07575314491987228|0.9630535840988159|0.2584356367588043|0|0|0|-1|-1|3
2021-03-03 00:32:45.733 +0000|217293.736809875|-0.0946197509765625|1.001373291015625|0.248687744140625|217293.716847875|2.058339466695572|-2.858783303508117|-1.300842035664366|0.0979468822479248|-0.05280638486146927|-0.004690091125667095|0.0167422816157341|0.0276416540145874|0.0002535879611968994|XArbitraryZVertical|-0.6311221265152666|0.4793035579207244|-0.405155251514894|0.4558534363276501|-0.07442054152488708|0.9637830853462219|0.2560940682888031|0|0|0|-1|-1|3
2021-03-03 00:32:45.753 +0000|217293.756772875|-0.1072235107421875|0.9689178466796875|0.261138916015625|217293.736809875|2.057388407772914|-2.860326736168858|-1.302211657100441|0.01544791087508202|0.02005232498049736|-0.03516100347042084|-0.0140489935874939|0.04511469602584839|0.002399802207946777|XArbitraryZVertical|-0.630815464999932|0.4791050982362193|-0.405113421887804|0.4565230756125615|-0.07365855574607849|0.9641474485397339|0.2549397051334381|0|0|0|-1|-1|3
2021-03-03 00:32:45.773 +0000|217293.776734875|-0.1207275390625|0.958984375|0.28082275390625|217293.756772875|2.056556467089117|-2.860322069608892|-1.303027077875234|-0.01220127660781145|0.07820069044828415|-0.01134018134325743|-0.03213416785001755|0.009116649627685547|-0.004412561655044556|XArbitraryZVertical|-0.6303820974780237|0.4792809716812394|-0.4054407974117327|0.4566463680910231|-0.07344140857458115|0.9643635153770447|0.2541836798191071|0|0|0|-1|-1|3
2021-03-03 00:32:45.793 +0000|217293.796696875|-0.143524169921875|0.9720306396484375|0.30889892578125|217293.776734875|2.052323589186601|-2.863021822574213|-1.303767164961669|0.01557807251811028|0.07743876427412033|0.04966484755277634|-0.04380463063716888|-0.01086920499801636|0.01780396699905396|XArbitraryZVertical|-0.6297031458364093|0.479918590767644|-0.4056808745353524|0.4567004902700361|-0.0725589320063591|0.9645590782165527|0.2536958158016205|0|0|0|-1|-1|3
2021-03-03 00:32:45.813 +0000|217293.816658875|-0.146240234375|0.9962615966796875|0.312774658203125|217293.796696875|2.045509192481881|-2.868208833292943|-1.305023965483343|0.05434621125459671|0.07679997384548187|0.1158145740628242|-0.06772691011428833|0.006087899208068848|0.04763650894165039|XArbitraryZVertical|-0.6287603493140407|0.480739741326133|-0.405817635791406|0.4570140233648616|-0.07091446965932846|0.9648899435997009|0.2529005408287048|0|0|0|-1|-1|3
2021-03-03 00:32:45.833 +0000|217293.836620875|-0.131591796875|1.019515991210938|0.2986602783203125|217293.816658875|2.036871681807907|-2.874853628652203|-1.307554965847645|0.126448854804039|0.08778087794780731|0.1791599988937378|-0.07986442744731903|0.02256160974502563|0.06197935342788696|XArbitraryZVertical|-0.6273106420268089|0.481649047430284|-0.4061387550684649|0.4577627770070483|-0.06858831644058228|0.9655516147613525|0.2510088980197906|0|0|0|-1|-1|3
2021-03-03 00:32:45.853 +0000|217293.856582875|-0.11968994140625|1.00299072265625|0.28466796875|217293.836620875|2.028346742343039|-2.881265251595665|-1.311874039435121|0.2136511653661728|0.07300129532814026|0.2093999087810516|-0.068388931453228|0.04929423332214355|0.05555127561092377|XArbitraryZVertical|-0.6253322935901352|0.4823541572314702|-0.4068321277526596|0.4591096169823974|-0.0659036710858345|0.9666664600372314|0.2474120259284973|0|0|0|-1|-1|3
2021-03-03 00:32:45.873 +0000|217293.876545875|-0.0922698974609375|0.97601318359375|0.2689208984375|217293.856582875|2.020300973594958|-2.88742868364997|-1.317147234301021|0.2969925999641418|0.07372391223907471|0.2160823196172714|-0.062179796397686|0.04223537445068359|0.0452403724193573|XArbitraryZVertical|-0.6231493328977029|0.4828280892783641|-0.4076807382035941|0.4608235287971451|-0.06309486925601959|0.9680031538009644|0.2428761124610901|0|0|0|-1|-1|3
2021-03-03 00:32:45.893 +0000|217293.896507875|-0.07568359375|0.9358673095703125|0.257568359375|217293.876545875|2.014210575808494|-2.89179373979586|-1.322997650497225|0.3169580698013306|0.0450051873922348|0.2108928859233856|-0.03967798501253128|0.01356244087219238|0.03466501832008362|XArbitraryZVertical|-0.6209094668195574|0.4830121684147858|-0.4087606967947406|0.462693789950396|-0.06063330918550491|0.9694547057151794|0.2376586347818375|0|0|0|-1|-1|3
2021-03-03 00:32:45.913 +0000|217293.916469875|-0.065948486328125|0.92230224609375|0.2506103515625|217293.896507875|2.009992912238444|-2.895142442532816|-1.328290462232426|0.3043977916240692|-0.003225194755941629|0.1815445870161057|-0.02015084773302078|-0.02594536542892456|0.02708294987678528|XArbitraryZVertical|-0.6190729769307469|0.482896693714289|-0.4096379390235275|0.4644958541903252|-0.05858453363180161|0.9707392454147339|0.2328811287879944|0|0|0|-1|-1|3
2021-03-03 00:32:45.933 +0000|217293.936431875|-0.0607147216796875|0.9049530029296875|0.245025634765625|217293.916469875|2.007008835350585|-2.898256652588486|-1.333002968587462|0.2613521218299866|-0.04882426559925079|0.1420472413301468|-0.01190875843167305|-0.04659777879714966|0.02380748093128204|XArbitraryZVertical|-0.617651339057786|0.4825102404629267|-0.4102068434182672|0.4662842063037037|-0.05675580352544785|0.9718601107597351|0.2286186218261719|0|0|0|-1|-1|3
2021-03-03 00:32:45.953 +0000|217293.956393875|-0.054473876953125|0.8884429931640625|0.245941162109375|217293.936431875|2.006891931903007|-2.899546898138176|-1.336824759425637|0.2099967747926712|-0.09531091153621674|0.08149690181016922|-0.004686936736106873|-0.06213945150375366|0.01985019445419312|XArbitraryZVertical|-0.6168000563839789|0.4817671510753879|-0.4105157494065966|0.4679046947326216|-0.05557005107402802|0.9727532863616943|0.2250837981700897|0|0|0|-1|-1|3
2021-03-03 00:32:45.973 +0000|217293.976355875|-0.050567626953125|0.874481201171875|0.2496795654296875|217293.956393875|2.010101676730017|-2.898636924409496|-1.339530769605236|0.1708745658397675|-0.1442011147737503|0.008081364445388317|-0.001667100936174393|-0.0811195969581604|0.02245672047138214|XArbitraryZVertical|-0.6166137466210393|0.4806517898736535|-0.4105240843139537|0.4692879684464858|-0.055141381919384|0.9733771085739136|0.2224773168563843|0|0|0|-1|-1|3
2021-03-03 00:32:45.993 +0000|217293.996317875|-0.054931640625|0.87237548828125|0.261810302734375|217293.976355875|2.018588737489925|-2.893678404523846|-1.341329210232335|0.1468144208192825|-0.1955176740884781|-0.1028252691030502|0.002057731151580811|-0.09524762630462646|0.02856433391571045|XArbitraryZVertical|-0.6171176172368852|0.4789762648928503|-0.4103755292186547|0.4704674195053066|-0.0558144822716713|0.9737877249717712|0.2205048352479935|0|0|0|-1|-1|3
2021-03-03 00:32:46.013 +0000|217294.016280875|-0.0838775634765625|0.905548095703125|0.2507476806640625|217293.996317875|2.035939287660081|-2.88142967126711|-1.342212880722117|0.1198076084256172|-0.2768901586532593|-0.2213937193155289|0.005799274891614914|-0.1051988005638123|0.03790958225727081|XArbitraryZVertical|-0.6184943312860206|0.4763935575913616|-0.4102255562853911|0.4714115446315097|-0.05828951671719551|0.9739883542060852|0.2189721167087555|0|0|0|-1|-1|3
2021-03-03 00:32:46.033 +0000|217294.036242875|-0.118011474609375|0.883819580078125|0.232574462890625|217294.016280875|2.06021102380138|-2.864343899267789|-1.341005280911745|0.009594633243978024|-0.363579124212265|-0.3178309798240662|-0.0106537714600563|-0.06898975372314453|0.03708818554878235|XArbitraryZVertical|-0.6211044034323518|0.4730407391602244|-0.4095959125889167|0.4719036774296563|-0.06234432011842728|0.9737139940261841|0.2190764397382736|0|0|0|-1|-1|3
2021-03-03 00:32:46.052 +0000|217294.056204875|-0.13568115234375|0.8786163330078125|0.2352752685546875|217294.036242875|2.085291276938694|-2.847499733062658|-1.336581392061294|-0.182932585477829|-0.3915905058383942|-0.3515101671218872|-0.04425305128097534|-0.08219385147094727|0.02355074882507324|XArbitraryZVertical|-0.6248664634266295|0.4696805156945396|-0.4082212950038551|0.4714844661527092|-0.06727346032857895|0.972696840763092|0.222115769982338|0|0|0|-1|-1|3
2021-03-03 00:32:46.073 +0000|217294.076166875|-0.1500396728515625|0.88958740234375|0.2625274658203125|217294.076166875|2.111241774312176|-2.838354543919207|-1.316666731900968|-0.6353997588157654|-0.3840025365352631|-0.2186295390129089|-0.07206855714321136|-0.09025806188583374|0.010403111577034|XArbitraryZVertical|-0.6349206486805257|0.465663022651161|-0.4019346217958026|0.4674208534921376|-0.07507196813821793|0.967882513999939|0.2399325668811798|0|0|0|-1|-1|3
2021-03-03 00:32:46.093 +0000|217294.096128875|-0.142791748046875|0.9507904052734375|0.2958526611328125||||||||||||||||||||||||3
2021-03-03 00:32:46.112 +0000|217294.116090875|-0.133819580078125|1.004531860351562|0.2847442626953125|217294.096128875|2.10964476656663|-2.846865060641276|-1.302974131938852|-0.6465762257575989|-0.3116607069969177|-0.156220406293869|-0.06970583647489548|-0.02953505516052246|0.03674134612083435|XArbitraryZVertical|-0.6402359676970872|0.4655197737220103|-0.3974866161727246|0.4641052441963578|-0.07687012106180191|0.9643495082855225|0.2532215118408203|0|0|0|-1|-1|3
2021-03-03 00:32:46.132 +0000|217294.136053875|-0.1346588134765625|1.025192260742188|0.2677154541015625|217294.116090875|2.109154063307171|-2.852574296265717|-1.291296704896597|-0.4533001184463501|-0.2218715250492096|-0.1271664798259735|-0.056855209171772|0.03288614749908447|0.0288408100605011|XArbitraryZVertical|-0.6446201945794079|0.4654904299433107|-0.3939404711288764|0.4610796921575576|-0.07862760126590729|0.9611936211585999|0.2644330859184265|0|0|0|-1|-1|3
2021-03-03 00:32:46.152 +0000|217294.156015875|-0.1331939697265625|1.00177001953125|0.253509521484375|217294.136053875|2.114620439938073|-2.850284353689835|-1.284405384867702|-0.228473961353302|-0.1132393628358841|-0.09693968296051025|-0.05244210362434387|0.06186383962631226|0.0009853839874267578|XArbitraryZVertical|-0.6474191918166119|0.464912564760357|-0.3923402413635422|0.4591011840013678|-0.08113338798284531|0.959269642829895|0.270590603351593|0|0|0|-1|-1|3
2021-03-03 00:32:46.172 +0000|217294.1759782917|-0.133819580078125|0.968109130859375|0.2515411376953125|217294.156015875|2.121274739831223|-2.844827839754658|-1.280589586024678|-0.1264503598213196|-0.02785453386604786|-0.05112239345908165|-0.05232313275337219|0.05403757095336914|-0.01961398124694824|XArbitraryZVertical|-0.648989202928238|0.4643642801333622|-0.3919885282793925|0.4577378120164585|-0.0836784690618515|0.9581847190856934|0.2736423313617706|0|0|0|-1|-1|3
2021-03-03 00:32:46.192 +0000|217294.1959402917|-0.1332244873046875|0.9866180419921875|0.25018310546875|217294.1759782917|2.12377501806701|-2.842027437290387|-1.276807705731393|-0.190382644534111|0.033389862626791|-0.0008912694174796343|-0.04610908031463623|0.01311922073364258|-0.02673006057739258|XArbitraryZVertical|-0.6501051175581625|0.4645396154417131|-0.3917411157572375|0.4561855848602211|-0.08551325649023056|0.9570956826210022|0.2768674492835999|0|0|0|-1|-1|3
2021-03-03 00:32:46.212 +0000|217294.2159022917|-0.130340576171875|0.99835205078125|0.2597808837890625|217294.1959402917|2.11954516179298|-2.84470778512741|-1.271709125994512|-0.3035549223423004|0.07957898080348969|0.05682635307312012|-0.04713398963212967|0.02536660432815552|-0.03169736266136169|XArbitraryZVertical|-0.6511033854353007|0.4657720557706707|-0.3910392519667|0.4541026374448311|-0.08619732409715652|0.9556058645248413|0.2817584574222565|0|0|0|-1|-1|3
2021-03-03 00:32:46.232 +0000|217294.2358642917|-0.1252288818359375|0.9801025390625|0.25970458984375|217294.2159022917|2.111131191432487|-2.85040847784975|-1.266011146744952|-0.3502736985683441|0.1198084205389023|0.0869714766740799|-0.04597451537847519|0.0439523458480835|-0.02942982316017151|XArbitraryZVertical|-0.6518733931661319|0.4677489286603325|-0.3901887590807647|0.4516910013709574|-0.0861513763666153|0.9539114236831665|0.2874559760093689|0|0|0|-1|-1|3
2021-03-03 00:32:46.252 +0000|217294.2558272917|-0.1156463623046875|0.972869873046875|0.261474609375|217294.2358642917|2.102234627902122|-2.855964609658928|-1.260611977022822|-0.3431552052497864|0.134813204407692|0.09414887428283691|-0.04044658690690994|0.03444772958755493|-0.0350557267665863|XArbitraryZVertical|-0.6523968759914773|0.4699068706254138|-0.3895135788730163|0.4492718496650897|-0.08600302785634995|0.9522773027420044|0.2928683161735535|0|0|0|-1|-1|3
2021-03-03 00:32:46.272 +0000|217294.2757892917|-0.118621826171875|0.9791717529296875|0.2515716552734375|217294.2558272917|2.094223462799978|-2.860491005783829|-1.255603929034278|-0.3047738671302795|0.1378422826528549|0.08563163876533508|-0.03152481466531754|0.01750987768173218|-0.03739556670188904|XArbitraryZVertical|-0.6527984645245468|0.4719857201439304|-0.3890130159071623|0.4469370013222798|-0.08599843084812164|0.9507367610931396|0.2978326976299286|0|0|0|-1|-1|3
2021-03-03 00:32:46.292 +0000|217294.2957512917|-0.116485595703125|0.9609222412109375|0.24951171875|217294.2757892917|2.087867681893487|-2.863615416369093|-1.251516877726177|-0.2454109787940979|0.1196893900632858|0.07361376285552979|-0.0296812430024147|0.03430300951004028|-0.04864475131034851|XArbitraryZVertical|-0.6530457538983969|0.4737596430834112|-0.3887327635138786|0.4449382289136123|-0.08613301068544388|0.949461817741394|0.3018338978290558|0|0|0|-1|-1|3
2021-03-03 00:32:46.312 +0000|217294.3157132917|-0.1080780029296875|0.9608154296875|0.2548828125|217294.2957512917|2.08331725766902|-2.865342175106288|-1.248597456583412|-0.1859825104475021|0.1045453175902367|0.06114254146814346|-0.03309375792741776|0.01599729061126709|-0.0551510751247406|XArbitraryZVertical|-0.6531149634964051|0.4751469931307052|-0.3886907041896752|0.4433913066410362|-0.08636733889579773|0.9485414624214172|0.3046476542949677|0|0|0|-1|-1|3
2021-03-03 00:32:46.332 +0000|217294.3356752917|-0.095733642578125|0.950836181640625|0.26800537109375|217294.3157132917|2.080464227474975|-2.865955735151188|-1.246899436454389|-0.1060040965676308|0.07395480573177338|0.04094938561320305|-0.02287869900465012|0.01233994960784912|-0.05469277501106262|XArbitraryZVertical|-0.6530274704717119|0.4761089219585156|-0.3888359128469353|0.4423595590769684|-0.08661840111017227|0.9480023980140686|0.3062491714954376|0|0|0|-1|-1|3
2021-03-03 00:32:46.352 +0000|217294.3556372917|-0.0858306884765625|0.9434967041015625|0.2588043212890625|217294.3356752917|2.080106185280987|-2.864788283447713|-1.246524269537901|-0.0306174848228693|0.04651716724038124|0.01538712531328201|-0.012795589864254|0.004769086837768555|-0.03691330552101135|XArbitraryZVertical|-0.6528193046493042|0.4765208694029142|-0.3892329088170718|0.441873962288717|-0.0870731845498085|0.9478828907012939|0.3064903616905212|0|0|0|-1|-1|3
2021-03-03 00:32:46.372 +0000|217294.3756002917|-0.0800933837890625|0.9428253173828125|0.2544097900390625|217294.3556372917|2.082495873236014|-2.861536387153266|-1.247423005419649|0.02059074118733406|0.03086928650736809|-0.02049923688173294|0.001225076615810394|-0.001589715480804443|-0.04578933119773865|XArbitraryZVertical|-0.6525054193984856|0.4763719585515506|-0.3899174539478626|0.4418947227225538|-0.08783399313688278|0.9481688737869263|0.3053871393203735|0|0|0|-1|-1|3
2021-03-03 00:32:46.392 +0000|217294.3955622917|-0.073974609375|0.9517822265625|0.2657623291015625|217294.3756002917|2.087979737989247|-2.855419521376289|-1.248854083393518|0.04723353683948517|0.03203345835208893|-0.04664020240306854|0.008720189332962036|-0.007231652736663818|-0.04720938205718994|XArbitraryZVertical|-0.6522178645775915|0.4757969489853611|-0.3909395218976118|0.4420355766364188|-0.08931712061166763|0.9486226439476013|0.3035417497158051|0|0|0|-1|-1|3
2021-03-03 00:32:46.412 +0000|217294.4155242917|-0.0672607421875|0.9556121826171875|0.2841033935546875|217294.3955622917|2.095004952383569|-2.847748110552341|-1.250528912618556|0.06300597637891769|0.04514148458838463|-0.07819084823131561|0.01639936119318008|0.0006930232048034668|-0.04011109471321106|XArbitraryZVertical|-0.6519173144803724|0.4750442131012254|-0.3921632727720561|0.4422044522646372|-0.09118272364139557|0.9491512775421143|0.3013263642787933|0|0|0|-1|-1|3
2021-03-03 00:32:46.432 +0000|217294.4354862917|-0.06640625|0.9620819091796875|0.299163818359375|217294.4155242917|2.103246880825758|-2.838654777078386|-1.25186367825515|0.06277474015951157|0.06826486438512802|-0.107551671564579|0.02431181818246841|0.005034446716308594|-0.01897135376930237|XArbitraryZVertical|-0.651712002135832|0.4742458637936606|-0.3935206737940244|0.4421581348636512|-0.09354095906019211|0.9495706558227539|0.2992753386497498|0|0|0|-1|-1|3
2021-03-03 00:32:46.452 +0000|217294.4554482917|-0.0652618408203125|0.97784423828125|0.31353759765625|217294.4354862917|2.112447670271277|-2.828191047898193|-1.252716677410941|0.03687309101223946|0.1019805818796158|-0.1499664187431335|0.02987410128116608|0.009940266609191895|-0.001718372106552124|XArbitraryZVertical|-0.6515882846216736|0.4734846661935001|-0.3950322164007075|0.4418083971754759|-0.09641772508621216|0.9498377442359924|0.2975100576877594|0|0|0|-1|-1|3
2021-03-03 00:32:46.472 +0000|217294.4754102917|-0.0637664794921875|0.982025146484375|0.3264312744140625|217294.4554482917|2.122918637366371|-2.815790110091191|-1.252816835392023|0.00143302627839148|0.1414919346570969|-0.1849624812602997|0.03488360345363617|0.02408432960510254|0.01280441880226135|XArbitraryZVertical|-0.6515822004201718|0.4728015984145116|-0.396776996039775|0.4409846280571311|-0.1000691801309586|0.9498690366744995|0.2962014377117157|0|0|0|-1|-1|3
2021-03-03 00:32:46.492 +0000|217294.4953732917|-0.07037353515625|0.9880523681640625|0.3299407958984375|217294.4754102917|2.133635033568112|-2.802631784208629|-1.252027344956358|-0.04140666499733925|0.16396464407444|-0.2077395170927048|0.04137121886014938|0.03302866220474243|0.02692919969558716|XArbitraryZVertical|-0.651722843922248|0.4722711244136691|-0.3985851069888505|0.4397125771607064|-0.1042069345712662|0.9496219158172607|0.2955653667449951|0|0|0|-1|-1|3
2021-03-03 00:32:46.512 +0000|217294.5153352917|-0.0752105712890625|0.9886016845703125|0.3130645751953125|217294.4953732917|2.143713043874949|-2.789883500958982|-1.249920028481216|-0.08957679569721222|0.1666077226400375|-0.2249996513128281|0.03915198147296906|0.03593456745147705|0.03551223874092102|XArbitraryZVertical|-0.6521595117555355|0.4719468822144819|-0.4002180610268602|0.4379266552136158|-0.1086557880043983|0.9489594101905823|0.296091765165329|0|0|0|-1|-1|3
2021-03-03 00:32:46.532 +0000|217294.5352972917|-0.07916259765625|0.9671630859375|0.3016510009765625|217294.5153352917|2.152389950740521|-2.778796257505634|-1.246675430493334|-0.122597761452198|0.1385706514120102|-0.2311726808547974|0.04084953665733337|0.04630094766616821|0.02258270978927612|XArbitraryZVertical|-0.6529161533173842|0.4717763721755525|-0.4014705974701179|0.4358311391280033|-0.1130236089229584|0.9479310512542725|0.2977448999881744|0|0|0|-1|-1|3
2021-03-03 00:32:46.552 +0000|217294.5552592917|-0.0847625732421875|0.9630126953125|0.29376220703125|217294.5352972917|2.158927036343058|-2.770630903012826|-1.242692498208259|-0.172887995839119|0.08555895090103149|-0.2066855430603027|0.03910589963197708|0.02540606260299683|0.008539527654647827|XArbitraryZVertical|-0.6539628291619812|0.4716959403239613|-0.4021510276116863|0.4337165997952251|-0.1168189272284508|0.9466550946235657|0.3003288805484772|0|0|0|-1|-1|3
2021-03-03 00:32:46.572 +0000|217294.5752212917|-0.092010498046875|0.9593963623046875|0.288177490234375|217294.5552592917|2.162588107483397|-2.76642362395833|-1.238254982039289|-0.1861749142408371|0.01948656141757965|-0.1718978136777878|0.03598637878894806|0.01682049036026001|-0.009246319532394409|XArbitraryZVertical|-0.6552559989232529|0.4717097636636786|-0.4021113995088532|0.4317824169960183|-0.1196198463439941|0.9452157616615295|0.3037410378456116|0|0|0|-1|-1|3
2021-03-03 00:32:46.592 +0000|217294.5951832917|-0.1088409423828125|0.9692535400390625|0.2895355224609375|217294.5752212917|2.164429812285803|-2.76542858152496|-1.234401891501377|-0.1183130219578743|-0.05318913236260414|-0.1323797851800919|0.03168980777263641|0.01486575603485107|-0.02029404044151306|XArbitraryZVertical|-0.6565964086925029|0.4715766164455633|-0.4015001412801491|0.430458330665626|-0.1212589368224144|0.9439509510993958|0.3070066869258881|0|0|0|-1|-1|3
2021-03-03 00:32:46.611 +0000|217294.6151452917|-0.1211090087890625|0.9576416015625|0.30682373046875|217294.5951832917|2.166797117931412|-2.765094149331801|-1.232868819033984|0.01677273400127888|-0.09376978874206543|-0.1022771894931793|0.01624144613742828|0.023673415184021|-0.01821091771125793|XArbitraryZVertical|-0.6575266662423198|0.4709715338897845|-0.4008857744586368|0.4302732060923292|-0.1218933090567589|0.943443775177002|0.3083110153675079|0|0|0|-1|-1|3
2021-03-03 00:32:46.632 +0000|217294.6351082917|-0.130767822265625|0.945404052734375|0.3054656982421875|217294.6151452917|2.171168929859727|-2.763286063025209|-1.234176582389451|0.1315945982933044|-0.1074486374855042|-0.07299084961414337|0.004029050469398499|0.01550447940826416|-0.002026826143264771|XArbitraryZVertical|-0.6578173956242082|0.4698381625707709|-0.4007209099106466|0.4312204273706016|-0.1219947412610054|0.9438765645027161|0.3069432377815247|0|0|0|-1|-1|3
2021-03-03 00:32:46.651 +0000|217294.6550702917|-0.132720947265625|0.941802978515625|0.28814697265625|217294.6351082917|2.175879245194266|-2.761093586832702|-1.237243619259921|0.1617769002914429|-0.08973728865385056|-0.03359107300639153|-0.008550450205802917|0.005539000034332275|0.001006811857223511|XArbitraryZVertical|-0.6576012129747389|0.468565444649846|-0.4008474608387292|0.4328144450019603|-0.1215917691588402|0.9448851346969604|0.3039858639240265|0|0|0|-1|-1|3
2021-03-03 00:32:46.672 +0000|217294.6750322917|-0.1380462646484375|0.92919921875|0.276519775390625|217294.6550702917|2.177780496099959|-2.760836310422261|-1.24044240125608|0.1068244650959969|-0.03956466913223267|0.02973632700741291|-0.01077093929052353|-0.01062488555908203|-0.004516273736953735|XArbitraryZVertical|-0.6570727036926944|0.4677916833395481|-0.4009574686722972|0.4343495442222562|-0.1205462068319321|0.945927619934082|0.3011471927165985|0|0|0|-1|-1|3
2021-03-03 00:32:46.692 +0000|217294.6949942917|-0.12445068359375|0.9222412109375|0.2840118408203125|217294.6750322917|2.174363493271645|-2.76394996843001|-1.242524450174517|0.02644312009215355|0.06695511937141418|0.1125261932611465|-0.01956165581941605|-0.006888508796691895|-0.02027052640914917|XArbitraryZVertical|-0.6562966277973011|0.4681019328749046|-0.4009628465517089|0.4351827556248672|-0.1188813522458076|0.9466009140014648|0.2996893525123596|0|0|0|-1|-1|3
2021-03-03 00:32:46.711 +0000|217294.7149562917|-0.1214141845703125|0.9422149658203125|0.279876708984375|217294.6949942917|2.164710008513365|-2.770839548401685|-1.243630369027872|-0.03582629188895226|0.1536827683448792|0.2091024369001389|-0.01180003583431244|-0.03110891580581665|-0.01490423083305359|XArbitraryZVertical|-0.6550959146924624|0.4696941397816568|-0.4009584423713601|0.4352807127733489|-0.1164348721504211|0.9469568729400635|0.2995264828205109|0|0|0|-1|-1|3
2021-03-03 00:32:46.731 +0000|217294.7349182917|-0.1298370361328125|0.9482879638671875|0.2230224609375|217294.7149562917|2.14921126918216|-2.781506822295781|-1.244245666626693|-0.09054481983184814|0.2523545920848846|0.3068116009235382|-0.007852554321289062|-0.003810286521911621|-0.02228188514709473|XArbitraryZVertical|-0.6534072096894374|0.4723999976309606|-0.400928028074472|0.4349184095378745|-0.1130276173353195|0.9471544623374939|0.3002054691314697|0|0|0|-1|-1|3
2021-03-03 00:32:46.751 +0000|217294.7548812917|-0.113189697265625|0.960174560546875|0.2055816650390625|217294.7349182917|2.126245842717747|-2.797050705871275|-1.244135180150938|-0.1855043321847916|0.3791199922561646|0.4140321314334869|-0.01631170511245728|-0.01222819089889526|-0.06015753746032715|XArbitraryZVertical|-0.6511062775063685|0.4765216797516068|-0.4008309035255638|0.4339612357440564|-0.1083831638097763|0.9471189975738525|0.3020246028900146|0|0|0|-1|-1|3
2021-03-03 00:32:46.771 +0000|217294.7748432917|-0.087646484375|0.9794921875|0.227508544921875|217294.7548812917|2.097192226671877|-2.814727492396714|-1.242852709069934|-0.2852189242839813|0.5641366243362427|0.5024229288101196|-0.01743200421333313|0.01926624774932861|-0.100041389465332|XArbitraryZVertical|-0.6480500277865576|0.4822373142569248|-0.4011798475470301|0.4318948311851299|-0.1034176126122475|0.9467067122459412|0.3050433397293091|0|0|0|-1|-1|3
2021-03-03 00:32:46.791 +0000|217294.7948052917|-0.07666015625|1.022918701171875|0.2608489990234375|217294.7748432917|2.060837811422732|-2.836308308824093|-1.23963641552188|-0.4163200855255127|0.6923814415931702|0.5749131441116333|0.005928829312324524|0.02006310224533081|-0.09295889735221863|XArbitraryZVertical|-0.6444482999703943|0.48963228595302|-0.4014998837459576|0.4286544275931906|-0.09772574156522751|0.9456658363342285|0.3101067841053009|0|0|0|-1|-1|3
2021-03-03 00:32:46.811 +0000|217294.8147672917|-0.072723388671875|1.031356811523438|0.274566650390625|217294.7948052917|2.018987945672349|-2.860682153430202|-1.234518169746471|-0.4634862840175629|0.8252038955688477|0.5841625928878784|0.01048598438501358|0.07421469688415527|-0.05884876847267151|XArbitraryZVertical|-0.6404157357761251|0.4983865467660844|-0.4017003507967661|0.4244002668713898|-0.09147968143224716|0.9439893364906311|0.3170429170131683|0|0|0|-1|-1|3
2021-03-03 00:32:46.831 +0000|217294.8347292917|-0.06842041015625|1.00457763671875|0.2631378173828125|217294.8147672917|1.977348182173375|-2.882464167228782|-1.228321180326079|-0.5142766237258911|0.9209145307540894|0.5786035656929016|0.01224308460950851|0.08555489778518677|-0.04627260565757751|XArbitraryZVertical|-0.635995986068312|0.5077530646000336|-0.4023781604182469|0.4192706185832129|-0.08604990690946579|0.9419263601303101|0.3246081471443176|0|0|0|-1|-1|3
2021-03-03 00:32:46.851 +0000|217294.8546912917|-0.0532989501953125|0.96600341796875|0.2765960693359375|217294.8347292917|1.937160039036682|-2.900995045264497|-1.220546503521736|-0.5779654979705811|1.006186723709106|0.5520759224891663|0.01158758252859116|0.08033597469329834|-0.070721834897995|XArbitraryZVertical|-0.631488017009608|0.51753993792952|-0.4033384718427658|0.4131507409978449|-0.08176280558109283|0.939287006855011|0.333249419927597|0|0|0|-1|-1|3
2021-03-03 00:32:46.871 +0000|217294.8746532917|-0.055999755859375|0.9858551025390625|0.30609130859375|217294.8546912917|1.898893074238477|-2.916384135656782|-1.210975894381212|-0.6723357439041138|1.031456828117371|0.5227380394935608|0.02159144729375839|0.03103536367416382|-0.07433995604515076|XArbitraryZVertical|-0.6270810930743369|0.5276143232904302|-0.4043526317180211|0.4060683625594704|-0.07862880825996399|0.935960054397583|0.343215137720108|0|0|0|-1|-1|3
