loggingTime(txt)|accelerometerTimestamp_sinceReboot(s)|accelerometerAccelerationX(G)|accelerometerAccelerationY(G)|accelerometerAccelerationZ(G)|motionTimestamp_sinceReboot(s)|motionYaw(rad)|motionRoll(rad)|motionPitch(rad)|motionRotationRateX(rad/s)|motionRotationRateY(rad/s)|motionRotationRateZ(rad/s)|motionUserAccelerationX(G)|motionUserAccelerationY(G)|motionUserAccelerationZ(G)|motionAttitudeReferenceFrame(txt)|motionQuaternionX(R)|motionQuaternionY(R)|motionQuaternionZ(R)|motionQuaternionW(R)|motionGravityX(G)|motionGravityY(G)|motionGravityZ(G)|motionMagneticFieldX(µT)|motionMagneticFieldY(µT)|motionMagneticFieldZ(µT)|motionHeading(°)|motionMagneticFieldCalibrationAccuracy(Z)|label
2021-03-05 00:23:37.797 +0000|235644.4919784167|-0.197174072265625|-0.1292877197265625|-0.946014404296875|235644.4720154167|2.166151074704056|-0.1994554736455975|0.1091503660936958|-0.1119508668780327|0.04245865345001221|-0.0153659051284194|-0.02620324492454529|-0.06104912608861923|0.04030537605285645|XArbitraryZVertical|-0.1132578532336637|-0.001361636981325867|-0.8751601732449024|-0.4703888452686302|-0.196956530213356|-0.108933761715889|-0.9743416309356689|0|0|0|-1|-1|3
2021-03-05 00:23:37.812 +0000|235644.5119424167|-0.1903533935546875|-0.084808349609375|-0.96484375|235644.4919784167|2.165475150858508|-0.1992690918246126|0.1064689400812997|-0.1394574642181396|0.007752661593258381|-0.006796740461140871|0.01407754421234131|-0.03240395337343216|0.02840256690979004|XArbitraryZVertical|-0.1125584667096807|-0.0001872663196162208|-0.8751376009603705|-0.470600483088114|-0.1968320310115814|-0.1062679067254066|-0.974661111831665|0|0|0|-1|-1|3
2021-03-05 00:23:37.813 +0000|235644.5319064167|-0.201507568359375|-0.072662353515625|-0.9853973388671875|235644.5119424167|2.164948048661735|-0.1991893793801403|0.1029834440893268|-0.13661789894104|0.01182015985250473|0.002036254620179534|0.004962459206581116|0.01114197820425034|0.01615637540817261|XArbitraryZVertical|-0.1117192129331186|0.00135721884558665|-0.8751793613574097|-0.4707208559620321|-0.1968264430761337|-0.1028015092015266|-0.9750339388847351|0|0|0|-1|-1|3
2021-03-05 00:23:37.815 +0000|235644.5518704167|-0.2006072998046875|-0.121978759765625|-0.9880523681640625|235644.5319064167|2.164247406158599|-0.1987554589702466|0.1000321126455399|-0.1271730810403824|0.01793147623538971|-0.00660952040925622|-0.00263427197933197|0.0309872180223465|-0.004140794277191162|XArbitraryZVertical|-0.1108469921305155|0.002592498844490167|-0.8751730349563678|-0.4709335678328382|-0.1964623928070068|-0.09986536949872971|-0.9754124283790588|0|0|0|-1|-1|3
2021-03-05 00:23:37.835 +0000|235644.5718334167|-0.1941680908203125|-0.115692138671875|-0.9784088134765625|235644.5518704167|2.163577413743642|-0.1979582047974066|0.0991400068164191|-0.1140393912792206|0.05081267654895782|-0.02551228180527687|-0.01354162395000458|-0.0229247659444809|-0.01283913850784302|XArbitraryZVertical|-0.1102909822250033|0.002834188166807094|-0.8750995663447214|-0.4711993429077607|-0.1957021206617355|-0.09897768497467041|-0.975655734539032|0|0|0|-1|-1|3
2021-03-05 00:23:37.855 +0000|235644.5917974167|-0.191192626953125|-0.1147613525390625|-0.9682159423828125|235644.5718334167|2.162799866570113|-0.1969985768697382|0.09736743959371472|-0.1778785884380341|0.04523974284529686|0.005613590124994516|0.01010744273662567|-0.01805120706558228|-0.006576120853424072|XArbitraryZVertical|-0.1094597404340445|0.003430331243648988|-0.8750482016184358|-0.4714841964893489|-0.1947997957468033|-0.09721366316080093|-0.9760136008262634|0|0|0|-1|-1|3
2021-03-05 00:23:37.875 +0000|235644.6117614167|-0.201904296875|-0.08197021484375|-0.9579925537109375|235644.5917974167|2.162421436520019|-0.1959200258582856|0.09358663678515468|-0.1974819749593735|0.05801039561629295|0.008617812767624855|-0.001922562718391418|-0.02244040369987488|0.007338404655456543|XArbitraryZVertical|-0.1081112938090589|0.004859292730283481|-0.8751840075097876|-0.4715309156419701|-0.1938171684741974|-0.09345008432865143|-0.9765766859054565|0|0|0|-1|-1|3
2021-03-05 00:23:37.895 +0000|235644.6317244167|-0.1830596923828125|-0.0962371826171875|-0.96136474609375|235644.6117614167|2.162040833582203|-0.1948112594575143|0.08914361061492691|-0.2318164706230164|0.06431399285793304|0.02564606443047523|-0.00109592080116272|0.0004941299557685852|0.01843321323394775|XArbitraryZVertical|-0.106594904007074|0.006572019656647374|-0.8753446480243893|-0.4715570523649862|-0.1928127259016037|-0.0890255942940712|-0.9771886467933655|0|0|0|-1|-1|3
2021-03-05 00:23:37.915 +0000|235644.6516872917|-0.196990966796875|-0.1053619384765625|-0.966888427734375|235644.6317244167|2.161385339967211|-0.1935779627970407|0.08505838989473799|-0.2388547658920288|0.05522611737251282|0.01359330862760544|0.006891876459121704|-0.01732377707958221|0.01663857698440552|XArbitraryZVertical|-0.1051045280043496|0.008112071233841833|-0.875426578654153|-0.47171567752937|-0.1916757822036743|-0.08495586365461349|-0.977774441242218|0|0|0|-1|-1|3
2021-03-05 00:23:37.935 +0000|235644.6716512917|-0.1905670166015625|-0.07794189453125|-0.9657440185546875|235644.6516872917|2.160665714872507|-0.1925783980398012|0.08024169739791913|-0.2750510573387146|0.03043602779507637|0.01572392694652081|-0.008551105856895447|-0.0133959949016571|0.01558732986450195|XArbitraryZVertical|-0.1035443986325765|0.01003126794929191|-0.8755055195256359|-0.471877176441562|-0.1907744407653809|-0.0801556184887886|-0.978355884552002|0|0|0|-1|-1|3
2021-03-05 00:23:37.955 +0000|235644.6916152917|-0.123779296875|-0.12335205078125|-0.9805145263671875|235644.6716512917|2.159798017256469|-0.1922173486388888|0.07572579982596053|-0.2982036471366882|0.01063883490860462|-0.005313892383128405|-0.001100942492485046|-0.02564963698387146|0.01279711723327637|XArbitraryZVertical|-0.1023307548461518|0.01197552670442212|-0.8754987118655981|-0.4721091107772569|-0.1904883980751038|-0.07565344870090485|-0.9787700176239014|0|0|0|-1|-1|3
2021-03-05 00:23:37.975 +0000|235644.7115782917|-0.238067626953125|-0.0978240966796875|-0.9563751220703125|235644.6916152917|2.154978537825211|-0.190629702325729|0.07395977226016147|-0.1106911972165108|0.003779437392950058|-0.2704956829547882|0.0343572199344635|-0.02765485644340515|0.01821756362915039|XArbitraryZVertical|-0.1011942980409933|0.01262078290587686|-0.8745081713090596|-0.4741686086392231|-0.1889592409133911|-0.07389236241579056|-0.9792008399963379|0|0|0|-1|-1|3
2021-03-05 00:23:37.995 +0000|235644.7315422917|-0.178070068359375|-0.0868377685546875|-0.982513427734375|235644.7115782917|2.149785291458831|-0.1901563302171114|0.07283819838436167|-0.1599721610546112|0.04254185408353806|-0.1312736868858337|-0.03124582767486572|-0.007777318358421326|0.02499473094940186|XArbitraryZVertical|-0.1006907508463156|0.01326234525988204|-0.8733412587728154|-0.4764038169682455|-0.1885112375020981|-0.07277380675077438|-0.9793709516525269|0|0|0|-1|-1|3
2021-03-05 00:23:38.015 +0000|235644.7515062917|-0.21282958984375|-0.0720367431640625|-0.9877777099609375|235644.7315422917|2.146400075998977|-0.1885708486480124|0.070887364988568|-0.1601592600345612|0.0560825876891613|-0.1397020667791367|-0.007732897996902466|-0.02582113444805145|0.002633333206176758|XArbitraryZVertical|-0.09951612685713421|0.01390825819890347|-0.8726875978918074|-0.477827782273277|-0.1869844794273376|-0.07082801312208176|-0.9798061847686768|0|0|0|-1|-1|3
2021-03-05 00:23:38.035 +0000|235644.7714702917|-0.2344970703125|-0.0848541259765625|-1.005722045898438|235644.7515062917|2.142918479720207|-0.1871037308790446|0.06936866011808747|-0.1466506868600845|0.07846070826053619|-0.1488385647535324|-0.02390603721141815|-0.009696945548057556|-0.005976259708404541|XArbitraryZVertical|-0.09849256149462307|0.01439434818592621|-0.8719844562861738|-0.4793069346031799|-0.1855665892362595|-0.06931304186582565|-0.980184018611908|0|0|0|-1|-1|3
2021-03-05 00:23:38.055 +0000|235644.7914332917|-0.206146240234375|-0.0728912353515625|-0.996673583984375|235644.7714702917|2.139546693581937|-0.185045101285596|0.06752066721532074|-0.1602097749710083|0.1262878775596619|-0.138210341334343|-0.03612440824508667|-0.009007655084133148|-0.02157008647918701|XArbitraryZVertical|-0.09713229439428227|0.01487338932198011|-0.8713446260616162|-0.480731307214178|-0.1835716068744659|-0.06746937334537506|-0.980688214302063|0|0|0|-1|-1|3
2021-03-05 00:23:38.075 +0000|235644.8113972917|-0.19683837890625|-0.0782470703125|-0.985626220703125|235644.7914332917|2.136333921546574|-0.1824494714222501|0.06557087522379096|-0.1737679839134216|0.1334009766578674|-0.1314462572336197|-0.02372391521930695|-0.005078494548797607|-0.01941299438476562|XArbitraryZVertical|-0.09551350422806434|0.01525540149925698|-0.8707676795574057|-0.4820874271483891|-0.1810490190982819|-0.0655239000916481|-0.9812889099121094|0|0|0|-1|-1|3
2021-03-05 00:23:38.095 +0000|235644.8313612917|-0.186981201171875|-0.060394287109375|-0.9862213134765625|235644.8113972917|2.132941969069285|-0.1799858806929056|0.06374351400769114|-0.1770296543836594|0.129136398434639|-0.1465973407030106|-0.01803365349769592|-0.02094012498855591|-0.00687563419342041|XArbitraryZVertical|-0.09397866985074302|0.01561925489409221|-0.8701311324931279|-0.48352437491875|-0.1786521077156067|-0.0637003555893898|-0.9818481206893921|0|0|0|-1|-1|3
2021-03-05 00:23:38.115 +0000|235644.8513252917|-0.1875762939453125|-0.0471038818359375|-0.9878082275390625|235644.8313612917|2.12944250393152|-0.1773252526995483|0.06131765820121705|-0.1714874058961868|0.1323222219944|-0.1498842090368271|-0.01430273056030273|-0.005111724138259888|-0.00453031063079834|XArbitraryZVertical|-0.09221226411627957|0.01619622512533488|-0.8694930346553981|-0.4849910795319689|-0.1760658919811249|-0.06127924099564552|-0.9824691414833069|0|0|0|-1|-1|3
2021-03-05 00:23:38.135 +0000|235644.8712882917|-0.1872711181640625|-0.0522918701171875|-0.98541259765625|235644.8513252917|2.125818847999056|-0.1749428247185212|0.05935789108739242|-0.1251252293586731|0.1439453214406967|-0.1690009087324142|-0.01538734138011932|0.01043390482664108|-0.004699170589447021|XArbitraryZVertical|-0.09067573200791265|0.01663745432596859|-0.8687894777641784|-0.4865245047109177|-0.1737453043460846|-0.05932303890585899|-0.9830021858215332|0|0|0|-1|-1|3
2021-03-05 00:23:38.168 +0000|235644.8912522917|-0.183929443359375|-0.0516815185546875|-0.985931396484375|235644.8712882917|2.122108373078837|-0.1722614703185144|0.0583151045104168|-0.1023245751857758|0.1597288250923157|-0.1711567342281342|-0.01651789247989655|0.006982028484344482|-0.001628220081329346|XArbitraryZVertical|-0.08922886071478776|0.01660507470960386|-0.8680413375119158|-0.4881259291876382|-0.1711194068193436|-0.05828205868601799|-0.9835249781608582|0|0|0|-1|-1|3
2021-03-05 00:23:38.182 +0000|235644.9112162917|-0.1806488037109375|-0.04736328125|-0.983642578125|235644.8912522917|2.118475698846155|-0.1690673974423201|0.05745075682403739|-0.1114519983530045|0.1672770231962204|-0.1638047397136688|-0.01301421225070953|0.007080439478158951|-0.002242803573608398|XArbitraryZVertical|-0.0876037715648722|0.0163608822337647|-0.8673233400848384|-0.4897021383757065|-0.1679855138063431|-0.05741915851831436|-0.9841157793998718|0|0|0|-1|-1|3
2021-03-05 00:23:38.195 +0000|235644.9311802917|-0.156982421875|-0.03668212890625|-0.9788360595703125|235644.9112162917|2.114979564031427|-0.1656692614536357|0.05596624762360713|-0.1508396565914154|0.1873278617858887|-0.1474048942327499|-0.01851221919059753|0.007032640278339386|0.0006940960884094238|XArbitraryZVertical|-0.08574114489526059|0.01632433689445253|-0.8666619585276467|-0.4912017411798233|-0.1646542698144913|-0.0559370368719101|-0.9847639203071594|0|0|0|-1|-1|3
2021-03-05 00:23:38.215 +0000|235644.9511432917|-0.1466522216796875|-0.025421142578125|-0.9778289794921875|235644.9311802917|2.111532931612282|-0.1621733729900426|0.05317597145072469|-0.1535620838403702|0.1885159909725189|-0.1502106338739395|-0.005024522542953491|0.01598053053021431|0.004892945289611816|XArbitraryZVertical|-0.08351737290279523|0.01682207723102019|-0.8660512994935946|-0.4926428778772423|-0.1612352132797241|-0.05315091460943222|-0.985483705997467|0|0|0|-1|-1|3
2021-03-05 00:23:38.235 +0000|235644.9711072917|-0.1435546875|-0.024749755859375|-0.98187255859375|235644.9511432917|2.108117196779666|-0.158860376363179|0.05059861141992329|-0.1286608278751373|0.1796167194843292|-0.1499185711145401|0.01254381239414215|0.02575099468231201|0.009368360042572021|XArbitraryZVertical|-0.08142305346793073|0.01726397948187549|-0.8654252366129792|-0.4940762303853821|-0.157990574836731|-0.05057702213525772|-0.986144483089447|0|0|0|-1|-1|3
2021-03-05 00:23:38.255 +0000|235644.9910712917|-0.13751220703125|-0.0214996337890625|-0.9847259521484375|235644.9711072917|2.104837414707427|-0.1556170414263512|0.04851107589688661|-0.1203685775399208|0.1760254502296448|-0.1440136283636093|0.01081021130084991|0.02162134647369385|0.007276952266693115|XArbitraryZVertical|-0.07947871383297982|0.01749855255821871|-0.8648073200848221|-0.4954647601440367|-0.15480737388134|-0.04849205166101456|-0.9867538809776306|0|0|0|-1|-1|3
2021-03-05 00:23:38.275 +0000|235645.0110342917|-0.1356964111328125|-0.0103302001953125|-0.9849853515625|235644.9910712917|2.101700129660722|-0.1525684677775421|0.04669922333807032|-0.1032717823982239|0.1755879521369934|-0.1429418921470642|0.01265145838260651|0.02312270551919937|0.004213213920593262|XArbitraryZVertical|-0.07768681417488052|0.01765039987652892|-0.8642021052068063|-0.4967978010411271|-0.1518115699291229|-0.04668224975466728|-0.9873064160346985|0|0|0|-1|-1|3
2021-03-05 00:23:38.295 +0000|235645.0309982917|-0.13616943359375|-0.0179443359375|-0.9907073974609375|235645.0309982917|2.095990105184597|-0.1459408329019952|0.04304503180835891|-0.1031349003314972|0.1554051786661148|-0.1193087249994278|0.01011103391647339|0.02696425840258598|-0.002437412738800049|XArbitraryZVertical|-0.0738695519380238|0.01779748236856353|-0.8631346541203333|-0.4992245508426875|-0.1452886164188385|-0.04303174093365669|-0.9884530901908875|0|0|0|-1|-1|3
2021-03-05 00:23:38.315 +0000|235645.0509622917|-0.1447601318359375|-0.0050506591796875|-0.9917449951171875||||||||||||||||||||||||3
2021-03-05 00:23:38.335 +0000|235645.0709262917|-0.1373748779296875|-0.0042877197265625|-0.9851837158203125|235645.0509622917|2.09348905969147|-0.1428182335666913|0.04099997364729775|-0.10709298402071|0.1526423692703247|-0.105540007352829|-0.004270747303962708|0.0317722000181675|-0.002239227294921875|XArbitraryZVertical|-0.07199159305422559|0.01799231778179084|-0.8626789728813922|-0.5002783880250193|-0.1422135978937149|-0.0409884862601757|-0.9889869689941406|0|0|0|-1|-1|3
2021-03-05 00:23:38.354 +0000|235645.0908892917|-0.1362762451171875|-0.01239013671875|-0.98028564453125|235645.0709262917|2.091241994498106|-0.1398258285584924|0.03903225829341499|-0.09293664991855621|0.1411923617124557|-0.09393838793039322|0.002484723925590515|0.03311721980571747|0.001326858997344971|XArbitraryZVertical|-0.07019056995430684|0.01817291467235434|-0.8622745277523475|-0.5012242447626676|-0.1392644941806793|-0.03902234882116318|-0.989486038684845|0|0|0|-1|-1|3
2021-03-05 00:23:38.375 +0000|235645.1108532917|-0.126708984375|-0.012969970703125|-0.981658935546875|235645.0908892917|2.089276440820787|-0.1369715824635085|0.03691978187321349|-0.09858033806085587|0.1468085497617722|-0.07921954244375229|-0.001107320189476013|0.02546732500195503|0.00688093900680542|XArbitraryZVertical|-0.06841480548448337|0.01843710911991361|-0.8619343756721316|-0.5020444833467239|-0.1364506483078003|-0.03691139444708824|-0.9899590015411377|0|0|0|-1|-1|3
2021-03-05 00:23:38.394 +0000|235645.1308172917|-0.067413330078125|0.0227508544921875|-0.924896240234375|235645.1108532917|2.087540422314289|-0.13398798051175|0.03464526615161773|-0.1033167243003845|0.1434806734323502|-0.07267864048480988|0.005150362849235535|0.01931853592395782|0.01345258951187134|XArbitraryZVertical|-0.06654406784115847|0.01872766252915822|-0.8616551783731009|-0.5027639035223659|-0.1335072666406631|-0.03463833406567574|-0.9904423356056213|0|0|0|-1|-1|3
2021-03-05 00:23:38.414 +0000|235645.1507812917|-0.137176513671875|-0.0922698974609375|-0.969818115234375|235645.1308172917|2.085587634066793|-0.1317686043649444|0.03268876041028605|-0.03928602486848831|0.02372661978006363|-0.160975307226181|0.01968416571617126|0.03304917365312576|0.008501648902893066|XArbitraryZVertical|-0.0650793071840161|0.01907739497279455|-0.8612838133105816|-0.5035782102981508|-0.1313174217939377|-0.03268294036388397|-0.9908014535903931|0|0|0|-1|-1|3
2021-03-05 00:23:38.435 +0000|235645.1707442917|-0.1062164306640625|0.033905029296875|-0.9758148193359375|235645.1507812917|2.082846939666102|-0.1309351178107346|0.0301063670990538|-0.1413875669240952|0.05402636155486107|-0.06743327528238297|-0.05397659540176392|-0.04245369881391525|0.03447848558425903|XArbitraryZVertical|-0.06404503319491879|0.02006880800919951|-0.8606800503373171|-0.5047031863379909|-0.1305021494626999|-0.03010181896388531|-0.990990936756134|0|0|0|-1|-1|3
2021-03-05 00:23:38.454 +0000|235645.1907082917|-0.1281585693359375|-0.0317840576171875|-0.9954681396484375|235645.1707442917|2.081336316970566|-0.1296983155432969|0.02662556983305311|-0.1240319833159447|0.05602021887898445|-0.07731466740369797|0.012116938829422|0.05334058776497841|0.02718394994735718|XArbitraryZVertical|-0.06262112414060629|0.02130368161334431|-0.8604163389872597|-0.5052807370540826|-0.1292891502380371|-0.02662242390215397|-0.9912495017051697|0|0|0|-1|-1|3
2021-03-05 00:23:38.474 +0000|235645.2106722917|-0.1121826171875|-0.0179443359375|-1.001434326171875|235645.1907082917|2.079341611719636|-0.1281586173692685|0.02387710263462309|-0.1601471751928329|0.09169293940067291|-0.08053283393383026|-0.0006920844316482544|0.006022077053785324|0.002929806709289551|XArbitraryZVertical|-0.06124421486120844|0.02215942072901159|-0.8600193873372237|-0.5060877744249583|-0.1277716457843781|-0.02387483417987823|-0.9915162324905396|0|0|0|-1|-1|3
2021-03-05 00:23:38.494 +0000|235645.2306352917|-0.097991943359375|-0.01165771484375|-0.9907684326171875|235645.2106722917|2.077465520141859|-0.1261654571871111|0.01993483302446343|-0.205742210149765|0.1047519147396088|-0.06485098600387573|0.0144321471452713|-0.004251642152667046|-0.009732306003570557|XArbitraryZVertical|-0.05937001142958639|0.02340754626099533|-0.8596864406114337|-0.5068199543538738|-0.1258060038089752|-0.01993351243436337|-0.9918545484542847|0|0|0|-1|-1|3
2021-03-05 00:23:38.514 +0000|235645.2505992917|-0.089508056640625|-0.0375213623046875|-0.9809112548828125|235645.2306352917|2.075728458484208|-0.1239315193161255|0.01614066933881207|-0.2135331779718399|0.1071189790964127|-0.0653582364320755|0.02186810225248337|0.01073838211596012|0.0009138584136962891|XArbitraryZVertical|-0.05742883800270535|0.02452348441297313|-0.8593860832585669|-0.5074998291722468|-0.1235984191298485|-0.01613996922969818|-0.992201030254364|0|0|0|-1|-1|3
2021-03-05 00:23:38.534 +0000|235645.2705632917|-0.0838165283203125|-0.0313568115234375|-0.9733428955078125|235645.2505992917|2.073981540634014|-0.1217678186142482|0.01210836842335023|-0.2333949953317642|0.09561396390199661|-0.05467149987816811|0.03236217796802521|-0.02059148624539375|0.0101008415222168|XArbitraryZVertical|-0.05545493474156959|0.02575661336101992|-0.8590787791588876|-0.5081783319904777|-0.1214582175016403|-0.01210807263851166|-0.9925227165222168|0|0|0|-1|-1|3
2021-03-05 00:23:38.554 +0000|235645.2905272917|-0.067901611328125|0.005126953125|-0.9799041748046875|235645.2705632917|2.072469102199211|-0.1198100003702226|0.007195825817669017|-0.2389019727706909|0.09917983412742615|-0.04105564579367638|0.03153833001852036|-0.02992884442210197|0.01575487852096558|XArbitraryZVertical|-0.05334632356718078|0.02741057926254714|-0.8588331735323734|-0.508732276577934|-0.119520477950573|-0.007195763755589724|-0.9928056597709656|0|0|0|-1|-1|3
2021-03-05 00:23:38.574 +0000|235645.3104902917|-0.06805419921875|-0.0085906982421875|-1.005233764648438|235645.2905272917|2.071022073866003|-0.1179752916187324|0.003538636219953348|-0.1825484931468964|0.06829196214675903|-0.05543937534093857|0.04500822722911835|0.001219319179654121|0.01771622896194458|XArbitraryZVertical|-0.05160807755794869|0.02855212128938682|-0.8585726033625781|-0.5092881728614725|-0.1177010759711266|-0.003538628807291389|-0.9930427670478821|0|0|0|-1|-1|3
2021-03-05 00:23:38.594 +0000|235645.3304542917|-0.1295318603515625|0.0078125|-0.9488677978515625|235645.3104902917|2.069432655915836|-0.1170849896948671|0.0001972125378886922|-0.1587428003549576|-0.05111166462302208|-0.08386471122503281|0.03701421618461609|0.001036470755934715|-0.01259917020797729|XArbitraryZVertical|-0.05035153847592499|0.02980003538233974|-0.8582417674761409|-0.5098998378762907|-0.1168176531791687|-0.0001972125319298357|-0.9931533336639404|0|0|0|-1|-1|3
2021-03-05 00:23:38.614 +0000|235645.3504182917|-0.1086883544921875|0.119049072265625|-0.9497222900390625|235645.3304542917|2.067973206269657|-0.1189119494569406|-0.004368151105361699|-0.3030043244361877|-0.1104246377944946|0.008377151563763618|-0.01456315815448761|0.02007646858692169|0.05573403835296631|XArbitraryZVertical|-0.04994799224234549|0.03226118258354973|-0.8578904299024075|-0.5103806988880897|-0.1186307817697525|0.00436813710257411|-0.9929288029670715|0|0|0|-1|-1|3
2021-03-05 00:23:38.634 +0000|235645.3703822917|-0.1049346923828125|0.0561981201171875|-1.009765625|235645.3504182917|2.067747104142797|-0.1206487428549845|-0.007838762357866994|-0.09916476905345917|-0.08756698668003082|-0.02477352321147919|-0.003716632723808289|0.0860029011964798|0.05605477094650269|XArbitraryZVertical|-0.04980301183815125|0.03419835612783698|-0.8578379925935952|-0.5103568477496618|-0.1203525587916374|0.007838682271540165|-0.9927002787590027|0|0|0|-1|-1|3
2021-03-05 00:23:38.669 +0000|235645.3903452917|-0.1598663330078125|0.01080322265625|-1.070159912109375|235645.3703822917|2.065935245207573|-0.1218549589539411|-0.006629839211731077|0.1034506410360336|-0.0795859768986702|-0.1645452678203583|0.02793829888105392|0.06765002012252808|0.002481281757354736|XArbitraryZVertical|-0.0505982816387168|0.03403363156502397|-0.8573281192382476|-0.5111456986555246|-0.1215509474277496|0.006629790645092726|-0.9925630688667297|0|0|0|-1|-1|3
2021-03-05 00:23:38.682 +0000|235645.4103092917|-0.152557373046875|-0.0021514892578125|-1.07366943359375|235645.4103092917|2.059508020482906|-0.1218508064654708|-0.002294511767662029|-0.01326685678213835|0.008613555692136288|-0.1398006826639175|-0.03680650144815445|-0.005575122311711311|-0.08110189437866211|XArbitraryZVertical|-0.05160146029910512|0.03234053472642424|-0.8556173484537686|-0.5140138968800583|-0.1215491741895676|0.002294509671628475|-0.9925827383995056|0|0|0|-1|-1|3
2021-03-05 00:23:38.694 +0000|235645.4302732917|-0.142547607421875|0.0029144287109375|-1.05047607421875||||||||||||||||||||||||3
2021-03-05 00:23:38.714 +0000|235645.4502372917|-0.1174163818359375|0.012603759765625|-1.00787353515625|235645.4302732917|2.057018861695775|-0.1216570015244289|-0.004349975807382177|-0.1063186079263687|0.02689184062182903|-0.09841232001781464|-0.01855182647705078|-0.0029919040389359|-0.06713861227035522|XArbitraryZVertical|-0.05094880264774363|0.03323342069774497|-0.8550127420406085|-0.5150271596210781|-0.1213559806346893|0.004349961876869202|-0.9925995469093323|0|0|0|-1|-1|3
2021-03-05 00:23:38.734 +0000|235645.4702002917|-0.09881591796875|0.0262451171875|-0.9892578125|235645.4502372917|2.055145592812789|-0.1208231661816354|-0.008723426481472361|-0.150009348988533|0.04558110982179642|-0.06242129951715469|-0.01125004887580872|-0.001139670610427856|-0.02484512329101562|XArbitraryZVertical|-0.04943275493053987|0.03493435816490016|-0.854613310968378|-0.5157250412700746|-0.1205248236656189|0.00872331578284502|-0.9926719665527344|0|0|0|-1|-1|3
2021-03-05 00:23:38.754 +0000|235645.4901642917|-0.0994110107421875|0.02850341796875|-0.9941558837890625|235645.4702002917|2.053791643229052|-0.1201054734957555|-0.01176831700327895|-0.1075635328888893|0.03556144237518311|-0.04454642534255981|0.02053496241569519|0.01142534241080284|0.002721786499023438|XArbitraryZVertical|-0.04831574805983155|0.03608268184376102|-0.8543222375066624|-0.5162336465109205|-0.1198086217045784|0.0117680449038744|-0.9927272796630859|0|0|0|-1|-1|3
2021-03-05 00:23:38.774 +0000|235645.5101282917|-0.0955352783203125|0.023529052734375|-1.006484985351562|235645.4901642917|2.052736284930613|-0.119824097267505|-0.01262250208897669|-0.04969875141978264|0.02799843810498714|-0.04676004499197006|0.01932360231876373|0.01566765457391739|0.0009292960166931152|XArbitraryZVertical|-0.04795560661640697|0.0364000825872182|-0.8540675375530808|-0.5166662919533938|-0.1195280477404594|0.01262216735631227|-0.9927505850791931|0|0|0|-1|-1|3
2021-03-05 00:23:38.794 +0000|235645.5300922917|-0.0946197509765625|0.021148681640625|-1.002792358398438|235645.5101282917|2.051719066982181|-0.1195022182761126|-0.01270040574532476|-0.009158498607575893|0.01351973600685596|-0.04462907463312149|0.02080446481704712|0.0125074815005064|-0.01119452714920044|XArbitraryZVertical|-0.04777950748473215|0.03637448850999486|-0.8538133483264645|-0.5171043606337218|-0.1192083731293678|0.01270006410777569|-0.9927880167961121|0|0|0|-1|-1|3
2021-03-05 00:23:38.814 +0000|235645.5500552917|-0.10223388671875|0.0089111328125|-0.9968414306640625|235645.5300922917|2.050852127732059|-0.1196275914382687|-0.01210053902036615|0.02827524393796921|-0.01566286385059357|-0.04296672716736794|0.02445461601018906|0.01016235444694757|-0.01004236936569214|XArbitraryZVertical|-0.04797264522458867|0.03617173213978068|-0.8535784031902556|-0.5174884016261199|-0.1193337291479111|0.01210024394094944|-0.9927804470062256|0|0|0|-1|-1|3
2021-03-05 00:23:38.834 +0000|235645.5700192917|-0.114288330078125|-0.00543212890625|-0.9951324462890625|235645.5500552917|2.050235242563395|-0.1199762871412011|-0.01167005382008221|0.03747871145606041|-0.03341735899448395|-0.02862232178449631|0.01921667903661728|0.0016969358548522|-0.004097521305084229|XArbitraryZVertical|-0.04822184858361036|0.03609318565071112|-0.853404774541595|-0.5177570588990983|-0.1196805164217949|0.01166978850960732|-0.9927438497543335|0|0|0|-1|-1|3
2021-03-05 00:23:38.854 +0000|235645.5899832917|-0.1152801513671875|-0.0024871826171875|-0.991790771484375|235645.5899832917|2.049581894283825|-0.1208277009199953|-0.01195760991235175|0.002537139225751162|-0.02070465311408043|-0.01505955308675766|0.00675579160451889|-0.01593984290957451|0.0007253885269165039|XArbitraryZVertical|-0.04849871668594802|0.0364520848565144|-0.8532187510520369|-0.5180124661719958|-0.1205253005027771|0.0119573250412941|-0.9926382303237915|0|0|0|-1|-1|3
2021-03-05 00:23:38.874 +0000|235645.6099462917|-0.117767333984375|0.0125579833984375|-0.995269775390625||||||||||||||||||||||||3
2021-03-05 00:23:38.894 +0000|235645.6299102917|-0.118316650390625|0.0184478759765625|-1.00128173828125|235645.6099462917|2.049287123605454|-0.120753918150427|-0.01230010925211285|0.01401305012404919|-0.003641407005488873|-0.0189207810908556|0.003309860825538635|-0.00346493162214756|-0.001253485679626465|XArbitraryZVertical|-0.04837303200121881|0.03658615358329583|-0.8531486664068134|-0.5181301967398881|-0.1204515546560287|0.01229979936033487|-0.9926429986953735|0|0|0|-1|-1|3
2021-03-05 00:23:38.914 +0000|235645.649875375|-0.1245574951171875|0.01605224609375|-1.001434326171875|235645.6299102917|2.048840977188874|-0.1202964368311265|-0.01209150964979546|0.02746625803411007|0.01132870092988014|-0.02778413519263268|0.002611897885799408|0.00806567445397377|-0.007314741611480713|XArbitraryZVertical|-0.04822387594052362|0.03638944869501079|-0.8530413702871704|-0.5183344802722615|-0.1199977323412895|0.01209121476858854|-0.9927005171775818|0|0|0|-1|-1|3
2021-03-05 00:23:38.933 +0000|235645.669839375|-0.1244964599609375|0.0136871337890625|-0.9945526123046875|235645.649875375|2.04828764551668|-0.1198114929680717|-0.01113334595064459|0.02417144551873207|0.02762799337506294|-0.03172126784920692|-0.003574974834918976|0.008581263944506645|-0.00814586877822876|XArbitraryZVertical|-0.04825572764652187|0.03586861251173772|-0.8528970906248488|-0.5186053241755917|-0.1195176467299461|0.01113311573863029|-0.9927696585655212|0|0|0|-1|-1|3
2021-03-05 00:23:38.954 +0000|235645.689802375|-0.1186676025390625|0.0165557861328125|-0.9851226806640625|235645.669839375|2.047712783592722|-0.1191505876225778|-0.01029833430104997|0.0111106876283884|0.03610802814364433|-0.02948900498449802|-0.004291102290153503|-0.002119416370987892|-0.00480806827545166|XArbitraryZVertical|-0.0481804841649315|0.03535513039895466|-0.8527528500011958|-0.5188846170515106|-0.1188625544309616|0.01029815245419741|-0.9928573369979858|0|0|0|-1|-1|3
2021-03-05 00:23:38.974 +0000|235645.709766375|-0.1165008544921875|0.0169525146484375|-0.9808349609375|235645.689802375|2.047182704040301|-0.1183507176320304|-0.009866019721429049|0.01462993863970041|0.03834844008088112|-0.03008759394288063|-0.004977978765964508|0.006827281787991524|0.005575418472290039|XArbitraryZVertical|-0.04794243974303207|0.03497605025893304|-0.8526287776863802|-0.5191362242174483|-0.1180688738822937|0.009865859523415565|-0.9929563999176025|0|0|0|-1|-1|3
2021-03-05 00:23:38.993 +0000|235645.729730375|-0.1243133544921875|0.0201873779296875|-0.98651123046875|235645.709766375|2.046606119500862|-0.1176881150209051|-0.009658853995399268|0.01784162782132626|0.02867466956377029|-0.03382862731814384|0.0007272213697433472|0.008224623277783394|0.01287281513214111|XArbitraryZVertical|-0.04770377175515412|0.03472952403496952|-0.8524921925592197|-0.5193991014496347|-0.1174111515283585|0.009658703580498695|-0.9930364489555359|0|0|0|-1|-1|3
2021-03-05 00:23:39.014 +0000|235645.749694375|-0.1242218017578125|0.0238800048828125|-0.9852752685546875|235645.729730375|2.045961437962691|-0.1171076354425321|-0.009476834927192508|0.01466688886284828|0.03128025308251381|-0.03493250533938408|-0.006334014236927032|0.01023768913000822|0.007281601428985596|XArbitraryZVertical|-0.04749253435434797|0.03451652331435438|-0.8523361261424488|-0.519688695661619|-0.1168349012732506|0.009476693347096443|-0.9931061267852783|0|0|0|-1|-1|3
2021-03-05 00:23:39.034 +0000|235645.769657375|-0.11865234375|0.0141448974609375|-0.9730377197265625|235645.749694375|2.045269484396647|-0.1166442821251017|-0.009180792318218214|0.008528951555490494|0.02876143157482147|-0.03669436275959015|-0.007953539490699768|0.01907864212989807|0.006651699542999268|XArbitraryZVertical|-0.04736020082822841|0.03428638714254501|-0.8521633538719892|-0.5199992938071549|-0.1163750514388084|0.009180663153529167|-0.9931629300117493|0|0|0|-1|-1|3
2021-03-05 00:23:39.053 +0000|235645.789621375|-0.1157073974609375|0.00885009765625|-0.9683837890625|235645.769657375|2.044553089353462|-0.1161811245131048|-0.009259436082397333|-0.007975272834300995|0.02288026735186577|-0.03475753590464592|-0.004659965634346008|0.00570959597826004|0.01862186193466187|XArbitraryZVertical|-0.04713014104968909|0.03421634733965859|-0.85198899830645|-0.5203103378104053|-0.1159149631857872|0.009259304031729698|-0.9932159781455994|0|0|0|-1|-1|3
2021-03-05 00:23:39.073 +0000|235645.809585375|-0.112579345703125|0.0170440673828125|-0.971710205078125|235645.789621375|2.043902160095057|-0.1159047087828371|-0.009630443746091325|-0.02217526361346245|0.007421204820275307|-0.02871508710086346|0.0003141090273857117|-0.003267351537942886|0.02457082271575928|XArbitraryZVertical|-0.04690461792267392|0.03431769942983728|-0.8518309650005966|-0.5205826773908093|-0.1156400144100189|0.009630294516682625|-0.9932445287704468|0|0|0|-1|-1|3
2021-03-05 00:23:39.094 +0000|235645.829549375|-0.1117401123046875|0.0195770263671875|-0.9786224365234375|235645.809585375|2.043203528997561|-0.1158899744736814|-0.01025458621002047|-0.02212349884212017|-0.002005267422646284|-0.03795590251684189|0.003182664513587952|0.005294328555464745|0.02441376447677612|XArbitraryZVertical|-0.04672365186649027|0.03459592705767532|-0.8516575172652187|-0.5208642117890333|-0.1156246587634087|0.01025440637022257|-0.9932400584220886|0|0|0|-1|-1|3
2021-03-05 00:23:39.114 +0000|235645.849512375|-0.1161346435546875|0.0085296630859375|-0.9850616455078125|235645.829549375|2.042337748285418|-0.1161097269932795|-0.01089965125470244|-0.01783694140613079|-0.01007816009223461|-0.04505029693245888|0.005048103630542755|0.01096643600612879|0.01592820882797241|XArbitraryZVertical|-0.0466339357069241|0.03494793242540485|-0.8514351872029901|-0.521212316722947|-0.1158421337604523|0.01089943572878838|-0.9932078123092651|0|0|0|-1|-1|3
2021-03-05 00:23:39.134 +0000|235645.869476375|-0.1183929443359375|0.022491455078125|-0.9867401123046875|235645.849512375|2.041348348458171|-0.1164493805153094|-0.01151427173609454|-0.03083396516740322|-0.01585322432219982|-0.04607588052749634|0.001661486923694611|-0.002846997231245041|0.009595274925231934|XArbitraryZVertical|-0.04660072903250245|0.03532105370662731|-0.8511771655153136|-0.5216112757207177|-0.1161786690354347|0.01151401735842228|-0.9931616187095642|0|0|0|-1|-1|3
2021-03-05 00:23:39.173 +0000|235645.889440375|-0.1202392578125|0.0183563232421875|-0.9910888671875|235645.869476375|2.040301015030084|-0.1168181643380489|-0.01195305136436081|-0.03038850240409374|-0.0159356240183115|-0.04878973215818405|0.0002113431692123413|0.009165426716208458|0.008769094944000244|XArbitraryZVertical|-0.04662446822575313|0.03562831412175797|-0.8509008886483286|-0.5220387857862465|-0.1165443286299706|0.01195276714861393|-0.9931135773658752|0|0|0|-1|-1|3
2021-03-05 00:23:39.189 +0000|235645.909404375|-0.1198883056640625|0.0236663818359375|-0.9962615966796875|235645.889440375|2.039248588429531|-0.1170427595692992|-0.01247921036589853|-0.03184067457914352|-0.004613354336470366|-0.05202493816614151|-0.005135819315910339|0.005999533459544182|0.002449870109558105|XArbitraryZVertical|-0.04656362287355884|0.03593520078141971|-0.8506275245450461|-0.5224685312019424|-0.1167666241526604|0.01247888617217541|-0.9930809736251831|0|0|0|-1|-1|3
2021-03-05 00:23:39.193 +0000|235645.929367375|-0.118865966796875|0.02398681640625|-0.9984893798828125|235645.909404375|2.038196708675882|-0.1171582664058468|-0.01320889254015374|-0.03233397752046585|-0.00468893488869071|-0.04752011224627495|-0.004091426730155945|0.01001539453864098|-0.002272605895996094|XArbitraryZVertical|-0.0464028122106397|0.03629998637284802|-0.8503591565493608|-0.5228944199436405|-0.1168802306056023|0.01320850849151611|-0.9930582046508789|0|0|0|-1|-1|3
2021-03-05 00:23:39.213 +0000|235645.949331375|-0.126678466796875|0.0160675048828125|-1.002914428710938|235645.929367375|2.037138490354146|-0.1172299807791793|-0.01368149035914324|-0.0274752713739872|-0.001638443674892187|-0.04858546704053879|-0.0007250458002090454|0.01125182397663593|-0.003248631954193115|XArbitraryZVertical|-0.04629025810426659|0.03654407525615312|-0.8500866178058348|-0.5233303627575635|-0.1169507056474686|0.01368106342852116|-0.9930434823036194|0|0|0|-1|-1|3
2021-03-05 00:23:39.234 +0000|235645.969295375|-0.1211395263671875|0.011932373046875|-1.00244140625|235645.949331375|2.036177595377686|-0.1172245688850268|-0.0142652048104423|-0.03958791121840477|0.00956632848829031|-0.04246987029910088|-0.007658869028091431|0.007006056606769562|-0.01048874855041504|XArbitraryZVertical|-0.0461173435199024|0.03681279966432022|-0.8498424262471661|-0.5237231080969622|-0.1169443801045418|0.01426472142338753|-0.9930360317230225|0|0|0|-1|-1|3
2021-03-05 00:23:39.253 +0000|235645.989258375|-0.1169891357421875|0.0240478515625|-0.9997100830078125|235645.969295375|2.035206434647275|-0.1169504375013908|-0.01520311108786008|-0.0494474470615387|0.02079533413052559|-0.04441895335912704|-0.007307097315788269|-0.006184551864862442|-0.009890615940093994|XArbitraryZVertical|-0.04573687475155364|0.03716155822025639|-0.8496058056256626|-0.5241156730390134|-0.1166705414652824|0.01520252507179976|-0.9930543303489685|0|0|0|-1|-1|3
2021-03-05 00:23:39.273 +0000|235646.009222375|-0.117706298828125|0.017242431640625|-1.003997802734375|235645.989258375|2.034198901420049|-0.1165355407535074|-0.01609379841166584|-0.03633063286542892|0.02803945168852806|-0.04555780813097954|-0.002700597047805786|0.009129701182246208|-0.006667017936706543|XArbitraryZVertical|-0.04530800538859265|0.03745381987350428|-0.8493618188144264|-0.5245274544054959|-0.1162568926811218|0.01609310321509838|-0.9930887818336487|0|0|0|-1|-1|3
2021-03-05 00:23:39.293 +0000|235646.029186375|-0.1182403564453125|0.014404296875|-1.00555419921875|235646.009222375|2.033154777020268|-0.1159846171442633|-0.01676959818366807|-0.02857687138020992|0.03128024935722351|-0.04987620934844017|1.102685928344727e-06|0.002777725458145142|-0.01047468185424805|XArbitraryZVertical|-0.04487689200981496|0.03761960038421346|-0.8491082573211405|-0.5249629857516037|-0.1157084777951241|0.01676881313323975|-0.9931416511535645|0|0|0|-1|-1|3
2021-03-05 00:23:39.313 +0000|235646.049150375|-0.1092681884765625|0.007965087890625|-0.9945068359375|235646.029186375|2.03211056357071|-0.1154142919726072|-0.01736581218055355|-0.02955260314047337|0.0347905121743679|-0.04708006978034973|-0.004488013684749603|-0.001022746786475182|-0.01308923959732056|XArbitraryZVertical|-0.04445830933705268|0.03774609168177284|-0.8488537093794112|-0.5254010017364362|-0.1151408702135086|0.01736493967473507|-0.9931973814964294|0|0|0|-1|-1|3
2021-03-05 00:23:39.333 +0000|235646.069113375|-0.1090850830078125|0.0116424560546875|-0.985260009765625|235646.049150375|2.031177400428278|-0.1148004718897643|-0.01768415535674508|-0.03454731032252312|0.03007266856729984|-0.04026362299919128|0.002820998430252075|-0.009779151529073715|-0.002816140651702881|XArbitraryZVertical|-0.04409642151633387|0.03774044914555895|-0.8486256730274936|-0.5257999727985017|-0.1145305633544922|0.0176832340657711|-0.9932623505592346|0|0|0|-1|-1|3
2021-03-05 00:23:39.353 +0000|235646.089077375|-0.1110076904296875|0.0196685791015625|-0.9874725341796875|235646.069113375|2.030282790597242|-0.1143012302311426|-0.01833984512834355|-0.03108538500964642|0.02212792634963989|-0.0424969494342804|0.004337914288043976|-0.006055464968085289|0.006964266300201416|XArbitraryZVertical|-0.04369496833817595|0.03790679067587314|-0.8484087353619141|-0.5261714263904145|-0.1140333265066147|0.01833881624042988|-0.9933076500892639|0|0|0|-1|-1|3
2021-03-05 00:23:39.373 +0000|235646.109041375|-0.116607666015625|0.01806640625|-0.99176025390625|235646.089077375|2.029310967136471|-0.1139925865973372|-0.01873747730970811|-0.01903519779443741|0.01507097482681274|-0.0506066270172596|0.004396706819534302|-0.0002427008002996445|0.004764318466186523|XArbitraryZVertical|-0.04344078016976967|0.03801527174972406|-0.8481641228197458|-0.5265789214649969|-0.1137259006500244|0.01873638108372688|-0.993335485458374|0|0|0|-1|-1|3
2021-03-05 00:23:39.393 +0000|235646.129005375|-0.1103973388671875|0.00445556640625|-0.9828948974609375|235646.109041375|2.028206536129017|-0.1137855523015983|-0.01869235057915701|-0.005541409831494093|0.01204333361238241|-0.0557861216366291|-0.003880761563777924|-0.0004417207092046738|0.0003483891487121582|XArbitraryZVertical|-0.0433439217517666|0.03796557774517684|-0.8478772093926833|-0.5270523790724801|-0.1135203465819359|0.01869126223027706|-0.9933598637580872|0|0|0|-1|-1|3
2021-03-05 00:23:39.413 +0000|235646.148968375|-0.11285400390625|-0.0044097900390625|-0.9769134521484375|235646.129005375|2.027007853568797|-0.113615494952869|-0.01846393915504222|-0.01130668725818396|0.008707671426236629|-0.0633164718747139|0.003671742975711823|-0.01042147912085056|0.007589280605316162|XArbitraryZVertical|-0.04330944959603544|0.03784995787827031|-0.8475623044542516|-0.5275696806454722|-0.11335189640522|0.01846289075911045|-0.9933833479881287|0|0|0|-1|-1|3
2021-03-05 00:23:39.433 +0000|235646.168932375|-0.113616943359375|0.024169921875|-0.9772491455078125|235646.148968375|2.025666704360007|-0.1134635936060892|-0.0186307532484639|-0.03698207065463066|0.007921664975583553|-0.06502427160739899|0.0003771856427192688|-0.02323780208826065|0.01520228385925293|XArbitraryZVertical|-0.04317557946791803|0.03790949621768917|-0.8472135125881599|-0.528136506810376|-0.1132006496191025|0.01862967573106289|-0.9933974742889404|0|0|0|-1|-1|3
2021-03-05 00:23:39.453 +0000|235646.188896375|-0.1069488525390625|0.0239105224609375|-0.979583740234375|235646.168932375|2.024208765138015|-0.113381373357741|-0.01913055636609248|-0.03704048320651054|0.002743414603173733|-0.07247553020715714|6.555765867233276e-05|-0.003626430407166481|0.01596516370773315|XArbitraryZVertical|-0.04298075995362842|0.03813070574029983|-0.8468355638877603|-0.5287422319897432|-0.113117903470993|0.01912938989698887|-0.9933974146842957|0|0|0|-1|-1|3
2021-03-05 00:23:39.472 +0000|235646.208860375|-0.1143646240234375|0.0213775634765625|-0.9833831787109375|235646.188896375|2.022583059355776|-0.113322246369733|-0.01951533485146712|-0.02449099905788898|0.002947253175079823|-0.08550797402858734|0.002737298607826233|0.008607879281044006|0.01337045431137085|XArbitraryZVertical|-0.04282269804334157|0.03831270652864319|-0.8464109540552831|-0.5294212520201635|-0.1130583211779594|0.01951409690082073|-0.9933966994285583|0|0|0|-1|-1|3
2021-03-05 00:23:39.493 +0000|235646.228823375|-0.11383056640625|0.02520751953125|-0.985504150390625|235646.208860375|2.020760764187667|-0.1133116695202759|-0.01968840084758606|-0.03908593580126762|0.004382483661174774|-0.08824250847101212|-0.0009204372763633728|0.0001645833253860474|0.009248435497283936|XArbitraryZVertical|-0.04273733152941153|0.03842205431357044|-0.8459303657593722|-0.5301879457937706|-0.1130474358797073|0.01968712918460369|-0.9933945536613464|0|0|0|-1|-1|3
2021-03-05 00:23:39.513 +0000|235646.248787375|-0.1107025146484375|0.02801513671875|-0.986328125|235646.228823375|2.018889100955177|-0.1132322596285932|-0.01993559458639197|-0.04877912998199463|0.006874670274555683|-0.08957675844430923|-0.0005421116948127747|0.003518512472510338|0.006353378295898438|XArbitraryZVertical|-0.04260204564205173|0.03854536946878574|-0.8454382030017866|-0.5309742876743272|-0.1129679903388023|0.0199342742562294|-0.9933986663818359|0|0|0|-1|-1|3
2021-03-05 00:23:39.532 +0000|235646.268751375|-0.1153717041015625|0.031097412109375|-0.9940338134765625|235646.248787375|2.01697546913508|-0.1130412909447526|-0.02050738518632977|-0.05482310429215431|0.01607195101678371|-0.09170088917016983|0.002135530114173889|0.006319029256701469|0.008896410465240479|XArbitraryZVertical|-0.04233216488993463|0.03877672639989063|-0.8449399680217501|-0.5317713402523355|-0.112776979804039|0.02050594799220562|-0.9934086799621582|0|0|0|-1|-1|3
2021-03-05 00:23:39.552 +0000|235646.288714375|-0.105712890625|0.026824951171875|-0.9904937744140625|235646.268751375|2.015052298996251|-0.112704668647714|-0.02162765165289321|-0.06017261371016502|0.02706712856888771|-0.08974053710699081|-0.002535037696361542|0.007197916507720947|0.001006782054901123|XArbitraryZVertical|-0.04185385438615307|0.0392004188872437|-0.8444472114694226|-0.5325603086246908|-0.1124399155378342|0.02162596583366394|-0.9934231638908386|0|0|0|-1|-1|3
2021-03-05 00:23:39.572 +0000|235646.308678375|-0.1017913818359375|0.0326080322265625|-0.983306884765625|235646.288714375|2.013181879883392|-0.1121183673741042|-0.02274349522404145|-0.06936635822057724|0.03031650558114052|-0.08682987838983536|0.001915134489536285|0.005655102431774139|0.0009716153144836426|XArbitraryZVertical|-0.04127161414019447|0.03955368684557967|-0.8439725211487549|-0.5333316372475569|-0.1118546798825264|0.02274153381586075|-0.9934642910957336|0|0|0|-1|-1|3
2021-03-05 00:23:39.592 +0000|235646.328642375|-0.1006927490234375|0.03680419921875|-0.985565185546875|235646.308678375|2.011325410070055|-0.1115808330445619|-0.0240296411948495|-0.07826516777276993|0.03142214566469193|-0.08173276484012604|0.009648017585277557|0.009404705837368965|0.00951617956161499|XArbitraryZVertical|-0.04066400261581878|0.03999040509596302|-0.8435010115668431|-0.5340911222979936|-0.1113172918558121|0.02402732893824577|-0.9934943914413452|0|0|0|-1|-1|3
2021-03-05 00:23:39.612 +0000|235646.348606375|-0.108154296875|0.03338623046875|-0.991485595703125|235646.328642375|2.0096094695127|-0.1110110000079224|-0.02542868127476073|-0.07386665046215057|0.0333712063729763|-0.07693827897310257|0.01046658307313919|0.01040172390639782|0.009819686412811279|XArbitraryZVertical|-0.04001456122668873|0.04046212306396788|-0.8430675241854371|-0.5347886068726395|-0.1107473224401474|0.02542594075202942|-0.9935232996940613|0|0|0|-1|-1|3
2021-03-05 00:23:39.632 +0000|235646.368569375|-0.1140899658203125|0.0296478271484375|-0.9963531494140625|235646.348606375|2.007954073027577|-0.1104058623215028|-0.02685124366683837|-0.07935989648103714|0.03881726041436195|-0.07606706768274307|0.005909226834774017|0.008537141606211662|0.001823484897613525|XArbitraryZVertical|-0.0393443625052888|0.04093201144390839|-0.8426498858897741|-0.5354603513093142|-0.1101419851183891|0.02684801630675793|-0.9935531616210938|0|0|0|-1|-1|3
2021-03-05 00:23:39.652 +0000|235646.388533375|-0.1129150390625|0.0304107666015625|-0.99761962890625|235646.368569375|2.006315536605849|-0.1095761766965021|-0.02855410584762039|-0.1009217724204063|0.05085666850209236|-0.07114776968955994|-0.002183496952056885|0.002623507753014565|-0.0006043314933776855|XArbitraryZVertical|-0.03850384547401466|0.0414582198742826|-0.8422422975596575|-0.5361218653386184|-0.1093124523758888|0.02855022624135017|-0.9935973286628723|0|0|0|-1|-1|3
2021-03-05 00:23:39.685 +0000|235646.408497375|-0.1056671142578125|0.0488128662109375|-0.9941558837890625|235646.388533375|2.004679734954431|-0.1083651905527787|-0.03060731970475337|-0.1142083331942558|0.06937938183546066|-0.07278721034526825|-0.006857126951217651|-0.002617893740534782|-0.001463830471038818|XArbitraryZVertical|-0.03740773351918737|0.04202800424777074|-0.8418438117739233|-0.5367805765211091|-0.1081025674939156|0.03060254082083702|-0.9936686158180237|0|0|0|-1|-1|3
2021-03-05 00:23:39.692 +0000|235646.428461375|-0.102996826171875|0.0359649658203125|-0.991485595703125|235646.408497375|2.00284216754342|-0.106919089305277|-0.03245611990738153|-0.07842662930488586|0.08012017607688904|-0.08819785714149475|-0.00071677565574646|0.01436357200145721|-0.001809000968933105|XArbitraryZVertical|-0.03626252237051857|0.04245060255948867|-0.8413914425647956|-0.5375346625916082|-0.1066592931747437|0.03245042264461517|-0.9937659502029419|0|0|0|-1|-1|3
2021-03-05 00:23:39.713 +0000|235646.448424375|-0.0987396240234375|0.0276641845703125|-0.9936065673828125|235646.428461375|2.000815157495548|-0.1052213213831256|-0.03362547040965064|-0.05798957124352455|0.09353009611368179|-0.0991961807012558|3.322958946228027e-05|0.006313145160675049|0.0008347034454345703|XArbitraryZVertical|-0.03519003931543201|0.04252138353950535|-0.8408851322003768|-0.5383918996912205|-0.104967899620533|0.03361913561820984|-0.9939072132110596|0|0|0|-1|-1|3
2021-03-05 00:23:39.732 +0000|235646.468388375|-0.0912322998046875|0.0298309326171875|-0.9941558837890625|235646.448424375|1.998728007582756|-0.1036207816175992|-0.03442018765391794|-0.05066384747624397|0.08318409323692322|-0.09964244067668915|0.004390433430671692|-0.00679495558142662|0.0006083250045776367|XArbitraryZVertical|-0.03425827168698065|0.04246005295312875|-0.8403561126707308|-0.5392820005200393|-0.103374183177948|0.03441338986158371|-0.9940470457077026|0|0|0|-1|-1|3
2021-03-05 00:23:39.752 +0000|235646.488352375|-0.0982666015625|0.0399322509765625|-0.9954833984375|235646.468388375|1.996634207514867|-0.1022466563370054|-0.03503244407899773|-0.05605630204081535|0.06776614487171173|-0.1004537269473076|0.008729018270969391|-0.007223736494779587|-0.001346886157989502|XArbitraryZVertical|-0.03347097994326644|0.04238155667698885|-0.8398184111171002|-0.5401745698008686|-0.1020059660077095|0.03502527996897697|-0.9941669702529907|0|0|0|-1|-1|3
2021-03-05 00:23:39.772 +0000|235646.508316375|-0.10406494140625|0.04278564453125|-0.9983978271484375|235646.488352375|1.994561982155588|-0.1012655966603874|-0.03608282571966272|-0.0505770780146122|0.05244343355298042|-0.09479247033596039|0.006895363330841064|0.0005613863468170166|-0.001421809196472168|XArbitraryZVertical|-0.03273041855666438|0.04259107887015469|-0.8392811472179248|-0.5410377287836675|-0.1010268107056618|0.03607499599456787|-0.9942294359207153|0|0|0|-1|-1|3
2021-03-05 00:23:39.792 +0000|235646.528279375|-0.09967041015625|0.0449066162109375|-0.99407958984375|235646.508316375|1.992575208400349|-0.1003936515973469|-0.03704379881192034|-0.04186141490936279|0.04873316735029221|-0.09376040101051331|-0.004183240234851837|0.007489848881959915|-0.003963053226470947|XArbitraryZVertical|-0.03206131349519969|0.04278986037784718|-0.8387631928230559|-0.5418647713296995|-0.1001563370227814|0.03703532740473747|-0.9942821860313416|0|0|0|-1|-1|3
2021-03-05 00:23:39.812 +0000|235646.548243375|-0.09686279296875|0.046173095703125|-0.9935302734375|235646.528279375|1.990782750047519|-0.09951571570507037|-0.0374945116505136|-0.03171958401799202|0.04238744452595711|-0.08050265163183212|-0.0009227320551872253|0.006780050694942474|-0.0002605915069580078|XArbitraryZVertical|-0.03153233420177075|0.04276906917923502|-0.8382937848399671|-0.5426233666965917|-0.09928171336650848|0.03748572617769241|-0.9943530559539795|0|0|0|-1|-1|3
2021-03-05 00:23:39.832 +0000|235646.568207375|-0.095062255859375|0.0428009033203125|-0.9937896728515625|235646.548243375|1.989200269221259|-0.09877537583007293|-0.03773310838502675|-0.02944987080991268|0.03660140559077263|-0.07683929800987244|-0.0003475397825241089|0.01243151351809502|0.0005208849906921387|XArbitraryZVertical|-0.03112332681695686|0.04269273036440609|-0.8378771193257549|-0.5432961751169666|-0.098544642329216|0.03772415593266487|-0.9944173097610474|0|0|0|-1|-1|3
2021-03-05 00:23:39.852 +0000|235646.588170375|-0.0951385498046875|0.0340576171875|-0.9918212890625|235646.568207375|1.98762390453376|-0.09819314196379036|-0.03796034344943024|-0.02721709385514259|0.02683058753609657|-0.07327784597873688|0.002978861331939697|0.005261693149805069|-0.0006511807441711426|XArbitraryZVertical|-0.03078389166979275|0.04265392645008363|-0.8374588902565638|-0.5439629401652062|-0.09796480089426041|0.03795122727751732|-0.9944660067558289|0|0|0|-1|-1|3
2021-03-05 00:23:39.872 +0000|235646.608134375|-0.094085693359375|0.0327301025390625|-0.982391357421875|235646.588170375|1.986150498716605|-0.09778318717966725|-0.03868971922533578|-0.04778282344341278|0.01969161257147789|-0.06572175025939941|0.0007526427507400513|-0.001997910439968109|0.001573562622070312|XArbitraryZVertical|-0.03038170426272142|0.04286986010970179|-0.837068112552654|-0.5445698165054418|-0.09755437821149826|0.0386800691485405|-0.9944782257080078|0|0|0|-1|-1|3
2021-03-05 00:23:39.892 +0000|235646.628098375|-0.0908660888671875|0.0459747314453125|-0.9750823974609375|235646.608134375|1.984761509239796|-0.09761275513578366|-0.03992443961256738|-0.07419773936271667|0.003432375378906727|-0.06052068993449211|0.003599666059017181|-0.01015916466712952|0.00895768404006958|XArbitraryZVertical|-0.02994309392313078|0.04336039085280364|-0.8366985726211891|-0.545122695538989|-0.09738015383481979|0.0399138331413269|-0.9944465756416321|0|0|0|-1|-1|3
2021-03-05 00:23:39.912 +0000|235646.64806225|-0.09027099609375|0.0459136962890625|-0.9707794189453125|235646.628098375|1.983369271920771|-0.09774533481664022|-0.04134886474884219|-0.05997733771800995|-0.01129980571568012|-0.06892544031143188|0.00651821494102478|0.002440415322780609|0.01926314830780029|XArbitraryZVertical|-0.02957851359252484|0.04401226249524719|-0.8363238688328669|-0.5456651496603682|-0.09750635176897049|0.04133708402514458|-0.9943760633468628|0|0|0|-1|-1|3
2021-03-05 00:23:39.932 +0000|235646.66802525|-0.0842132568359375|0.0308685302734375|-0.96954345703125|235646.64806225|1.981725215346029|-0.09807269679891062|-0.04228992299660947|-0.04073460400104523|-0.01649201102554798|-0.08428593724966049|0.006824620068073273|0.00739007443189621|0.02280837297439575|XArbitraryZVertical|-0.02942126829008185|0.04451876269086538|-0.8358746040933669|-0.5463205616850277|-0.09782801568508148|0.04227731749415398|-0.9943049550056458|0|0|0|-1|-1|3
2021-03-05 00:23:39.952 +0000|235646.68798925|-0.0807952880859375|0.0184173583984375|-0.9820404052734375|235646.66802525|1.979891739913489|-0.0985620442094335|-0.04279007419874183|-0.03185135871171951|-0.02879650890827179|-0.08774635940790176|0.01295483857393265|-0.008231092244386673|0.0235784649848938|XArbitraryZVertical|-0.02944758821184021|0.04488818887559808|-0.8353685335211598|-0.5470625206576115|-0.09831246733665466|0.04277701675891876|-0.9942357540130615|0|0|0|-1|-1|3
2021-03-05 00:23:39.972 +0000|235646.70795325|-0.09954833984375|0.0374755859375|-0.9859771728515625|235646.68798925|1.977863194553745|-0.09923128362830835|-0.04338301952433446|-0.05385055392980576|-0.0463164895772934|-0.09676142781972885|0.01599803566932678|-0.02000818029046059|0.01752084493637085|XArbitraryZVertical|-0.02951842881861805|0.04534852206487303|-0.8348060796238784|-0.5478786094782611|-0.09897530078887939|0.04336941242218018|-0.9941443204879761|0|0|0|-1|-1|3
2021-03-05 00:23:39.992 +0000|235646.72791725|-0.1063385009765625|0.0413970947265625|-0.9864349365234375|235646.70795325|1.97579491814981|-0.1002846742303231|-0.04438974909987293|-0.06859757751226425|-0.05359719693660736|-0.09325750917196274|0.00257544219493866|-0.007525168359279633|0.01122277975082397|XArbitraryZVertical|-0.02963377553672496|0.0460873467233096|-0.8342281058692197|-0.5486905863363665|-0.1000180467963219|0.04437517374753952|-0.9939956068992615|0|0|0|-1|-1|3
2021-03-05 00:23:40.011 +0000|235646.74788025|-0.110992431640625|0.0442352294921875|-0.9868316650390625|235646.72791725|1.973768073707349|-0.1014383843173676|-0.04567646799433152|-0.05801071226596832|-0.05700391158461571|-0.09585648775100708|-0.00220412015914917|-0.005758825689554214|0.006715595722198486|XArbitraryZVertical|-0.02971321358327935|0.04696988157098868|-0.8336603127383401|-0.5494738115171092|-0.101158894598484|0.0456605851650238|-0.993821918964386|0|0|0|-1|-1|3
2021-03-05 00:23:40.031 +0000|235646.76784425|-0.1049041748046875|0.0367431640625|-0.9897308349609375|235646.74788025|1.971712491948014|-0.1023955257736944|-0.04639160034823429|-0.05652276799082756|-0.04183188080787659|-0.10157261043787|-0.0104115754365921|2.70456075668335e-05|0.009103298187255859|XArbitraryZVertical|-0.02986614560720978|0.04756117978420315|-0.8330840778295079|-0.5502879750940857|-0.1021067127585411|0.04637496173381805|-0.9936919212341309|0|0|0|-1|-1|3
2021-03-05 00:23:40.051 +0000|235646.78780825|-0.10577392578125|0.0423126220703125|-0.995880126953125|235646.76784425|1.969555922882714|-0.1032053999741545|-0.04671644582996668|-0.06338901072740555|-0.04284036904573441|-0.1040431335568428|-0.0005446821451187134|-0.00872030109167099|0.004915833473205566|XArbitraryZVertical|-0.03006210157032221|0.04795154595086032|-0.8324795707599358|-0.5511575688193722|-0.1029098853468895|0.04669945687055588|-0.9935938119888306|0|0|0|-1|-1|3
2021-03-05 00:23:40.071 +0000|235646.80777225|-0.10406494140625|0.04986572265625|-0.9971160888671875|235646.78780825|1.967405808094019|-0.1039789605398074|-0.04744023862264069|-0.06344367563724518|-0.03352026641368866|-0.09695069491863251|-0.003289155662059784|-0.009473811835050583|-0.0009657144546508789|XArbitraryZVertical|-0.03013177057242267|0.04849791721817489|-0.8318782515143558|-0.5520133490966759|-0.1036749258637428|0.04742244631052017|-0.9934800863265991|0|0|0|-1|-1|3
2021-03-05 00:23:40.091 +0000|235646.82773525|-0.1050262451171875|0.0538177490234375|-0.998260498046875|235646.80777225|1.965297661856858|-0.1047078173119244|-0.04856243661404727|-0.08327726274728775|-0.03267311304807663|-0.1004121825098991|0.000938810408115387|8.644163608551025e-05|-0.002895653247833252|XArbitraryZVertical|-0.03007220501141384|0.04919679096508534|-0.8312899856224042|-0.5528402054235884|-0.104393370449543|0.04854335263371468|-0.9933506846427917|0|0|0|-1|-1|3
2021-03-05 00:23:40.112 +0000|235646.84769925|-0.106842041015625|0.0575714111328125|-1.000808715820312|235646.82773525|1.963092804644989|-0.1055065463291117|-0.04994847353292178|-0.09358902275562286|-0.02764985710382462|-0.1001746281981468|0.001068875193595886|0.00485137477517128|-0.00550389289855957|XArbitraryZVertical|-0.02996445537705043|0.05002572895944459|-0.8306741142424041|-0.5536968490824952|-0.1051795706152916|0.04992770776152611|-0.9931991100311279|0|0|0|-1|-1|3
2021-03-05 00:23:40.131 +0000|235646.86766325|-0.105987548828125|0.0703887939453125|-0.997894287109375|235646.84769925|1.960861848394045|-0.1061176723357415|-0.05141546432549329|-0.09309963136911392|-0.02479500323534012|-0.1036101877689362|0.0008744969964027405|-0.001588098704814911|-0.009212791919708252|XArbitraryZVertical|-0.0297538446460197|0.05083633336406805|-0.8300530051029387|-0.5545651133904836|-0.1057786494493484|0.051392812281847|-0.9930607676506042|0|0|0|-1|-1|3
2021-03-05 00:23:40.151 +0000|235646.88762625|-0.1090240478515625|0.065338134765625|-1.003402709960938|235646.86766325|1.958596013659369|-0.106617841915808|-0.05257086778473735|-0.07567110657691956|-0.009085014462471008|-0.1065886691212654|-0.001168161630630493|0.01567542180418968|-0.003344058990478516|XArbitraryZVertical|-0.02958143121896645|0.0514871960039926|-0.8294214498403647|-0.5554584753834012|-0.1062689423561096|0.0525466576218605|-0.9929479956626892|0|0|0|-1|-1|3
2021-03-05 00:23:40.184 +0000|235646.90759025|-0.1027374267578125|0.05792236328125|-1.005096435546875|235646.88762625|1.956392926136471|-0.1068443144381599|-0.05342071484487291|-0.0400109551846981|-0.003093061968684196|-0.08899547159671783|-0.002672336995601654|0.01175975054502487|-0.009119749069213867|XArbitraryZVertical|-0.02938114413683057|0.05193425942019843|-0.8288090785123486|-0.5563408489889325|-0.1064890176057816|0.05339530855417252|-0.9928791522979736|0|0|0|-1|-1|3
2021-03-05 00:23:40.191 +0000|235646.92755425|-0.103790283203125|0.0676727294921875|-1.002716064453125|235646.90759025|1.954163197144285|-0.1067939900338422|-0.05451303223339785|-0.07544536143541336|0.006372025236487389|-0.1091635897755623|0.001177676022052765|0.00358894094824791|-0.01222467422485352|XArbitraryZVertical|-0.02899674198341161|0.05240440663892926|-0.8281931403658268|-0.5572333455653347|-0.1064327731728554|0.05448603630065918|-0.9928259253501892|0|0|0|-1|-1|3
2021-03-05 00:23:40.212 +0000|235646.94751825|-0.1090087890625|0.078887939453125|-1.00311279296875|235646.92755425|1.951902356474696|-0.1067538036565564|-0.05570511599231349|-0.081379733979702|0.009178357198834419|-0.09478279203176498|0.001664832234382629|0.01213378086686134|-0.009417057037353516|XArbitraryZVertical|-0.02858671553482931|0.05291821567145932|-0.8275675443974904|-0.5581348525200074|-0.1063858792185783|0.05567631125450134|-0.992764949798584|0|0|0|-1|-1|3
2021-03-05 00:23:40.232 +0000|235646.96748125|-0.1039886474609375|0.0743865966796875|-1.002609252929688|235646.96748125|1.948116676764358|-0.1064544693344525|-0.05903565232911323|-0.07966836541891098|0.0183605644851923|-0.08421492576599121|0.002568073570728302|0.01495801284909248|-0.009178400039672852|XArbitraryZVertical|-0.02742661036216369|0.05426198105828341|-0.8265241780709393|-0.5596082017324102|-0.1060684099793434|0.0590013675391674|-0.9926068186759949|0|0|0|-1|-1|3
2021-03-05 00:23:40.251 +0000|235646.98744525|-0.104766845703125|0.074188232421875|-1.001922607421875||||||||||||||||||||||||3
2021-03-05 00:23:40.271 +0000|235647.00740925|-0.1014862060546875|0.0762786865234375|-0.997589111328125|235646.98744525|1.946431050135016|-0.1060808957484934|-0.06045798123598213|-0.07267528772354126|0.02873613312840462|-0.07019728422164917|-0.0009092763066291809|0.01556764543056488|-0.007865309715270996|XArbitraryZVertical|-0.02682625018031493|0.0547666158373609|-0.826061003652024|-0.5602716331307623|-0.105688601732254|0.06042115762829781|-0.992561936378479|0|0|0|-1|-1|3
2021-03-05 00:23:40.291 +0000|235647.02737325|-0.1013336181640625|0.0761260986328125|-0.998626708984375|235647.00740925|1.944960156752303|-0.1054984830914506|-0.06162784730189335|-0.06876782327890396|0.03481932729482651|-0.07278907299041748|0.003876201808452606|0.01432366296648979|-0.005204617977142334|XArbitraryZVertical|-0.02621589745207541|0.05510489019996432|-0.8256591352103015|-0.560859449154721|-0.1051029860973358|0.06158884614706039|-0.9925523400306702|0|0|0|-1|-1|3
2021-03-05 00:23:40.311 +0000|235647.04733625|-0.10040283203125|0.0752716064453125|-0.9941558837890625|235647.02737325|1.9433612763443|-0.1048829674930367|-0.06286691860030016|-0.05941829085350037|0.03647591918706894|-0.07377044856548309|0.005729109048843384|0.01027937233448029|-0.005567729473114014|XArbitraryZVertical|-0.02556832745711188|0.0554631320760758|-0.8252208911587922|-0.5614984941686296|-0.1044839695096016|0.0628255158662796|-0.992540180683136|0|0|0|-1|-1|3
2021-03-05 00:23:40.331 +0000|235647.06730025|-0.096588134765625|0.0739593505859375|-0.98333740234375|235647.04733625|1.941838313912287|-0.1041867525286323|-0.06408929541565339|-0.05242955684661865|0.0432082861661911|-0.0676293820142746|0.00152047723531723|0.00892212986946106|-0.002749443054199219|XArbitraryZVertical|-0.02489373328220372|0.05578987101296124|-0.8248038930685837|-0.5621088381370432|-0.1037848517298698|0.06404542922973633|-0.9925355911254883|0|0|0|-1|-1|3
2021-03-05 00:23:40.351 +0000|235647.08726425|-0.093780517578125|0.0844879150390625|-0.974090576171875|235647.06730025|1.940411514570445|-0.1034656813609598|-0.06509550668632967|-0.0239822193980217|0.03450725600123405|-0.04767217859625816|0.006764248013496399|0.009184487164020538|0.005347728729248047|XArbitraryZVertical|-0.02427221263198747|0.05601855650944166|-0.8244128963886461|-0.5626865939911198|-0.1030624285340309|0.06504954397678375|-0.9925455451011658|0|0|0|-1|-1|3
2021-03-05 00:23:40.371 +0000|235647.10722825|-0.087860107421875|0.067352294921875|-0.9776458740234375|235647.08726425|1.938871587900141|-0.1026298211614702|-0.06619193376551205|-0.07534577697515488|0.07975612580776215|-0.1147105991840363|0.01511300355195999|0.00392477959394455|0.01000064611434937|XArbitraryZVertical|-0.02357435851699509|0.05625247271152924|-0.823990548071543|-0.5633112459074443|-0.1022254005074501|0.06614360958337784|-0.9925597906112671|0|0|0|-1|-1|3
2021-03-05 00:23:40.391 +0000|235647.12719125|-0.0840301513671875|0.0790252685546875|-0.970794677734375|235647.10722825|1.93760026033242|-0.1020967591284702|-0.06738023141265596|-0.06048000976443291|0.01733828336000443|-0.05710083246231079|0.01843627542257309|-0.001762211322784424|0.0102507472038269|XArbitraryZVertical|-0.02298240031584899|0.05660538160487441|-0.8236393914268927|-0.5638137492184052|-0.1016882061958313|0.06732925772666931|-0.9925352931022644|0|0|0|-1|-1|3
2021-03-05 00:23:40.411 +0000|235647.14715525|-0.08721923828125|0.0831451416015625|-0.9748382568359375|235647.12719125|1.936277356053893|-0.1020748469443226|-0.06861822559286264|-0.05536495894193649|-0.00451385835185647|-0.06151537969708443|0.0214882418513298|0.01494698971509933|0.01851588487625122|XArbitraryZVertical|-0.02258484378930213|0.05712277225525864|-0.8232670900762499|-0.5643210698711012|-0.1016578823328018|0.06856439262628555|-0.9924538135528564|0|0|0|-1|-1|3
2021-03-05 00:23:40.431 +0000|235647.16711925|-0.0917205810546875|0.0729827880859375|-0.9806060791015625|235647.14715525|1.934877241232362|-0.1023275437863561|-0.06937685052038539|-0.006262444425374269|-0.008202922530472279|-0.05762174725532532|0.01723233610391617|0.01080272346735001|0.02164244651794434|XArbitraryZVertical|-0.02243345049466544|0.05752130773406348|-0.822869215968162|-0.5648666572287144|-0.1019033268094063|0.06932120770215988|-0.9923760890960693|0|0|0|-1|-1|3
2021-03-05 00:23:40.451 +0000|235647.18708325|-0.1044464111328125|0.066802978515625|-0.98675537109375|235647.16711925|1.933187347853423|-0.1024684300489146|-0.06958273006179005|0.01847334578633308|-0.008301672525703907|-0.08703077584505081|0.01120613515377045|0.00086221843957901|0.01314526796340942|XArbitraryZVertical|-0.0223842498662405|0.05766452944276446|-0.8223901255774233|-0.5655513621081432|-0.1020416766405106|0.06952659040689468|-0.9923474788665771|0|0|0|-1|-1|3
2021-03-05 00:23:40.471 +0000|235647.20704625|-0.1111907958984375|0.0742034912109375|-0.9970245361328125|235647.18708325|1.931338481399917|-0.1025588165770401|-0.06936689148880736|-0.001329820370301604|-0.004448025021702051|-0.09702472388744354|0.0003568083047866821|0.002801790833473206|0.008130788803100586|XArbitraryZVertical|-0.02242950995312531|0.05762231522085449|-0.8218658763059367|-0.566315401160683|-0.1021329089999199|0.06931127607822418|-0.9923532009124756|0|0|0|-1|-1|3
2021-03-05 00:23:40.491 +0000|235647.22701025|-0.1169586181640625|0.074951171875|-1.004257202148438|235647.20704625|1.929399254438798|-0.1025430276643111|-0.0696820540212838|-0.0271731186658144|-0.002336032222956419|-0.09813562035560608|-0.005291588604450226|0.005554400384426117|-0.0003427267074584961|XArbitraryZVertical|-0.02227731618999935|0.0577686628285571|-0.8213166662599199|-0.5671027524872516|-0.1021149978041649|0.06962567567825317|-0.9923329949378967|0|0|0|-1|-1|3
2021-03-05 00:23:40.511 +0000|235647.24697425|-0.1135406494140625|0.083526611328125|-1.007171630859375|235647.22701025|1.927490819005327|-0.1024924228407479|-0.07040907706710184|-0.04731924831867218|0.009140328504145145|-0.09316118806600571|-0.01532626897096634|0.001426458358764648|-0.01116091012954712|XArbitraryZVertical|-0.02199391737585989|0.05807314426277257|-0.820775876730038|-0.5678650750400427|-0.1020595729351044|0.07035091519355774|-0.9922875761985779|0|0|0|-1|-1|3
2021-03-05 00:23:40.531 +0000|235647.26693725|-0.110321044921875|0.084716796875|-1.004302978515625|235647.24697425|1.925633405008095|-0.1022444934380017|-0.07129095373568263|-0.05303625762462616|0.01902374252676964|-0.08192966133356094|-0.01197758316993713|0.00958000123500824|-0.01417320966720581|XArbitraryZVertical|-0.02158625353933576|0.05838382199150133|-0.8202509271818906|-0.5686069449023501|-0.1018071845173836|0.07123058289289474|-0.9922507405281067|0|0|0|-1|-1|3
2021-03-05 00:23:40.551 +0000|235647.28690125|-0.09857177734375|0.07421875|-0.9982757568359375|235647.26693725|1.924034091851735|-0.1019434963366736|-0.071936822751236|-0.01976716890931129|0.02298913896083832|-0.06100982427597046|-0.009213939309120178|0.008600093424320221|-0.01437169313430786|XArbitraryZVertical|-0.02123138273702541|0.05857945979402612|-0.8197991311528189|-0.5692513382135858|-0.101503811776638|0.07187479734420776|-0.9922353625297546|0|0|0|-1|-1|3
2021-03-05 00:23:40.571 +0000|235647.30686525|-0.09454345703125|0.082672119140625|-1.007965087890625|235647.28690125|1.922435424352983|-0.1014989651926204|-0.07247188775289197|-0.02744263038039207|0.03020726144313812|-0.08144878596067429|0.0001982375979423523|-0.0002496242523193359|-0.008902430534362793|XArbitraryZVertical|-0.02084916128495849|0.05868837905095166|-0.819348411281103|-0.5699029016998429|-0.1010588109493256|0.07240846753120422|-0.9922419786453247|0|0|0|-1|-1|3
2021-03-05 00:23:40.591 +0000|235647.32682925|-0.0973052978515625|0.0680999755859375|-1.002609252929688|235647.30686525|1.920694580783756|-0.101033671582762|-0.07242447370279585|0.02369976602494717|0.02133307792246342|-0.04511225968599319|-0.005939379334449768|0.03387054800987244|0.003400683403015137|XArbitraryZVertical|-0.02062117104359113|0.05855439106936831|-0.8188568552973825|-0.570630868855554|-0.1005974635481834|0.07236117869615555|-0.9922922849655151|0|0|0|-1|-1|3
2021-03-05 00:23:40.610 +0000|235647.34679225|-0.1056671142578125|0.0566558837890625|-1.004730224609375|235647.32682925|1.919160360201657|-0.1006986928582482|-0.07200426492016132|0.06240826472640038|0.029426584020257|-0.07553745806217194|0.0001857280731201172|-0.004879646003246307|-0.00804060697555542|XArbitraryZVertical|-0.02055982078450727|0.05830299467803637|-0.8184224608540568|-0.5712817006870048|-0.1002681031823158|0.07194206118583679|-0.9923561215400696|0|0|0|-1|-1|3
2021-03-05 00:23:40.630 +0000|235647.36675625|-0.102996826171875|0.0690765380859375|-0.9964141845703125|235647.34679225|1.917680367229664|-0.1001517138977085|-0.07127578937243566|0.06396190077066422|0.03995437920093536|-0.08043775707483292|-0.006653748452663422|-0.009417325258255005|-0.008819043636322021|XArbitraryZVertical|-0.02050233542289082|0.05786458620035731|-0.818005276432672|-0.5719255426564023|-0.09973050653934479|0.07121545821428299|-0.992462694644928|0|0|0|-1|-1|3
2021-03-05 00:23:40.650 +0000|235647.38672025|-0.090301513671875|0.022918701171875|-0.98388671875|235647.36675625|1.915923836646488|-0.09921339850129141|-0.07047309915995187|0.06278669834136963|0.1044528931379318|-0.142689049243927|-0.002559259533882141|-0.001689165830612183|-0.00863879919052124|XArbitraryZVertical|-0.02029896699060015|0.05728661181792705|-0.8175123313382684|-0.5726952297991363|-0.09880485385656357|0.07041478157043457|-0.9926124215126038|0|0|0|-1|-1|3
2021-03-05 00:23:40.684 +0000|235647.40668425|-0.0781402587890625|0.06121826171875|-0.9207763671875|235647.38672025|1.914132770669302|-0.09835481061910005|-0.06983697654078967|0.06667892634868622|0.04915512353181839|-0.09384757280349731|0.01435406506061554|-0.04306204617023468|-0.002955794334411621|XArbitraryZVertical|-0.02008021049169919|0.05679936414267785|-0.817007877096309|-0.573470921849887|-0.09795694798231125|0.06978022307157516|-0.9927412271499634|0|0|0|-1|-1|3
2021-03-05 00:23:40.690 +0000|235647.42664725|-0.05706787109375|0.0339202880859375|-0.929656982421875|235647.40668425|1.912726683811294|-0.09712514797266594|-0.06724394004777748|0.1414821594953537|0.1320103257894516|-0.1306793540716171|0.02390791475772858|-0.02237817645072937|0.04935789108276367|XArbitraryZVertical|-0.02028607749796548|0.05540424519228603|-0.8166166497467218|-0.5741569153961311|-0.09675335884094238|0.06719327718019485|-0.9930377006530762|0|0|0|-1|-1|3
2021-03-05 00:23:40.711 +0000|235647.44661125|-0.070037841796875|0.0496673583984375|-0.9353790283203125|235647.42664725|1.911475670854881|-0.09572773069285126|-0.06223165868265536|0.3054239749908447|0.04752004891633987|-0.06556355953216553|0.04192979633808136|-0.02663848921656609|0.06045025587081909|XArbitraryZVertical|-0.02112790035083686|0.0529741742472874|-0.8162683249339194|-0.5748508450622036|-0.09539657086133957|0.06219149753451347|-0.9934946894645691|0|0|0|-1|-1|3
2021-03-05 00:23:40.730 +0000|235647.46657525|-0.0702362060546875|-0.0167083740234375|-0.920318603515625|235647.44661125|1.909600589025626|-0.09463746523660857|-0.05595294469213469|0.3367842733860016|0.06040240079164505|-0.1359059065580368|0.02074000239372253|0.002242788672447205|0.07189387083053589|XArbitraryZVertical|-0.02244813733650323|0.05012434931965073|-0.8157302233953714|-0.5758192606187641|-0.09434837847948074|0.05592375248670578|-0.9939672350883484|0|0|0|-1|-1|3
2021-03-05 00:23:40.750 +0000|235647.48653825|-0.0750579833984375|0.022216796875|-0.9577178955078125|235647.46657525|1.908515702715919|-0.0937520394428451|-0.04886506253711996|0.3495295941829681|0.06990236788988113|-0.08784391731023788|0.02520470321178436|-0.07217627763748169|0.07228571176528931|XArbitraryZVertical|-0.02410969690547915|0.0469966318867277|-0.8154072990846908|-0.5764729273840123|-0.09350302070379257|0.04884561896324158|-0.994420051574707|0|0|0|-1|-1|3
2021-03-05 00:23:40.770 +0000|235647.50650225|-0.0926513671875|0.021636962890625|-0.9939422607421875|235647.48653825|1.90886459558578|-0.09333465277982508|-0.04285251011314959|0.2290191501379013|-0.02757848426699638|0.02848890237510204|0.02714991569519043|-0.04062683880329132|0.03991472721099854|XArbitraryZVertical|-0.02568582608442499|0.04442424525199411|-0.8154879829140257|-0.5764946038885022|-0.09311363846063614|0.04283939674496651|-0.994733452796936|0|0|0|-1|-1|3
2021-03-05 00:23:40.790 +0000|235647.52646625|-0.0791168212890625|0.0054168701171875|-1.009201049804688|235647.50650225|1.909874079217265|-0.09348356966270993|-0.03926554592596637|0.1476007848978043|-0.005263485480099916|0.02913285419344902|0.007215969264507294|-0.008020684123039246|0.00370103120803833|XArbitraryZVertical|-0.02680506167074445|0.04299309032748301|-0.8157585780029548|-0.5761693063887176|-0.0932755172252655|0.03925545513629913|-0.9948661923408508|0|0|0|-1|-1|3
2021-03-05 00:23:40.810 +0000|235647.54643025|-0.1013031005859375|0.0368499755859375|-1.005752563476562|235647.52646625|1.910577294202978|-0.09359270072456835|-0.03776747431944116|0.06293636560440063|-0.04923680424690247|0.006269526667892933|0.01381491869688034|-0.03785001859068871|-0.006765007972717285|XArbitraryZVertical|-0.02729716568038099|0.04240468423939486|-0.8159512052531791|-0.575917117374265|-0.09338947385549545|0.03775849565863609|-0.9949133992195129|0|0|0|-1|-1|3
2021-03-05 00:23:40.830 +0000|235647.56639325|-0.091705322265625|0.0320281982421875|-0.9826507568359375|235647.54643025|1.910331412387543|-0.09486775268786808|-0.0361033005253466|0.04164151474833488|-0.09538714587688446|0.0004252197686582804|-0.001573361456394196|-0.001763153821229935|-0.01600950956344604|XArbitraryZVertical|-0.02829257304140288|0.04209723449299976|-0.8158525772085309|-0.5760313237638075|-0.09466379135847092|0.03609545901417732|-0.9948546886444092|0|0|0|-1|-1|3
2021-03-05 00:23:40.850 +0000|235647.58635725|-0.1117401123046875|0.0563201904296875|-0.988861083984375|235647.56639325|1.910182808638936|-0.09605939949436706|-0.03342848980460621|0.1137981563806534|-0.0796758234500885|-0.02105699107050896|0.005541414022445679|0.0007574521005153656|0.01405984163284302|XArbitraryZVertical|-0.02954782066544341|0.04135283397979199|-0.8157746479930074|-0.5761325556809631|-0.09585815668106079|0.03342226520180702|-0.994833767414093|0|0|0|-1|-1|3
2021-03-05 00:23:40.870 +0000|235647.60632125|-0.1154632568359375|0.02484130859375|-1.0013427734375|235647.58635725|1.909626942443942|-0.09756104577918394|-0.03165945279551972|0.0512872040271759|-0.075379878282547|-0.05378378182649612|-0.005944445729255676|0.02390311658382416|0.009226560592651367|XArbitraryZVertical|-0.03065964026870326|0.04107318779069415|-0.8155788906094819|-0.5763714987534935|-0.09735754132270813|0.03165416419506073|-0.9947459697723389|0|0|0|-1|-1|3
2021-03-05 00:23:40.890 +0000|235647.62628525|-0.1133270263671875|0.0276031494140625|-1.016616821289062|235647.60632125|1.908418772646185|-0.09864270239393964|-0.03061529878945036|0.01397984474897385|-0.03291279822587967|-0.04848755151033401|-0.02403036504983902|0.004774648696184158|-0.004839301109313965|XArbitraryZVertical|-0.03137752931171117|0.04097854003007888|-0.8152056387533961|-0.5768675575084272|-0.09843666106462479|0.03061051666736603|-0.994672417640686|0|0|0|-1|-1|3
2021-03-05 00:23:40.910 +0000|235647.64624825|-0.1184844970703125|0.067901611328125|-1.019088745117188|235647.62628525|1.907473466658792|-0.09946452232532717|-0.03083779009457418|-0.07779303938150406|-0.05667666345834732|-0.06207570806145668|-0.00856519490480423|-0.007563218474388123|-0.01608151197433472|XArbitraryZVertical|-0.03162866753542629|0.04132111997686806|-0.8149217339885665|-0.5772303677963013|-0.09925338625907898|0.03083290345966816|-0.9945843815803528|0|0|0|-1|-1|3
2021-03-05 00:23:40.930 +0000|235647.6662125|-0.11376953125|0.04974365234375|-1.011184692382812|235647.64624825|1.905899683082535|-0.1002677122350561|-0.03281788956311906|-0.0987282395362854|-0.0150018660351634|-0.05488836765289307|-0.01943040639162064|0.0336553119122982|-0.0246012806892395|XArbitraryZVertical|-0.03134985698242296|0.04238350576476039|-0.8144704251370767|-0.5778052663061783|-0.1000458896160126|0.03281199932098389|-0.9944416284561157|0|0|0|-1|-1|3
2021-03-05 00:23:40.950 +0000|235647.6861765|-0.1026458740234375|0.055450439453125|-0.991241455078125|235647.6662125|1.904649113643368|-0.1000884752345034|-0.03479002126066464|-0.07356706261634827|0.02604516968131065|-0.04559473693370819|-0.0215379074215889|0.02370396256446838|-0.01196962594985962|XArbitraryZVertical|-0.03067880428170806|0.04315308229314069|-0.8141267790111767|-0.5782682363314449|-0.09986098855733871|0.03478300198912621|-0.9943932294845581|0|0|0|-1|-1|3
2021-03-05 00:23:40.970 +0000|235647.7061405|-0.1019134521484375|0.0751495361328125|-1.0057373046875|235647.6861765|1.903359359528508|-0.09950718728177033|-0.03663147208872534|-0.09188202768564224|0.06484971195459366|-0.05662261694669724|-0.007626652717590332|0.01145719736814499|-0.003157615661621094|XArbitraryZVertical|-0.02988021956870543|0.04375294094584448|-0.8137757874944762|-0.5787589285015711|-0.09927640855312347|0.0366232804954052|-0.9943857192993164|0|0|0|-1|-1|3
2021-03-05 00:23:40.990 +0000|235647.7261035|-0.1043243408203125|0.0494842529296875|-1.018951416015625|235647.7061405|1.902040892514853|-0.09831482396016061|-0.03781453195434059|-0.1042280569672585|0.05503490567207336|-0.06214433163404465|-0.007214531302452087|0.03153045102953911|-0.002702295780181885|XArbitraryZVertical|-0.02902287915877473|0.04390778851359207|-0.8134196444472014|-0.5792911643548575|-0.09808634966611862|0.03780551999807358|-0.9944595694541931|0|0|0|-1|-1|3
2021-03-05 00:23:41.010 +0000|235647.7460675|-0.1051177978515625|0.0558929443359375|-1.017333984375|235647.7261035|1.900287485052119|-0.09743897140897556|-0.04024447016458452|-0.1046507135033607|0.06772417575120926|-0.08670870214700699|-0.008049026131629944|0.01684955507516861|-0.02442437410354614|XArbitraryZVertical|-0.02792181946315415|0.04466555560132444|-0.8129392397309302|-0.579961453880256|-0.09720608592033386|0.04023360833525658|-0.9944507479667664|0|0|0|-1|-1|3
2021-03-05 00:23:41.030 +0000|235647.7660315|-0.0853271484375|0.073272705078125|-1.009735107421875|235647.7460675|1.898403145295926|-0.09610720415941738|-0.0431476340002796|-0.1190572008490562|0.06799314916133881|-0.08790375292301178|-0.01521395146846771|0.01240777969360352|-0.02356177568435669|XArbitraryZVertical|-0.02649343937583576|0.04548273753185843|-0.8124268450007751|-0.5806823785788167|-0.0958700105547905|0.04313424602150917|-0.9944588541984558|0|0|0|-1|-1|3
2021-03-05 00:23:41.050 +0000|235647.7859955|-0.0886688232421875|0.05816650390625|-1.007720947265625|235647.7660315|1.896703749716095|-0.09434873218349885|-0.04514963705074053|-0.06759902089834213|0.1195970103144646|-0.0845077782869339|0.011074498295784|0.02507142350077629|-0.01010072231292725|XArbitraryZVertical|-0.02515722623277304|0.04580560935689543|-0.8119656921702003|-0.5813611413394155|-0.0941128134727478|0.0451342985033989|-0.9945379495620728|0|0|0|-1|-1|3
2021-03-05 00:23:41.069 +0000|235647.8059585|-0.0757904052734375|0.0528717041015625|-0.99798583984375|235647.7859955|1.894551819588864|-0.0924429982954785|-0.04638768233013402|-0.02551867999136448|0.1197429522871971|-0.1186497732996941|0.002246290445327759|0.01387067884206772|-0.02021825313568115|XArbitraryZVertical|-0.02397332397864909|0.04577932922411129|-0.8113684495388084|-0.5822463116300076|-0.09221208840608597|0.04637104645371437|-0.9946590662002563|0|0|0|-1|-1|3
2021-03-05 00:23:41.090 +0000|235647.8259225|-0.080535888671875|0.0445709228515625|-1.001632690429688|235647.8059585|1.892330908348161|-0.09082181463856327|-0.04693010098941638|-0.03972519561648369|0.04714374244213104|-0.1320505291223526|0.02016260474920273|0.007530510425567627|-0.01249635219573975|XArbitraryZVertical|-0.02310667023784237|0.04555275717396949|-0.8107425952375146|-0.5831702431326768|-0.09059714525938034|0.04691287502646446|-0.994782030582428|0|0|0|-1|-1|3
2021-03-05 00:23:41.110 +0000|235647.8458865|-0.075042724609375|0.0263824462890625|-0.9910430908203125|235647.8259225|1.890136184172254|-0.09020582635241803|-0.04692107182887761|-0.009343771263957024|0.01744358614087105|-0.1004159972071648|0.01941251754760742|-0.007032610476016998|-0.01424086093902588|XArbitraryZVertical|-0.02280980996477369|0.04539454702575506|-0.8101091694313288|-0.5840737098671949|-0.08998439460992813|0.04690385609865189|-0.9948381185531616|0|0|0|-1|-1|3
2021-03-05 00:23:41.130 +0000|235647.8658495|-0.0858917236328125|0.057952880859375|-0.9882965087890625|235647.8458865|1.887896959916198|-0.09014783095936106|-0.04777754563931762|-0.02614523842930794|0.003388379700481892|-0.1052125245332718|0.01623837649822235|-0.02450494468212128|0.005514621734619141|XArbitraryZVertical|-0.02248425258235201|0.04574919691805022|-0.8094585010989304|-0.5849601145460959|-0.08992304652929306|0.04775936901569366|-0.9948029518127441|0|0|0|-1|-1|3
2021-03-05 00:23:41.150 +0000|235647.8858135|-0.0960235595703125|0.06597900390625|-1.004684448242188|235647.8658495|1.885884436607661|-0.09037171505110665|-0.0486640727375819|-0.02072001248598099|-0.002890395000576973|-0.09029518067836761|0.004509612917900085|0.004837222397327423|0.01387476921081543|XArbitraryZVertical|-0.02226831860722944|0.04619534359286145|-0.8088700962450417|-0.5857468884110875|-0.09014191478490829|0.04864486679434776|-0.9947402477264404|0|0|0|-1|-1|3
2021-03-05 00:23:41.183 +0000|235647.9057775|-0.096771240234375|0.05108642578125|-1.002029418945312|235647.8858135|1.88429712136352|-0.09009891654954126|-0.04914916991681714|-0.02137636579573154|0.02055554091930389|-0.079895980656147|-0.004064664244651794|0.01744474098086357|-0.007684946060180664|XArbitraryZVertical|-0.02197872815459508|0.04632878551408434|-0.8084095918066994|-0.5863825348664318|-0.08986841142177582|0.04912938550114632|-0.9947411417961121|0|0|0|-1|-1|3
2021-03-05 00:23:41.189 +0000|235647.9257415|-0.0945281982421875|0.0785064697265625|-1.013961791992188|235647.9057775|1.88293823811348|-0.08951253039012638|-0.04945864657259651|-0.05730607360601425|0.03296496719121933|-0.04938512295484543|-0.006938174366950989|0.002594016492366791|-0.01112663745880127|XArbitraryZVertical|-0.02161923754668946|0.04629645012486993|-0.8080184065781404|-0.5869375034265092|-0.08928372710943222|0.0494384840130806|-0.9947785139083862|0|0|0|-1|-1|3
2021-03-05 00:23:41.210 +0000|235647.9457045|-0.09124755859375|0.06182861328125|-1.0166015625|235647.9257415|1.882030231044648|-0.08854355988418651|-0.04995468176893964|-0.03427668288350105|0.05217408388853073|-0.03540921211242676|-0.005005128681659698|0.02475789561867714|-0.01542913913726807|XArbitraryZVertical|-0.02106076095254951|0.04622173195729262|-0.8077637175776912|-0.587314212170247|-0.08831759542226791|0.04993390664458275|-0.9948399662971497|0|0|0|-1|-1|3
2021-03-05 00:23:41.229 +0000|235647.9656685|-0.094757080078125|0.05780029296875|-1.00360107421875|235647.9457045|1.881291302725476|-0.0878366669160139|-0.05054517876195479|-0.01556712947785854|0.02997072227299213|-0.03564108163118362|-0.005360051989555359|0.02108587324619293|-0.02369731664657593|XArbitraryZVertical|-0.02058424221101005|0.04625986565370865|-0.8075556831132757|-0.5876139457227654|-0.08761172741651535|0.05052366107702255|-0.9948726296424866|0|0|0|-1|-1|3
2021-03-05 00:23:41.250 +0000|235647.9856325|-0.085357666015625|0.0482940673828125|-0.9950714111328125|235647.9656685|1.880507929105219|-0.08740401244986065|-0.05097982098425177|-0.01672002859413624|0.02284282259643078|-0.03812341392040253|-0.005060002207756042|0.006430596113204956|-0.01000958681106567|XArbitraryZVertical|-0.02026331325863946|0.04631590362800017|-0.8073310405632936|-0.5879293146953024|-0.08717935532331467|0.05095774307847023|-0.9948884844779968|0|0|0|-1|-1|3
2021-03-05 00:23:41.269 +0000|235648.0055965|-0.0925445556640625|0.0547637939453125|-0.9910125732421875|235647.9856325|1.879802593715173|-0.08719234665394636|-0.05147380664692588|-0.02619803510606289|0.004684112966060638|-0.03178713470697403|0.000815466046333313|0.002442993223667145|0.0009241700172424316|XArbitraryZVertical|-0.02001582445037122|0.046459822005847|-0.8071270430534234|-0.5882065547923542|-0.08696656674146652|0.05145107954740524|-0.9948816895484924|0|0|0|-1|-1|3
2021-03-05 00:23:41.289 +0000|235648.0255595|-0.1034393310546875|0.079742431640625|-1.006088256835938|235648.0055965|1.879011891261492|-0.08718077393184739|-0.05223907866331422|-0.01862149126827717|0.0046241395175457|-0.0439484603703022|0.001349814236164093|-0.005752280354499817|0.009094893932342529|XArbitraryZVertical|-0.01976690110653884|0.04677256343220049|-0.8068963824109461|-0.5885065599838473|-0.0869516059756279|0.0522153228521347|-0.9948431849479675|0|0|0|-1|-1|3
2021-03-05 00:23:41.309 +0000|235648.0455235|-0.0880279541015625|0.0566253662109375|-1.00201416015625|235648.0255595|1.87814294911802|-0.08715605802466157|-0.05243373649436174|0.04767885431647301|0.0190194845199585|-0.04446315765380859|-0.01230175048112869|0.02432676404714584|-0.01062744855880737|XArbitraryZVertical|-0.01967911850955922|0.0468522488634569|-0.8066413082608609|-0.5888527174515186|-0.08692612498998642|0.05240971222519875|-0.9948351979255676|0|0|0|-1|-1|3
2021-03-05 00:23:41.329 +0000|235648.0654875|-0.087921142578125|0.0490570068359375|-0.994049072265625|235648.0455235|1.876912136235767|-0.08739226816938686|-0.05165079011813516|0.03543465211987495|-0.02422993257641792|-0.07911390066146851|-0.01007957011461258|0.01033814623951912|-0.01051586866378784|XArbitraryZVertical|-0.01997694202767915|0.04661884663145583|-0.8062745456775566|-0.5893632584020225|-0.08716467022895813|0.05162782594561577|-0.9948552250862122|0|0|0|-1|-1|3
2021-03-05 00:23:41.349 +0000|235648.0854505|-0.0949249267578125|0.05657958984375|-0.9958648681640625|235648.0654875|1.875317008194768|-0.08819061804782286|-0.05087193639925833|0.03180743008852005|-0.04792434349656105|-0.08528764545917511|0.003688126802444458|-0.00460057333111763|0.001065909862518311|XArbitraryZVertical|-0.02049188538784861|0.04655700138983795|-0.8057940730053653|-0.5900070742337741|-0.08796239644289017|0.05084999650716782|-0.9948250651359558|0|0|0|-1|-1|3
2021-03-05 00:23:41.369 +0000|235648.1054145|-0.0943450927734375|0.03839111328125|-0.9909820556640625|235648.0854505|1.873734421450556|-0.08939357071632111|-0.0501848374271426|0.01894251070916653|-0.06827483326196671|-0.08096950501203537|-0.005152389407157898|0.008292671293020248|-0.004926443099975586|XArbitraryZVertical|-0.02114295117519241|0.04665224537397081|-0.8053124096417807|-0.590633947534675|-0.08916216343641281|0.05016377568244934|-0.9947530627250671|0|0|0|-1|-1|3
2021-03-05 00:23:41.389 +0000|235648.1253785|-0.0974273681640625|0.0521240234375|-0.97955322265625|235648.1054145|1.872105307247594|-0.09094390201521432|-0.05011413627427845|0.02378300577402115|-0.07288769632577896|-0.08941563218832016|-0.003106430172920227|-0.009565789252519608|0.001575231552124023|XArbitraryZVertical|-0.02174977869643504|0.04709938196192727|-0.8048142019589462|-0.5912552213362605|-0.09070457518100739|0.050093162804842|-0.9946171641349792|0|0|0|-1|-1|3
2021-03-05 00:23:41.409 +0000|235648.1453425|-0.09228515625|0.0467376708984375|-0.9945526123046875|235648.1253785|1.870349432795957|-0.09238462426310774|-0.0498447644411034|0.02367107011377811|-0.05293582379817963|-0.07992918789386749|-0.004067949950695038|0.0006977543234825134|0.01483887434005737|XArbitraryZVertical|-0.02236777429420318|0.04743673302880947|-0.8042779659810416|-0.5919344241377276|-0.09213868528604507|0.04982412606477737|-0.9944988489151001|0|0|0|-1|-1|3
2021-03-05 00:23:41.429 +0000|235648.1653055|-0.0994110107421875|0.0449066162109375|-0.9964752197265625|235648.1453425|1.868561533811064|-0.09366797904481615|-0.04941852547859515|0.01762349717319012|-0.06626670062541962|-0.09928192943334579|-0.001599572598934174|-0.003148991614580154|0.003418803215026855|XArbitraryZVertical|-0.02296780038925223|0.04766599507753387|-0.8037323143984466|-0.5926337654831897|-0.09341688454151154|0.04939841479063034|-0.9944008588790894|0|0|0|-1|-1|3
2021-03-05 00:23:41.449 +0000|235648.1852695|-0.0983123779296875|0.04742431640625|-0.98114013671875|235648.1852695|1.863885612408318|-0.09681806871970812|-0.0488377160099738|-0.0005281922640278935|-0.07451941817998886|-0.1279960572719574|-0.004095330834388733|-0.001271884888410568|0.007374703884124756|XArbitraryZVertical|-0.0242931784177587|0.04842330253831067|-0.8023049161516725|-0.5944508893212306|-0.09655162692070007|0.04881830513477325|-0.9941300749778748|0|0|0|-1|-1|3
2021-03-05 00:23:41.469 +0000|235648.2052335|-0.0946807861328125|0.04296875|-0.9720611572265625||||||||||||||||||||||||3
2021-03-05 00:23:41.489 +0000|235648.2251975|-0.112060546875|0.032196044921875|-0.9741058349609375|235648.2052335|1.861222765806864|-0.09841188056730235|-0.04869062666848025|-0.008695840835571289|-0.07204373925924301|-0.1409925520420074|0.005958333611488342|-0.006068818271160126|0.02417916059494019|XArbitraryZVertical|-0.02491134057023612|0.04887131979092095|-0.8014924623371323|-0.5954837907094375|-0.09813666343688965|0.04867139086127281|-0.9939820170402527|0|0|0|-1|-1|3
2021-03-05 00:23:41.509 +0000|235648.2451605|-0.1126708984375|0.037506103515625|-0.9850921630859375|235648.2251975|1.858613244399784|-0.09997177676613021|-0.04848813059604136|-0.02242911420762539|-0.0840638056397438|-0.1167727708816528|-0.003949642181396484|-0.01375535503029823|0.02060145139694214|XArbitraryZVertical|-0.02553265046394954|0.04928810569737861|-0.8006941431068948|-0.596496286026712|-0.09968803077936172|0.04846913367509842|-0.9938375353813171|0|0|0|-1|-1|3
2021-03-05 00:23:41.529 +0000|235648.2651245|-0.108428955078125|0.03900146484375|-0.9855194091796875|235648.2451605|1.855768184441827|-0.1016163745176406|-0.0488650023386159|-0.04094662144780159|-0.07595187425613403|-0.155347153544426|-0.01209805905818939|-0.01677154749631882|0.01317000389099121|XArbitraryZVertical|-0.02600724112525115|0.04996623319852316|-0.7998256382637462|-0.5975833895155782|-0.1013204976916313|0.0488455593585968|-0.9936540126800537|0|0|0|-1|-1|3
2021-03-05 00:23:41.549 +0000|235648.2850885|-0.0933380126953125|0.029632568359375|-0.97821044921875|235648.2651245|1.85240028771239|-0.1033705633667935|-0.0493604600849377|-0.0487646795809269|-0.08454962074756622|-0.170869916677475|-0.006649784743785858|-0.008385792374610901|0.005154013633728027|XArbitraryZVertical|-0.02647482922865139|0.05073276234519248|-0.7987979979065537|-0.5988714652105064|-0.1030608862638474|0.04934041947126389|-0.9934505224227905|0|0|0|-1|-1|3
2021-03-05 00:23:41.569 +0000|235648.3050515|-0.1035308837890625|0.0420989990234375|-0.98370361328125|235648.2850885|1.848829016949186|-0.1052510019962931|-0.0499097847295035|-0.07194150984287262|-0.09797190129756927|-0.1812352985143661|0.009329676628112793|-0.01674694567918777|0.01800817251205444|XArbitraryZVertical|-0.02696878664216617|0.05156301095964136|-0.7977054685033945|-0.600233253298801|-0.1049259677529335|0.04988906532526016|-0.9932278990745544|0|0|0|-1|-1|3
2021-03-05 00:23:41.589 +0000|235648.3250155|-0.107269287109375|0.068817138671875|-0.9940948486328125|235648.3050515|1.845036184340275|-0.107366028730808|-0.05083481016247545|-0.08384966850280762|-0.09374962747097015|-0.1779379546642303|0.00671018660068512|-0.01623646914958954|0.010581374168396|XArbitraryZVertical|-0.02743404091857272|0.05261804272546718|-0.7965425801917488|-0.6016631765404685|-0.1070214435458183|0.05081291869282722|-0.9929574131965637|0|0|0|-1|-1|3
2021-03-05 00:23:41.609 +0000|235648.3449795|-0.1044464111328125|0.05303955078125|-1.003738403320312|235648.3250155|1.841277863508434|-0.1094068949698504|-0.05145006867819905|-0.05220871418714523|-0.09510229527950287|-0.1857079863548279|0.000371195375919342|0.01223232597112656|0.001448988914489746|XArbitraryZVertical|-0.02796054825330187|0.05352912114908851|-0.7953861739991673|-0.6030867625267492|-0.1090442761778831|0.05142737179994583|-0.9927057027816772|0|0|0|-1|-1|3
2021-03-05 00:23:41.629 +0000|235648.3649435|-0.105621337890625|0.052001953125|-1.001632690429688|235648.3449795|1.837684899689899|-0.111441004267614|-0.05166909446459217|-0.04255262389779091|-0.1001581475138664|-0.175679937005043|0.007760077714920044|0.008519329130649567|-0.006446003913879395|XArbitraryZVertical|-0.0286057219443006|0.05428085285480409|-0.7942741779279059|-0.6044534064611531|-0.1110620647668839|0.05164610594511032|-0.9924706220626831|0|0|0|-1|-1|3
2021-03-05 00:23:41.649 +0000|235648.3849065|-0.10955810546875|0.071929931640625|-0.9958648681640625|235648.3649435|1.834136717967864|-0.1135669432510995|-0.05213507622842035|-0.07835524529218674|-0.1070263311266899|-0.1619122922420502|0.008997268974781036|-0.002215184271335602|-0.009165048599243164|XArbitraryZVertical|-0.02921082018078211|0.05515988257154021|-0.7931730667235843|-0.6057893024966347|-0.1131690070033073|0.05211146175861359|-0.9922082424163818|0|0|0|-1|-1|3
2021-03-05 00:23:41.684 +0000|235648.4048705|-0.11309814453125|0.065277099609375|-0.9984588623046875|235648.4048705|1.827966030302371|-0.117473454036112|-0.05321865279645002|-0.03081336058676243|-0.07616177946329117|-0.1276153922080994|0.003725767135620117|0.01742417737841606|-0.007229983806610107|XArbitraryZVertical|-0.0302552576801283|0.05686533988598511|-0.7912501243140108|-0.6080906621771927|-0.1170375198125839|0.05319353565573692|-0.9917019009590149|0|0|0|-1|-1|3
2021-03-05 00:23:41.689 +0000|235648.4248345|-0.122161865234375|0.0518646240234375|-1.007232666015625||||||||||||||||||||||||3
2021-03-05 00:23:41.709 +0000|235648.4447985|-0.121429443359375|0.06256103515625|-1.010406494140625|235648.4248345|1.825587646345294|-0.1189330620772894|-0.0541099541934581|-0.06394298374652863|-0.06608086824417114|-0.1071473136544228|-0.002461932599544525|0.0008633770048618317|-0.01301878690719604|XArbitraryZVertical|-0.03049201792154623|0.05769715795012365|-0.7905109372883495|-0.6089612615469999|-0.1184792146086693|0.05408355221152306|-0.9914825558662415|0|0|0|-1|-1|3
2021-03-05 00:23:41.728 +0000|235648.4647615|-0.115936279296875|0.06640625|-0.9994964599609375|235648.4447985|1.823386650545085|-0.120196008837477|-0.0550936314522672|-0.07612518221139908|-0.05833112448453903|-0.09940319508314133|-0.00130782276391983|0.005130194127559662|-0.01960068941116333|XArbitraryZVertical|-0.03062607423063566|0.05850323867703554|-0.7898284132771425|-0.6097627043886202|-0.1197248697280884|0.05506576597690582|-0.9912788271903992|0|0|0|-1|-1|3
2021-03-05 00:23:41.748 +0000|235648.4847255|-0.1187744140625|0.062744140625|-0.991180419921875|235648.4647615|1.821170906706122|-0.1212155470847505|-0.05614596867088591|-0.04414544254541397|-0.04365364462137222|-0.1104753762483597|0.00409022718667984|0.01350941509008408|-0.009481608867645264|XArbitraryZVertical|-0.03064085170943706|0.0592625437945157|-0.7891447057485046|-0.6105732832315929|-0.1207283809781075|0.05611647292971611|-0.991098165512085|0|0|0|-1|-1|3
2021-03-05 00:23:41.768 +0000|235648.5046895|-0.1185455322265625|0.0396728515625|-0.98834228515625|235648.4847255|1.818803602244229|-0.1221081390654432|-0.05682013248120748|-0.02525840513408184|-0.03551044315099716|-0.1156600192189217|0.006389245390892029|0.006290305405855179|0.0007483959197998047|XArbitraryZVertical|-0.03071551338190444|0.05983672126944743|-0.7884128662728084|-0.6114584215435293|-0.1216083467006683|0.05678956210613251|-0.9909522533416748|0|0|0|-1|-1|3
2021-03-05 00:23:41.788 +0000|235648.5246535|-0.1133575439453125|0.0587615966796875|-0.9891204833984375|235648.5046895|1.816597057661371|-0.1226679350068346|-0.05719121427965854|-0.03203027695417404|-0.02046843059360981|-0.1051938012242317|0.001814417541027069|-0.01438961923122406|0.003085315227508545|XArbitraryZVertical|-0.0307558525066756|0.06018771949271657|-0.7877319859742238|-0.6122987714145461|-0.1221604719758034|0.05716004222631454|-0.990863025188446|0|0|0|-1|-1|3
2021-03-05 00:23:41.808 +0000|235648.5446165|-0.1176910400390625|0.0591583251953125|-0.996734619140625|235648.5246535|1.814432105906348|-0.1232005010306017|-0.05773301910882132|-0.04423560947179794|-0.02423936128616333|-0.1018625348806381|0.007205836474895477|-0.00081615149974823|0.001783847808837891|XArbitraryZVertical|-0.03073341135599192|0.06059687289050511|-0.7870646768541444|-0.6131171567445315|-0.1226843297481537|0.05770095437765121|-0.9907669425010681|0|0|0|-1|-1|3
2021-03-05 00:23:41.828 +0000|235648.5645805|-0.119598388671875|0.0716400146484375|-0.9952392578125|235648.5446165|1.812213125206254|-0.1238765411821107|-0.05863174214249809|-0.04912011325359344|-0.02893169037997723|-0.1089149415493011|0.005687139928340912|0.002070825546979904|-0.004378437995910645|XArbitraryZVertical|-0.03065481017654804|0.06119084055442515|-0.7863804181217877|-0.6139395791518185|-0.1233476400375366|0.05859815329313278|-0.9906319379806519|0|0|0|-1|-1|3
2021-03-05 00:23:41.848 +0000|235648.5845445|-0.1156005859375|0.06597900390625|-0.992706298828125|235648.5645805|1.810043581205225|-0.1244123611858119|-0.05933666737993338|-0.04417139291763306|-0.02829652652144432|-0.1024798527359962|0.005297243595123291|0.008401427417993546|-0.005523502826690674|XArbitraryZVertical|-0.03058121269837123|0.06166489836216011|-0.7857111249223986|-0.6147522555017779|-0.123873271048069|0.05930185317993164|-0.9905244708061218|0|0|0|-1|-1|3
2021-03-05 00:23:41.868 +0000|235648.6045075|-0.119049072265625|0.0641021728515625|-0.9929656982421875|235648.5845445|1.808011163834441|-0.1250598281801445|-0.0598234222206438|-0.04617352783679962|-0.03098285757005215|-0.09272194653749466|0.009322382509708405|0.007473032921552658|-0.001085519790649414|XArbitraryZVertical|-0.03062217093457325|0.06208572347780086|-0.7850798032972562|-0.6155139967173658|-0.1245109587907791|0.05978774651885033|-0.9904152750968933|0|0|0|-1|-1|3
2021-03-05 00:23:41.888 +0000|235648.6244715|-0.121337890625|0.071197509765625|-0.99774169921875|235648.6045075|1.806179715159755|-0.1256104200655278|-0.06029118285962274|-0.04662531241774559|-0.02510776370763779|-0.08007343858480453|0.006690338253974915|0.002748910337686539|-0.001502513885498047|XArbitraryZVertical|-0.03063647177927891|0.06246632017137083|-0.7845109600470995|-0.6161995915780552|-0.125052735209465|0.06025466322898865|-0.9903187155723572|0|0|0|-1|-1|3
2021-03-05 00:23:41.908 +0000|235648.6444355|-0.12060546875|0.059661865234375|-0.9930267333984375|235648.6244715|1.804507944158347|-0.125994563201676|-0.06078677509693205|-0.03669293969869614|-0.02087083458900452|-0.07823675125837326|0.004015222191810608|0.007777910679578781|-0.007546603679656982|XArbitraryZVertical|-0.03058123336403012|0.06280406892832686|-0.7839935278637427|-0.6168263312318385|-0.1254293918609619|0.0607493482530117|-0.9902408719062805|0|0|0|-1|-1|3
2021-03-05 00:23:41.928 +0000|235648.66439925|-0.1241607666015625|0.0573577880859375|-0.99237060546875|235648.6444355|1.802866459057598|-0.1264147136570908|-0.06138060676907019|-0.0415707491338253|-0.01535143237560987|-0.07565898448228836|0.004945486783981323|-0.0003373958170413971|-0.003469705581665039|XArbitraryZVertical|-0.0305100457491452|0.06319078059420204|-0.7834851009038256|-0.6174359621389081|-0.1258408576250076|0.06134207174181938|-0.99015212059021|0|0|0|-1|-1|3
2021-03-05 00:23:41.948 +0000|235648.68436225|-0.1244659423828125|0.06854248046875|-0.990020751953125|235648.66439925|1.801354656402699|-0.1267914228838761|-0.0625004164077369|-0.06211628764867783|-0.01395508460700512|-0.06015441566705704|0.003951668739318848|-0.006475199013948441|-0.004303097724914551|XArbitraryZVertical|-0.03026201082067381|0.06376728151635366|-0.7830208712304896|-0.6179776261800545|-0.1262050718069077|0.06245973333716393|-0.9900358915328979|0|0|0|-1|-1|3
2021-03-05 00:23:41.968 +0000|235648.70432625|-0.126312255859375|0.0726470947265625|-0.99365234375|235648.68436225|1.800050343599126|-0.1269205420562248|-0.06343209626596449|-0.04173977673053741|-0.007789919152855873|-0.06182785704731941|0.001539126038551331|0.002330079674720764|0.003923237323760986|XArbitraryZVertical|-0.02998137430319596|0.06419034989872772|-0.7826226351306156|-0.6184518806101396|-0.1263254880905151|0.06338956952095032|-0.9899614453315735|0|0|0|-1|-1|3
2021-03-05 00:23:41.988 +0000|235648.72429025|-0.123809814453125|0.0434722900390625|-0.9867095947265625|235648.70432625|1.798636458866414|-0.1270539163830653|-0.06365517384971581|-0.005015118978917599|-0.004058724734932184|-0.07357008755207062|0.0006165057420730591|0.01150686293840408|-0.0005632638931274414|XArbitraryZVertical|-0.02991876165942207|0.06433977487593096|-0.7821848538435964|-0.6189928737615114|-0.1264557242393494|0.0636121928691864|-0.9899305105209351|0|0|0|-1|-1|3
2021-03-05 00:23:42.008 +0000|235648.74425425|-0.1262664794921875|0.0471649169921875|-0.9850006103515625|235648.72429025|1.797094017775794|-0.12721475661989|-0.06378473494090964|-0.03341490402817726|-0.008097088895738125|-0.0782652422785759|-0.0004612654447555542|-0.01621033996343613|0.002246379852294922|XArbitraryZVertical|-0.029891659596386|0.06446313513859864|-0.7817057793609807|-0.6195861761084391|-0.1266139000654221|0.06374149024486542|-0.9899019598960876|0|0|0|-1|-1|3
2021-03-05 00:23:42.028 +0000|235648.76421725|-0.1282196044921875|0.065887451171875|-0.9775390625|235648.74425425|1.795373822478177|-0.1274865873551939|-0.06429772445408419|-0.04930345714092255|-0.009438309818506241|-0.08528923988342285|0.003892987966537476|-0.02297837287187576|0.004635989665985107|XArbitraryZVertical|-0.02978246844288196|0.06477283617904057|-0.7811723004716353|-0.6202316741992162|-0.1268788129091263|0.06425342708826065|-0.9898349642753601|0|0|0|-1|-1|3
2021-03-05 00:23:42.048 +0000|235648.78418125|-0.1263580322265625|0.03997802734375|-0.976287841796875|235648.76421725|1.7933661412706|-0.1277385419192317|-0.06473231980233679|-0.02200419083237648|-0.006710433401167393|-0.1069018542766571|-0.002483516931533813|0.001551315188407898|0.01280069351196289|XArbitraryZVertical|-0.0296801171465609|0.06504998438219392|-0.7805487418020599|-0.6209922480581184|-0.12712462246418|0.06468711793422699|-0.9897751808166504|0|0|0|-1|-1|3
2021-03-05 00:23:42.068 +0000|235648.80414525|-0.124755859375|0.04571533203125|-0.9642181396484375|235648.78418125|1.791097648640515|-0.1279916702761713|-0.06487080500746319|0.0141182616353035|0.007361123338341713|-0.104124091565609|0.001428008079528809|-0.01906418055295944|0.01253074407577515|XArbitraryZVertical|-0.02966174096235668|0.0652161362978549|-0.7798411305041548|-0.6218639498136969|-0.1273740231990814|0.06482531875371933|-0.9897340536117554|0|0|0|-1|-1|3
2021-03-05 00:23:42.088 +0000|235648.82410825|-0.1299591064453125|0.05352783203125|-0.957550048828125|235648.80414525|1.788974871906122|-0.1284758209035751|-0.06492792452738794|-0.05063488334417343|-0.02625297568738461|-0.1265763193368912|-0.003372862935066223|-0.01751899719238281|0.02325320243835449|XArbitraryZVertical|-0.02976324535860674|0.06542049603550287|-0.7791738963404038|-0.6226735315162354|-0.1278527081012726|0.0648823156952858|-0.989668607711792|0|0|0|-1|-1|3
2021-03-05 00:23:42.108 +0000|235648.84407225|-0.1309661865234375|0.07977294921875|-0.9462432861328125|235648.82410825|1.785976356696175|-0.1292556596322794|-0.06502804421799586|-0.03753151744604111|-0.04008197039365768|-0.1661644726991653|0.001639991998672485|-0.01638294011354446|0.03010475635528564|XArbitraryZVertical|-0.02993718481369833|0.06574711359655371|-0.7782286121950346|-0.6238119310133459|-0.1286236196756363|0.06498222053050995|-0.9895621538162231|0|0|0|-1|-1|3
2021-03-05 00:23:42.128 +0000|235648.86403625|-0.1116485595703125|0.0894927978515625|-0.916473388671875|235648.84407225|1.782293877305772|-0.1302523924028516|-0.06364396167604039|0.1631506234407425|-0.003978882450610399|-0.2211079746484756|0.0017223060131073|0.005796000361442566|0.03880763053894043|XArbitraryZVertical|-0.03063828656222118|0.06557778058081563|-0.7770527322994083|-0.6252598729903919|-0.1296214312314987|0.06360100209712982|-0.9895216822624207|0|0|0|-1|-1|3
2021-03-05 00:23:42.148 +0000|235648.88400025|-0.130767822265625|0.00140380859375|-0.931304931640625|235648.86403625|1.777653013381438|-0.1310856411382688|-0.05803039358141576|0.2861544787883759|-0.05030616745352745|-0.3622867465019226|0.02671553194522858|0.03219690546393394|0.05531877279281616|XArbitraryZVertical|-0.03257806986751381|0.0637401517737536|-0.7755373144505328|-0.6272302683258053|-0.1304905265569687|0.05799783021211624|-0.9897516965866089|0|0|0|-1|-1|3
2021-03-05 00:23:42.169 +0000|235648.90396325|-0.1350555419921875|-0.0269012451171875|-0.9037933349609375|235648.88400025|1.770459324326599|-0.133182748440808|-0.05124105614908375|0.2568101286888123|-0.1239403337240219|-0.4357548356056213|0.01544284820556641|-0.03016147390007973|0.05992698669433594|XArbitraryZVertical|-0.03530781574360828|0.06190051868834461|-0.7731705639596763|-0.6301817506268501|-0.1326150894165039|0.05121863633394241|-0.9898433685302734|0|0|0|-1|-1|3
2021-03-05 00:23:42.188 +0000|235648.92392725|-0.1351165771484375|-0.036865234375|-0.8883514404296875|235648.90396325|1.762666471793106|-0.1370028145544263|-0.04637798630079162|0.06433556228876114|-0.2449630498886108|-0.3962621986865997|-0.002472966909408569|-0.07022607326507568|0.08424538373947144|XArbitraryZVertical|-0.03808417001909659|0.06137832001254616|-0.7705807013357437|-0.6332360075392633|-0.1364277750253677|0.04636136069893837|-0.9895645976066589|0|0|0|-1|-1|3
2021-03-05 00:23:42.208 +0000|235648.94389125|-0.140655517578125|-0.0407257080078125|-0.824554443359375|235648.94389125|1.744305738935688|-0.1526662524550744|-0.04615324152528782|-0.05505260080099106|-0.4639475643634796|-0.5417194366455078|0.01084449887275696|-0.07485386729240417|0.1465726494789124|XArbitraryZVertical|-0.04357928455056587|0.06665228863696206|-0.7644141419524565|-0.639788453353906|-0.1519119739532471|0.04613685607910156|-0.9873166084289551|0|0|0|-1|-1|3
2021-03-05 00:23:42.228 +0000|235648.96385525|-0.118927001953125|-0.1448974609375|-0.788604736328125||||||||||||||||||||||||3
2021-03-05 00:23:42.248 +0000|235648.98381825|-0.1510772705078125|-0.1902618408203125|-0.7624664306640625|235648.98381825|1.716925971515338|-0.1746677395971991|-0.0483667778697002|-0.3017490208148956|-0.62213134765625|-0.7424677610397339|0.02225631475448608|-0.2439197897911072|0.2190605401992798|XArbitraryZVertical|-0.05024985293656775|0.07522374175818861|-0.7551124873119335|-0.6493238025978301|-0.1735777109861374|0.04834792390465736|-0.9836326837539673|0|0|0|-1|-1|3
2021-03-05 00:23:42.267 +0000|235649.00378225|-0.1997528076171875|-0.1856689453125|-0.7713623046875||||||||||||||||||||||||3
2021-03-05 00:23:42.287 +0000|235649.02374625|-0.2809600830078125|-0.0936126708984375|-0.8161773681640625|235649.00378225|1.700142808576713|-0.1890584745053549|-0.05388753487027989|-0.5433105230331421|-0.7274997234344482|-0.8307958245277405|0.003503113985061646|-0.2488992512226105|0.2026492357254028|XArbitraryZVertical|-0.05319148287038963|0.08241793408456154|-0.7493798194416873|-0.6548342993767948|-0.187661424279213|0.05386145785450935|-0.9807559251785278|0|0|0|-1|-1|3
2021-03-05 00:23:42.307 +0000|235649.04370925|-0.2881317138671875|-0.1278839111328125|-0.7917633056640625|235649.02374625|1.679997119998549|-0.2050203798490894|-0.06244718564629964|-0.687938928604126|-0.7075644135475159|-0.9939181804656982|-0.05581238865852356|-0.1735973656177521|0.1616577506065369|XArbitraryZVertical|-0.05543479457654017|0.09139337871964615|-0.7425043554423003|-0.6612575869977302|-0.2031902819871902|0.06240660697221756|-0.9771484732627869|0|0|0|-1|-1|3
2021-03-05 00:23:42.327 +0000|235649.06367325|-0.281585693359375|-0.2008514404296875|-0.735198974609375|235649.04370925|1.65614242701979|-0.219820917737856|-0.07148726765608562|-0.7082647681236267|-0.5834994316101074|-1.13981831073761|-0.07591333985328674|-0.1859130412340164|0.1643465757369995|XArbitraryZVertical|-0.056726277079934|0.1003005768835984|-0.7343667548190863|-0.6689000886224921|-0.2174979150295258|0.0714263916015625|-0.973443865776062|0|0|0|-1|-1|3
2021-03-05 00:23:42.347 +0000|235649.08363725|-0.324310302734375|-0.148345947265625|-0.673553466796875|235649.08363725|1.602776869088929|-0.2391573177014153|-0.09908440336358017|-1.596960425376892|-0.1013155579566956|-1.084620237350464|-0.0732835978269577|-0.2788997292518616|0.274725615978241|XArbitraryZVertical|-0.05137949485139841|0.1182108334547664|-0.7164281369937424|-0.6856507845357185|-0.2357221394777298|0.09892234951257706|-0.9667726755142212|0|0|0|-1|-1|3
2021-03-05 00:23:42.367 +0000|235649.10360125|-0.3532867431640625|-0.1634979248046875|-0.6081390380859375||||||||||||||||||||||||3
2021-03-05 00:23:42.387 +0000|235649.12356425|-0.3705902099609375|-0.146881103515625|-0.595123291015625|235649.10360125|1.574006254155702|-0.2387124142889503|-0.1351356471740169|-2.603315830230713|0.5974991917610168|-0.8062210083007812|-0.1255672425031662|-0.2823076844215393|0.3235636353492737|XArbitraryZVertical|-0.0368143885773006|0.1313479535721217|-0.7072729527782569|-0.6936552414476435|-0.2342960387468338|0.1347247213125229|-0.9627848267555237|0|0|0|-1|-1|3
2021-03-05 00:23:42.407 +0000|235649.14352825|-0.4253387451171875|0.2090911865234375|-0.6883087158203125|235649.12356425|1.547067305356652|-0.2215891519657705|-0.1931539416392423|-3.639288187026978|1.554148197174072|-0.3983196616172791|-0.1326040178537369|-0.3546748161315918|0.3937939405441284|XArbitraryZVertical|-0.008325064670716899|0.1456941626407682|-0.6987760095387113|-0.7002970583784531|-0.2156931012868881|0.1919551342725754|-0.9574078321456909|0|0|0|-1|-1|3
2021-03-05 00:23:42.427 +0000|235649.16349225|-0.3345184326171875|0.7926483154296875|-0.977996826171875|235649.14352825|1.528301400423988|-0.1847481714759288|-0.2752007328125647|-4.670794010162354|2.450506687164307|0.3159601092338562|-0.2527483701705933|-0.1942406892776489|0.3571874499320984|XArbitraryZVertical|0.03538624784170397|0.1604712723458011|-0.6915967260701319|-0.7033425648595439|-0.1767865270376205|0.2717401087284088|-0.9459935426712036|0|0|0|-1|-1|3
2021-03-05 00:23:42.447 +0000|235649.18345625|-0.1917572021484375|0.74298095703125|-1.064468383789062|235649.16349225|1.513766338312653|-0.1370356200563993|-0.3691601567885123|-4.801239013671875|2.612845659255981|-0.2632323503494263|-0.2531654238700867|0.3523788154125214|0.00301969051361084|XArbitraryZVertical|0.08689925643034954|0.1746560259454292|-0.6825459504148457|-0.7043257578592144|-0.1274040043354034|0.3608323037624359|-0.9238876104354858|0|0|0|-1|-1|3
2021-03-05 00:23:42.467 +0000|235649.20341925|-0.1430206298828125|0.7443695068359375|-1.0477294921875|235649.18345625|1.487871956534149|-0.09717662975457952|-0.454904332526786|-4.01869535446167|2.473204135894775|-0.9748365879058838|-0.092439204454422|0.3609624207019806|-0.1690148711204529|XArbitraryZVertical|0.1336827552883971|0.1873404868733796|-0.6670277254933679|-0.7085946849294049|-0.08715673536062241|0.4393763840198517|-0.8940649032592773|0|0|0|-1|-1|3
2021-03-05 00:23:42.487 +0000|235649.22338325|-0.0921173095703125|0.6245880126953125|-0.9372406005859375|235649.20341925|1.454232072381841|-0.06640969680027624|-0.5260889854781075|-3.482802867889404|2.145544290542603|-1.430910587310791|-0.1158303469419479|0.2034876942634583|-0.2074868679046631|XArbitraryZVertical|0.1728448464023156|0.1966951278240384|-0.6479487932244709|-0.7152608140636092|-0.05738741531968117|0.5021550059318542|-0.8628713488578796|0|0|0|-1|-1|3
2021-03-05 00:23:42.507 +0000|235649.24334725|-0.0730133056640625|0.7488861083984375|-0.8366851806640625|235649.22338325|1.413106388083564|-0.04602117080875082|-0.5888698926289896|-2.998116016387939|1.997674465179443|-1.671888709068298|-0.04563654959201813|0.08132767677307129|-0.10089111328125|XArbitraryZVertical|0.2063735357980035|0.2050993316805241|-0.6261919201219404|-0.7233449915324874|-0.03825626894831657|0.5554215908050537|-0.8306884765625|0|0|0|-1|-1|3
2021-03-05 00:23:42.527 +0000|235649.26331025|-0.0407562255859375|0.7381744384765625|-0.8042449951171875|235649.24334725|1.367216351991666|-0.03388371536662772|-0.6432020156017478|-2.594193696975708|1.946816921234131|-1.867272853851318|-0.03955778479576111|0.1289228200912476|-0.054024338722229|XArbitraryZVertical|0.2348745672720447|0.212070463206445|-0.6032786564940904|-0.7320620839387924|-0.02710786461830139|0.5997607111930847|-0.7997201085090637|0|0|0|-1|-1|3
2021-03-05 00:23:42.547 +0000|235649.28327425|-0.0048828125|0.674468994140625|-0.703125|235649.26331025|1.316855026625608|-0.02771048926012027|-0.688099054074081|-1.964774250984192|1.791210055351257|-1.973204374313354|-0.02676963619887829|0.1015939116477966|-0.04871886968612671|XArbitraryZVertical|0.2587846838152846|0.2166828348337426|-0.5796569305253498|-0.7416716408934817|-0.02140235714614391|0.6350699067115784|-0.7721580862998962|0|0|0|-1|-1|3
2021-03-05 00:23:42.567 +0000|235649.30323825|-0.03857421875|0.8043975830078125|-0.6363067626953125|235649.28327425|1.262734684488007|-0.02891678504728746|-0.7188710842551318|-1.244781613349915|1.584303736686707|-2.007044792175293|0.01563948392868042|0.05786466598510742|0.02501648664474487|XArbitraryZVertical|0.2759186527304015|0.2185208441024681|-0.556576855207765|-0.7525555705007319|-0.02175828441977501|0.6585355401039124|-0.7522350549697876|0|0|0|-1|-1|3
2021-03-05 00:23:42.587 +0000|235649.32320225|-0.031951904296875|0.7550811767578125|-0.597503662109375|235649.30323825|1.209420823466465|-0.03566057836482098|-0.7375983779102199|-0.8867006301879883|1.27400803565979|-1.973210215568542|-0.01379010081291199|0.07126200199127197|0.09035384654998779|XArbitraryZVertical|0.2870657788737989|0.2185991324604315|-0.5355001397052934|-0.7635753661259604|-0.02638629637658596|0.6725124716758728|-0.7396153211593628|0|0|0|-1|-1|3
2021-03-05 00:23:42.607 +0000|235649.34316525|-0.04864501953125|0.8233795166015625|-0.5563201904296875|235649.32320225|1.154316810137512|-0.05170249522284515|-0.7526474066990656|-0.8093228936195374|0.8479437232017517|-2.015824317932129|0.008407745510339737|0.09393817186355591|0.1229189038276672|XArbitraryZVertical|0.2947544118564813|0.2206051928647666|-0.5152527833653756|-0.7739300064800406|-0.03771989420056343|0.6835734248161316|-0.7289063930511475|0|0|0|-1|-1|3
2021-03-05 00:23:42.627 +0000|235649.36312925|-0.0600738525390625|0.7857818603515625|-0.525634765625|235649.34316525|1.097711101842078|-0.07906399788585949|-0.7671321650859815|-0.9296028614044189|0.3619629740715027|-2.009217023849487|0.01411936059594154|0.119921863079071|0.1404152512550354|XArbitraryZVertical|0.2998936361304679|0.2263542074302167|-0.4960414620722705|-0.7827965133775122|-0.05685921385884285|0.6940735578536987|-0.7176551818847656|0|0|0|-1|-1|3
2021-03-05 00:23:42.647 +0000|235649.38309325|-0.084075927734375|0.8760833740234375|-0.5226898193359375|235649.36312925|1.040712819078322|-0.116310695740243|-0.7812042419683942|-0.8140700459480286|-0.07841029018163681|-1.937273383140564|0.01926133036613464|0.08414936065673828|0.1820294857025146|XArbitraryZVertical|0.3030707747005141|0.2356136955520481|-0.4781646898676447|-0.7899321901182738|-0.08240219950675964|0.704135000705719|-0.7052685618400574|0|0|0|-1|-1|3
2021-03-05 00:23:42.669 +0000|235649.40305725|-0.14349365234375|0.772796630859375|-0.4878692626953125|235649.38309325|0.9845158224463316|-0.1619875009614977|-0.7896332562485022|-0.7142766118049622|-0.4869812726974487|-1.875626802444458|0.03821030259132385|0.1405519247055054|0.1536742448806763|XArbitraryZVertical|0.302563269060182|0.2470048099998065|-0.4622514020664112|-0.7960954014634799|-0.1135581955313683|0.7100951075553894|-0.694888174533844|0|0|0|-1|-1|3
2021-03-05 00:23:42.687 +0000|235649.42302025|-0.2266082763671875|1.005279541015625|-0.5247039794921875|235649.40305725|0.9306791500249765|-0.2120212029777552|-0.7968971835278851|-0.6430941820144653|-0.6714310050010681|-1.698558807373047|0.01522883772850037|0.0468330979347229|0.1874136924743652|XArbitraryZVertical|0.3010260007513887|0.2602769327491365|-0.4479417418491136|-0.8006170259614116|-0.1470800638198853|0.7151908874511719|-0.683278501033783|0|0|0|-1|-1|3
2021-03-05 00:23:42.707 +0000|235649.44298425|-0.2767333984375|1.025177001953125|-0.6013946533203125|235649.42302025|0.8832566262243799|-0.260887786134145|-0.7976446518330783|-0.15338234603405|-0.8371946811676025|-1.50526225566864|-0.02939096093177795|0.2362980842590332|0.1732664108276367|XArbitraryZVertical|0.296860660921422|0.2729338589681352|-0.436188036740261|-0.8044382607523282|-0.1801427453756332|0.7157131433486938|-0.6747617125511169|0|0|0|-1|-1|3
2021-03-05 00:23:42.727 +0000|235649.46294825|-0.26873779296875|1.041061401367188|-0.5881500244140625|235649.44298425|0.8452639596127792|-0.3062230633052741|-0.7870144190720569|0.4213258922100067|-0.9797764420509338|-1.354888319969177|-0.05443836748600006|0.3306154608726501|0.07406091690063477|XArbitraryZVertical|0.2878275790491698|0.283892270877322|-0.427714958012964|-0.8084680115712796|-0.2128193229436874|0.7082487344741821|-0.67312091588974|0|0|0|-1|-1|3
2021-03-05 00:23:42.747 +0000|235649.48291125|-0.290557861328125|0.94256591796875|-0.5749359130859375|235649.46294825|0.8156579645628579|-0.3486344072192324|-0.7684151348681475|0.6307300925254822|-1.249052286148071|-1.257871747016907|-0.03393086791038513|0.3343309164047241|0.08992671966552734|XArbitraryZVertical|0.2750957789082192|0.294012985285414|-0.4218060056518327|-0.8123783090171162|-0.2456254363059998|0.6949965953826904|-0.6757573485374451|0|0|0|-1|-1|3
2021-03-05 00:23:42.767 +0000|235649.50287525|-0.2693634033203125|0.873992919921875|-0.63958740234375|235649.48291125|0.7906412008295148|-0.3937396587618776|-0.7502078183390659|0.3913379907608032|-1.544210314750671|-1.103152751922607|0.00544661283493042|0.2989526391029358|0.1009238958358765|XArbitraryZVertical|0.2614921180401764|0.3063281762838324|-0.4175409838208946|-0.8145210468782556|-0.2806541323661804|0.681790828704834|-0.6755698323249817|0|0|0|-1|-1|3
2021-03-05 00:23:42.786 +0000|235649.52283925|-0.291351318359375|0.83148193359375|-0.68878173828125|235649.50287525|0.7664939256520841|-0.4450355783586099|-0.7371143599852202|0.05271229147911072|-1.944619059562683|-1.027332186698914|0.0314471423625946|0.2228501439094543|0.03035241365432739|XArbitraryZVertical|0.2489156487499957|0.3223276257654468|-0.413961923406658|-0.8141139919726467|-0.318739652633667|0.6721541285514832|-0.6682918071746826|0|0|0|-1|-1|3
2021-03-05 00:23:42.806 +0000|235649.54280325|-0.2755584716796875|0.7608489990234375|-0.726531982421875|235649.52283925|0.7430237561426545|-0.5014466417348523|-0.7294942906289837|-0.2228926718235016|-2.072909832000732|-0.9064745903015137|0.08819121122360229|0.1531484723091125|-0.04554951190948486|XArbitraryZVertical|0.2378426801081443|0.3414172568549578|-0.4110032632080581|-0.8111359460944441|-0.3583633899688721|0.6664927005767822|-0.6537302136421204|0|0|0|-1|-1|3
2021-03-05 00:23:42.826 +0000|235649.56276625|-0.33953857421875|0.7100372314453125|-0.6633148193359375|235649.54280325|0.7178149441844653|-0.5595044697857606|-0.7285538826853827|-0.6957715153694153|-2.005563259124756|-0.8021523952484131|0.1331464946269989|0.1307175159454346|-0.0877729058265686|XArbitraryZVertical|0.2299818237786219|0.3618363835983104|-0.4075488776328747|-0.8062795970975781|-0.3960249125957489|0.6657913327217102|-0.6323655843734741|0|0|0|-1|-1|3
2021-03-05 00:23:42.847 +0000|235649.58273025|-0.3805999755859375|0.77593994140625|-0.611328125|235649.56276625|0.6903230821918103|-0.6149233200263594|-0.7341830619594469|-0.9840903282165527|-1.760899066925049|-0.6616360545158386|0.07723131775856018|0.03749287128448486|-0.06884407997131348|XArbitraryZVertical|0.226320683190222|0.3815560827321411|-0.4032085136108202|-0.8003854864486672|-0.4282750487327576|0.6699808835983276|-0.6063877940177917|0|0|0|-1|-1|3
2021-03-05 00:23:42.866 +0000|235649.60269425|-0.44244384765625|0.8111419677734375|-0.5683746337890625|235649.58273025|0.6586883520775316|-0.6707298796485106|-0.7451983449701525|-1.358868360519409|-1.653802037239075|-0.5226695537567139|0.09727326035499573|0.07540726661682129|-0.04227226972579956|XArbitraryZVertical|0.2261425484928846|0.4012355559784354|-0.3978197154581924|-0.7934790933340312|-0.4568161070346832|0.678117573261261|-0.5757391452789307|0|0|0|-1|-1|3
