loggingTime(txt)|accelerometerTimestamp_sinceReboot(s)|accelerometerAccelerationX(G)|accelerometerAccelerationY(G)|accelerometerAccelerationZ(G)|motionTimestamp_sinceReboot(s)|motionYaw(rad)|motionRoll(rad)|motionPitch(rad)|motionRotationRateX(rad/s)|motionRotationRateY(rad/s)|motionRotationRateZ(rad/s)|motionUserAccelerationX(G)|motionUserAccelerationY(G)|motionUserAccelerationZ(G)|motionAttitudeReferenceFrame(txt)|motionQuaternionX(R)|motionQuaternionY(R)|motionQuaternionZ(R)|motionQuaternionW(R)|motionGravityX(G)|motionGravityY(G)|motionGravityZ(G)|motionMagneticFieldX(µT)|motionMagneticFieldY(µT)|motionMagneticFieldZ(µT)|motionHeading(°)|motionMagneticFieldCalibrationAccuracy(Z)|label
2021-03-10 21:04:19.003 +0000|290741.441358875|-0.1842041015625|-0.212860107421875|-0.986053466796875|290741.441358875|-2.665942436460516|-0.2025939776876906|0.183738486684601|0.04816814512014389|0.06288051605224609|0.01165970601141453|0.02239376306533813|-0.04220817983150482|-0.01977413892745972|XArbitraryZVertical|-0.07636082005925579|-0.1124240384030067|-0.9649791416905464|0.2243775264564224|-0.1978240460157394|-0.1827064007520676|-0.9630597233772278|0|0|0|-1|-1|3
2021-03-10 21:04:19.004 +0000|290741.461322875|-0.1994781494140625|-0.246734619140625|-0.9858856201171875||||||||||||||||||||||||3
2021-03-10 21:04:19.005 +0000|290741.481287875|-0.2081146240234375|-0.2263641357421875|-0.9774017333984375|290741.461322875|-2.665314444433257|-0.2007351767293129|0.1855586170606497|0.01050938200205564|0.1391740590333939|0.06002874672412872|-0.03457807004451752|-0.02902066707611084|-0.02467936277389526|XArbitraryZVertical|-0.07520785205271399|-0.1131133525805263|-0.9649193533844518|0.2246769145895071|-0.1959669440984726|-0.1844955831766129|-0.9630982875823975|0|0|0|-1|-1|3
2021-03-10 21:04:19.005 +0000|290741.501251875|-0.1623382568359375|-0.2325286865234375|-0.9936065673828125|290741.481287875|-2.665755820225417|-0.1985832025612362|0.1844672963838847|-0.05066192895174026|0.08043240010738373|-0.02976754307746887|0.03338056802749634|-0.07716675102710724|-0.00390625|XArbitraryZVertical|-0.0743267547930949|-0.1123309244466168|-0.9650853355682318|0.2246496713284873|-0.1939335316419601|-0.1834228932857513|-0.963714599609375|0|0|0|-1|-1|3
2021-03-10 21:04:19.014 +0000|290741.521215875|-0.1712799072265625|-0.210174560546875|-0.9634246826171875|290741.501251875|-2.666843149881522|-0.195846680514799|0.1840893708471055|0.07076264917850494|0.1577981859445572|-0.09906317293643951|0.007791623473167419|-0.01192547380924225|-0.02674871683120728|XArbitraryZVertical|-0.07311277289782694|-0.1118021215947819|-0.9653207183520446|0.2243003539892358|-0.1913090646266937|-0.1830513626337051|-0.9643096327781677|0|0|0|-1|-1|3
2021-03-10 21:04:19.034 +0000|290741.541179875|-0.1621856689453125|-0.2493133544921875|-0.94744873046875|290741.521215875|-2.668819791088048|-0.1923453341103804|0.1870488585997691|0.114943228662014|0.1728795617818832|-0.140181228518486|0.01570801436901093|-0.04048043489456177|-0.005090594291687012|XArbitraryZVertical|-0.07117651227593508|-0.1127613304978852|-0.9655691342030458|0.2233719810239854|-0.1878271251916885|-0.1859600394964218|-0.9644375443458557|0|0|0|-1|-1|3
2021-03-10 21:04:19.053 +0000|290741.561144875|-0.15185546875|-0.218994140625|-0.9207916259765625|290741.541179875|-2.671423269889932|-0.1886624704302569|0.1902085656601032|0.07528388500213623|0.1543239802122116|-0.1599772870540619|0.01939848065376282|-0.05126224458217621|0.01513898372650146|XArbitraryZVertical|-0.06916619905955441|-0.1137788856929334|-0.965879269702183|0.2221434113062039|-0.1841628551483154|-0.18906369805336|-0.9645407795906067|0|0|0|-1|-1|3
2021-03-10 21:04:19.073 +0000|290741.581108875|-0.1306610107421875|-0.20953369140625|-0.9022674560546875|290741.561144875|-2.674187999634561|-0.1851398332474379|0.1933898682037659|0.0176391638815403|0.1429957002401352|-0.1311029493808746|0.02600455284118652|-0.0333687961101532|0.0385316014289856|XArbitraryZVertical|-0.06724275498889741|-0.1148245218160202|-0.9661923684013316|0.2208303701003574|-0.1806523501873016|-0.1921866685152054|-0.9645875096321106|0|0|0|-1|-1|3
2021-03-10 21:04:19.093 +0000|290741.601072875|-0.114776611328125|-0.185638427734375|-0.8936614990234375|290741.581108875|-2.67646714969753|-0.1825608517882519|0.1941876238152173|0.05775796994566917|0.104295440018177|-0.1201518550515175|0.03952538967132568|-0.02831351757049561|0.05661970376968384|XArbitraryZVertical|-0.0660327487357769|-0.1148482868956169|-0.9665003954678163|0.219832875459981|-0.1781362146139145|-0.192969486117363|-0.9648991227149963|0|0|0|-1|-1|3
2021-03-10 21:04:19.113 +0000|290741.621036875|-0.1055145263671875|-0.1788482666015625|-0.873565673828125|290741.601072875|-2.678619108338287|-0.1804105413440831|0.197609401875941|0.1763678193092346|0.0651395171880722|-0.1407670229673386|0.06090547144412994|0.01457834243774414|0.06896430253982544|XArbitraryZVertical|-0.06471313702574059|-0.1161889454408519|-0.9666799230897424|0.2187285532385029|-0.1759414672851562|-0.1963258236646652|-0.9646247029304504|0|0|0|-1|-1|3
2021-03-10 21:04:19.138 +0000|290741.641000875|-0.0987548828125|-0.1858367919921875|-0.8235321044921875|290741.621036875|-2.680761411382741|-0.1790340499978642|0.2040382878327706|0.3706091940402985|0.02813015319406986|-0.1738445609807968|0.06723792850971222|0.01555269956588745|0.08210378885269165|XArbitraryZVertical|-0.06341650863736459|-0.1190643762560042|-0.9667110056070082|0.2174212625966596|-0.174385130405426|-0.202625498175621|-0.9636040329933167|0|0|0|-1|-1|3
2021-03-10 21:04:19.153 +0000|290741.660965875|-0.0908966064453125|-0.181182861328125|-0.741546630859375|290741.641000875|-2.682952094935753|-0.1779900648044458|0.2160563276588222|0.7521222829818726|0.04612348228693008|-0.2427476346492767|0.07648460566997528|0.03402039408683777|0.1162875890731812|XArbitraryZVertical|-0.06163458943589839|-0.1246655986271827|-0.966491244524329|0.215764419865388|-0.1729353815317154|-0.2143793106079102|-0.9613193273544312|0|0|0|-1|-1|3
2021-03-10 21:04:19.173 +0000|290741.680929875|-0.0931854248046875|-0.301971435546875|-0.7223968505859375|290741.660965875|-2.685603724111087|-0.1756832324461593|0.2372089470755404|1.208114385604858|0.1326948553323746|-0.3883035182952881|0.07750992476940155|0.05629491806030273|0.196080207824707|XArbitraryZVertical|-0.05821646769362182|-0.134509600617893|-0.9658950917741589|0.2134591692693305|-0.1698866188526154|-0.2349906414747238|-0.957036018371582|0|0|0|-1|-1|3
2021-03-10 21:04:19.193 +0000|290741.700893875|-0.120086669921875|-0.518035888671875|-0.7222442626953125|290741.680929875|-2.690026793545985|-0.1707531722614956|0.2664498505243215|1.544476509094238|0.2727138102054596|-0.5108658075332642|0.07217720150947571|-0.003156036138534546|0.2198013067245483|XArbitraryZVertical|-0.05274362403508142|-0.1479091124578273|-0.9649999394048452|0.2100380593045257|-0.1639282703399658|-0.2633082270622253|-0.9506819844245911|0|0|0|-1|-1|3
2021-03-10 21:04:19.213 +0000|290741.720857875|-0.0721282958984375|-0.5512237548828125|-0.7978363037109375|290741.700893875|-2.695389319049991|-0.1613423701384174|0.2982527296782139|1.426958322525024|0.5247153639793396|-0.515159547328949|0.03764538466930389|-0.1702913343906403|0.2112901210784912|XArbitraryZVertical|-0.04494835208115978|-0.1620524653624194|-0.9639048343692784|0.206412286525991|-0.1535511016845703|-0.2938505113124847|-0.9434372782707214|0|0|0|-1|-1|3
2021-03-10 21:04:19.233 +0000|290741.740822875|-0.1031646728515625|-0.4608612060546875|-0.867462158203125|290741.720857875|-2.702545133366207|-0.1480132454071474|0.3229474396070733|0.8763949871063232|0.5617700815200806|-0.5600910186767578|0.06277750432491302|-0.2528122067451477|0.1634297966957092|XArbitraryZVertical|-0.03631101877194931|-0.1723769403476061|-0.9632567813293647|0.2027416155783005|-0.1398496329784393|-0.3173629939556122|-0.9379354119300842|0|0|0|-1|-1|3
2021-03-10 21:04:19.253 +0000|290741.760786875|-0.102752685546875|-0.4318084716796875|-0.9324188232421875|290741.740822875|-2.711742481366778|-0.1344761850512019|0.3364622106433958|0.4127697646617889|0.4963100552558899|-0.4969804286956787|0.02311436831951141|-0.1406449973583221|0.08407288789749146|XArbitraryZVertical|-0.02908525127964935|-0.1773437296792159|-0.9634225119540301|0.1987972910779924|-0.1265536844730377|-0.3301497399806976|-0.935406506061554|0|0|0|-1|-1|3
2021-03-10 21:04:19.273 +0000|290741.780750875|-0.1075439453125|-0.3540191650390625|-0.943145751953125|290741.760786875|-2.721768429049992|-0.1208349236703018|0.3438728718506792|0.1901547908782959|0.4695931971073151|-0.5348972082138062|0.006993070244789124|-0.1135936379432678|0.02852439880371094|XArbitraryZVertical|-0.02259878189412286|-0.1794259031975109|-0.9640226910044229|0.1948232010998297|-0.1134841367602348|-0.3371357619762421|-0.9345912933349609|0|0|0|-1|-1|3
2021-03-10 21:04:19.293 +0000|290741.800714875|-0.06500244140625|-0.3554229736328125|-0.836334228515625|290741.780750875|-2.732408294590785|-0.1092869076079247|0.3462814914691396|0.0003656847402453423|0.3757114410400391|-0.4921374917030334|-0.001057662069797516|-0.02172744274139404|-0.01450961828231812|XArbitraryZVertical|-0.01772871785738801|-0.1793625476871802|-0.9649763314224181|0.1906186107911168|-0.1025952622294426|-0.3394023776054382|-0.9350295662879944|0|0|0|-1|-1|3
2021-03-10 21:04:19.313 +0000|290741.820679875|-0.0424652099609375|-0.3263092041015625|-0.8539886474609375|290741.800714875|-2.741976622704522|-0.09812533964222189|0.3460436975005264|-0.1785625666379929|0.3394856750965118|-0.3696629703044891|-0.01042421907186508|-0.0291685163974762|0.06491982936859131|XArbitraryZVertical|-0.01322019438686169|-0.1781204014699|-0.965984891244426|0.1870071714656027|-0.09216059744358063|-0.3391786813735962|-0.9361966848373413|0|0|0|-1|-1|3
2021-03-10 21:04:19.333 +0000|290741.840643875|-0.0389251708984375|-0.1981658935546875|-0.9968109130859375|290741.820679875|-2.749380157299751|-0.08941449862422592|0.3421133399293431|-0.281062126159668|0.2559357285499573|-0.2881893515586853|0.04746894538402557|-0.003312230110168457|0.09001791477203369|XArbitraryZVertical|-0.01006072613330192|-0.1753754163211189|-0.9670345730645092|0.1843542216410841|-0.08412053436040878|-0.3354786932468414|-0.9382845163345337|0|0|0|-1|-1|3
2021-03-10 21:04:19.353 +0000|290741.860607875|-0.101409912109375|-0.240203857421875|-1.048904418945312|290741.840643875|-2.75517882346038|-0.08465041038846702|0.3374083500086695|-0.2154669612646103|0.06544087827205658|-0.2307204455137253|0.04709779471158981|0.09682023525238037|-0.02048689126968384|XArbitraryZVertical|-0.008725662617924568|-0.1726423508743981|-0.9679584896020043|0.1821393817749143|-0.07978209853172302|-0.3310426771640778|-0.9402369856834412|0|0|0|-1|-1|3
2021-03-10 21:04:19.373 +0000|290741.880571875|-0.0809783935546875|-0.17999267578125|-1.031585693359375|290741.860607875|-2.760523525995864|-0.08095476672163759|0.3359324636518807|0.02094306424260139|0.04336567223072052|-0.231206014752388|-0.03295246511697769|0.1000964045524597|-0.08581358194351196|XArbitraryZVertical|-0.007540043007577275|-0.171573515995813|-0.9685728816643914|0.1799230127728871|-0.07634621113538742|-0.3296496570110321|-0.941011369228363|0|0|0|-1|-1|3
2021-03-10 21:04:19.393 +0000|290741.900536875|-0.0533447265625|-0.1815338134765625|-0.99578857421875|290741.880571875|-2.764537859887295|-0.08083533569205077|0.3352514953664195|-0.1285489499568939|-0.1398175656795502|-0.1431321799755096|0.002658829092979431|0.1432766616344452|-0.1098881363868713|XArbitraryZVertical|-0.00789166658062939|-0.171218359037917|-0.9689857761576112|0.1780127638384082|-0.07625193148851395|-0.3290066719055176|-0.9412440061569214|0|0|0|-1|-1|3
2021-03-10 21:04:19.413 +0000|290741.920500875|-0.0776519775390625|-0.1767120361328125|-0.9709930419921875|290741.900536875|-2.766564788470105|-0.08402723902673803|0.3321363194602965|-0.2949971556663513|-0.2723815143108368|-0.0217235516756773|0.01789441704750061|0.1418133974075317|-0.05875039100646973|XArbitraryZVertical|-0.009908662495717105|-0.1699868999785553|-0.9693935296387162|0.1768687672868099|-0.07934153079986572|-0.326063334941864|-0.9420125484466553|0|0|0|-1|-1|3
2021-03-10 21:04:19.433 +0000|290741.940464875|-0.0913543701171875|-0.1841583251953125|-0.9837188720703125|290741.920500875|-2.766934929902254|-0.08868211669596471|0.325976413446367|-0.1984292715787888|-0.2151753306388855|0.05189509689807892|0.01877741515636444|0.1438880562782288|-0.02904045581817627|XArbitraryZVertical|-0.01278363953498913|-0.1674177392491828|-0.9698705006704409|0.1765194000967547|-0.08390190452337265|-0.320233941078186|-0.943615734577179|0|0|0|-1|-1|3
2021-03-10 21:04:19.453 +0000|290741.960428875|-0.1662750244140625|-0.2549591064453125|-1.0615234375|290741.940464875|-2.765668750315693|-0.09236809392882997|0.3211521323568269|-0.05948115140199661|-0.1305696368217468|0.07391038537025452|-0.006213754415512085|0.1403364837169647|-0.03260481357574463|XArbitraryZVertical|-0.01492686192281232|-0.1654190953664376|-0.9700943391467081|0.1770050395205489|-0.08752095699310303|-0.3156599998474121|-0.9448274374008179|0|0|0|-1|-1|3
2021-03-10 21:04:19.473 +0000|290741.980392875|-0.1847381591796875|-0.3188934326171875|-1.217697143554688|290741.960428875|-2.763676093682506|-0.09353897685517552|0.3171002689783988|-0.1103509590029716|0.1567485332489014|0.09811337292194366|-0.02416910231113434|0.06269770860671997|-0.05263674259185791|XArbitraryZVertical|-0.01571995391372747|-0.1635784410453021|-0.9702068901173659|0.1780268124679206|-0.08874591439962387|-0.3118127286434174|-0.9459899663925171|0|0|0|-1|-1|3
2021-03-10 21:04:19.493 +0000|290742.000357875|-0.078826904296875|-0.4202423095703125|-1.19171142578125|290741.980392875|-2.763498120812756|-0.0886352758196325|0.3121466216761773|-0.08812931180000305|0.3640636205673218|-0.08990482240915298|-0.1107503324747086|0.01709365844726562|-0.2627526521682739|XArbitraryZVertical|-0.01380272374918498|-0.1607455661508206|-0.9705870582529805|0.1786930079778204|-0.08424171060323715|-0.307102233171463|-0.9479407072067261|0|0|0|-1|-1|3
2021-03-10 21:04:19.513 +0000|290742.020321875|-0.1418304443359375|-0.3209381103515625|-1.119491577148438|290742.000357875|-2.766818794097874|-0.08185053858633946|0.3063733895912835|-0.5669475793838501|0.129749670624733|-0.1907358318567276|-0.01889555901288986|-0.1233849227428436|-0.2554773092269897|XArbitraryZVertical|-0.01132469769205064|-0.1573242755460077|-0.9713392102920365|0.1778228514037409|-0.07795194536447525|-0.3016029000282288|-0.9502416253089905|0|0|0|-1|-1|3
2021-03-10 21:04:19.533 +0000|290742.040285875|-0.1455078125|-0.30548095703125|-1.07037353515625|290742.020321875|-2.773134763804602|-0.07912983084590026|0.2936503645175447|-0.6574127674102783|0.03231147676706314|-0.2959780991077423|-0.04452989995479584|-0.05527836084365845|-0.1848701238632202|XArbitraryZVertical|-0.01168766733253094|-0.1508779572120725|-0.9727994236439073|0.1753869234635164|-0.07566355168819427|-0.2894482612609863|-0.9541984796524048|0|0|0|-1|-1|3
2021-03-10 21:04:19.553 +0000|290742.060249875|-0.1114349365234375|-0.294830322265625|-0.9923248291015625|290742.040285875|-2.780994237220825|-0.0755044072062538|0.2822791271508853|-0.552607536315918|0.0735122337937355|-0.3856126368045807|-0.08348224312067032|-0.02122890949249268|-0.1224066019058228|XArbitraryZVertical|-0.01155441546029751|-0.1449935182739229|-0.9742657193755857|0.1721909831000792|-0.07244729250669479|-0.2785452902317047|-0.957686722278595|0|0|0|-1|-1|3
2021-03-10 21:04:19.573 +0000|290742.080214875|-0.1208343505859375|-0.2764434814453125|-0.9242401123046875|290742.060249875|-2.791166990954736|-0.0730179379915597|0.2729684206758854|-0.4397144019603729|-0.0683823823928833|-0.5281869769096375|-0.03845161199569702|-0.02974057197570801|-0.06913208961486816|XArbitraryZVertical|-0.01190575490985623|-0.1401920027669172|-0.9757479426040313|0.1676912459554252|-0.07025197148323059|-0.2695911228656769|-0.9604089260101318|0|0|0|-1|-1|3
2021-03-10 21:04:19.593 +0000|290742.100178875|-0.1863861083984375|-0.1361236572265625|-1.044723510742188|290742.080214875|-2.803497854818344|-0.0711198175153633|0.2653750409700361|-0.4542202651500702|-0.08096155524253845|-0.5919098854064941|-0.05255187302827835|-0.02724909782409668|0.03773480653762817|XArbitraryZVertical|-0.01249329817485848|-0.1362591006931936|-0.9772543310811649|0.16202261394104|-0.06857237219810486|-0.2622711956501007|-0.9625547528266907|0|0|0|-1|-1|3
2021-03-10 21:04:19.613 +0000|290742.120142875|-0.1920928955078125|-0.0849456787109375|-1.030654907226562|290742.100178875|-2.816498565335297|-0.0697069809450564|0.2557243854188082|-0.5743210911750793|-0.0718231275677681|-0.5925024151802063|-0.09344208240509033|0.08139169216156006|-0.03712755441665649|XArbitraryZVertical|-0.0134830355474439|-0.1313500409655904|-0.9788873529185882|0.1560288194900478|-0.06738553196191788|-0.2529463171958923|-0.9651307463645935|0|0|0|-1|-1|3
2021-03-10 21:04:19.647 +0000|290742.140106875|-0.121307373046875|-0.1824798583984375|-0.8603515625|290742.120142875|-2.82913019287226|-0.0674441008778405|0.2459204318250552|-0.4658295214176178|0.01670577749609947|-0.5425189733505249|-0.1412691175937653|0.160059854388237|-0.1182289123535156|XArbitraryZVertical|-0.01398041930278694|-0.12629435075368|-0.9804486682083806|0.1502490276412768|-0.06536537408828735|-0.2434491664171219|-0.9677085876464844|0|0|0|-1|-1|3
2021-03-10 21:04:19.662 +0000|290742.160070875|-0.1019744873046875|-0.12213134765625|-0.9052886962890625|290742.140106875|-2.84000493731152|-0.06250201708616672|0.23882896805213|-0.3649179935455322|0.1661060303449631|-0.4804946780204773|-0.07763248682022095|0.06804689764976501|0.09969288110733032|XArbitraryZVertical|-0.01278389074463887|-0.1223819166543252|-0.9816914364127138|0.1454003039138574|-0.06068840622901917|-0.2365649938583374|-0.9697184562683105|0|0|0|-1|-1|3
2021-03-10 21:04:19.673 +0000|290742.180035875|-0.1009674072265625|-0.259552001953125|-0.956573486328125|290742.160070875|-2.849637479813566|-0.05777586958531472|0.2341987034676196|-0.1845865994691849|0.1336925774812698|-0.4204719960689545|-0.04284689202904701|0.1008532792329788|0.06917637586593628|XArbitraryZVertical|-0.01139376756414929|-0.1197137629504121|-0.9826696065325549|0.1410645853962185|-0.0561673641204834|-0.2320636361837387|-0.9710776209831238|0|0|0|-1|-1|3
2021-03-10 21:04:19.692 +0000|290742.2|-0.0492706298828125|-0.3120269775390625|-0.9954071044921875|290742.180035875|-2.857766990508846|-0.05269671302103367|0.2340328695653356|0.1122015342116356|0.2210579067468643|-0.3788124620914459|-0.06570689380168915|0.006270572543144226|0.02955526113510132|XArbitraryZVertical|-0.009395132891380113|-0.1192365083947336|-0.9832712560570939|0.1373761412732593|-0.05123643204569817|-0.2319023311138153|-0.9713887572288513|0|0|0|-1|-1|3
2021-03-10 21:04:19.713 +0000|290742.219964|-0.0253753662109375|-0.352142333984375|-1.025131225585938|290742.2|-2.864320688896548|-0.04831607826168538|0.2333062931580095|0.1433211416006088|0.1976959556341171|-0.314535528421402|-0.00222078338265419|-0.06151388585567474|-0.0193016529083252|XArbitraryZVertical|-0.007681990723652572|-0.1185538559798483|-0.9837759182609201|0.1344286266226607|-0.04698877781629562|-0.2311954945325851|-0.9717719554901123|0|0|0|-1|-1|3
2021-03-10 21:04:19.733 +0000|290742.239928|-0.015350341796875|-0.3083038330078125|-1.02557373046875|290742.219964|-2.87045892436449|-0.04415338150688494|0.2322160568059259|-0.00845745112746954|0.1506566554307938|-0.3359612822532654|0.005371924489736557|-0.1253493577241898|-0.05324125289916992|XArbitraryZVertical|-0.006071910733764188|-0.1177198260036894|-0.9842594614382584|0.1316754423505245|-0.04295429214835167|-0.2301346659660339|-0.9722103476524353|0|0|0|-1|-1|3
2021-03-10 21:04:19.752 +0000|290742.259893|-0.01190185546875|-0.22705078125|-0.989532470703125|290742.239928|-2.877724706227568|-0.04067486701905824|0.2282245399991197|-0.2250760644674301|0.08477836102247238|-0.3665133416652679|0.02551013603806496|-0.09665806591510773|-0.04428362846374512|XArbitraryZVertical|-0.005052196215502344|-0.11550971061081|-0.9849630587605673|0.1283735153241653|-0.03960922732949257|-0.2262484580278397|-0.9732639789581299|0|0|0|-1|-1|3
2021-03-10 21:04:19.772 +0000|290742.279857|0.0045013427734375|-0.2048492431640625|-0.9848175048828125|290742.259893|-2.885189445486555|-0.03912627494040556|0.2227948086178425|-0.2409714013338089|0.04695374518632889|-0.3713775873184204|0.02636973187327385|-0.02614463865756989|-0.02259397506713867|XArbitraryZVertical|-0.005071015552052353|-0.1127192421984254|-0.9857355222743672|0.124877187152394|-0.03814948350191116|-0.2209562212228775|-0.9745373129844666|0|0|0|-1|-1|3
2021-03-10 21:04:19.792 +0000|290742.299821|0.0035247802734375|-0.1459197998046875|-0.978271484375|290742.279857|-2.893260817091422|-0.03703732307207036|0.2211552662101693|-0.08336757868528366|-0.03413396701216698|-0.3923964202404022|0.03899569436907768|0.00390276312828064|-0.018829345703125|XArbitraryZVertical|-0.004598327355925993|-0.11176341380491|-0.9863249153306409|0.1210419225631856|-0.036127008497715|-0.219356894493103|-0.9749755859375|0|0|0|-1|-1|3
2021-03-10 21:04:19.812 +0000|290742.319785|-0.0407257080078125|-0.215087890625|-0.951080322265625|290742.299821|-2.901070936048141|-0.03706496489206153|0.2248767942296065|0.2629960179328918|-0.1518321633338928|-0.3606628179550171|0.03731366991996765|0.06897926330566406|-0.0102381706237793|XArbitraryZVertical|-0.004822752563251285|-0.1135813109591969|-0.9865884881268379|0.1171289137070888|-0.03612345457077026|-0.2229862660169601|-0.9741520285606384|0|0|0|-1|-1|3
2021-03-10 21:04:19.833 +0000|290742.33975|-0.031951904296875|-0.2479705810546875|-0.947967529296875|290742.319785|-2.907373257996953|-0.03781426649388554|0.2348981282199142|0.5078693628311157|-0.09670541435480118|-0.2701558172702789|0.003411363810300827|0.04168857634067535|0.02949053049087524|XArbitraryZVertical|-0.004958120679125374|-0.1185496000593122|-0.9863911074958163|0.1138163154098018|-0.03676705062389374|-0.2327439188957214|-0.9718428254127502|0|0|0|-1|-1|3
2021-03-10 21:04:19.852 +0000|290742.359714|-0.037506103515625|-0.261962890625|-0.9477081298828125|290742.33975|-2.911351674080727|-0.0380481620197355|0.2460089770542321|0.5006563067436218|-0.03812801837921143|-0.156191349029541|0.005781069397926331|0.0002336353063583374|0.01452404260635376|XArbitraryZVertical|-0.004663315482481646|-0.1240289567906786|-0.985965128505397|0.1116593105765737|-0.03689370676875114|-0.243535041809082|-0.9691901206970215|0|0|0|-1|-1|3
2021-03-10 21:04:19.872 +0000|290742.379678|-0.0326080322265625|-0.2897186279296875|-0.97271728515625|290742.359714|-2.914306390085063|-0.03756799098151733|0.2544242741739031|0.4096590280532837|0.004318242892622948|-0.1847939640283585|-0.00260559469461441|-0.002950459718704224|0.01726585626602173|XArbitraryZVertical|-0.004126662727505288|-0.1281414485530604|-0.9856174956105661|0.1100949075989625|-0.0363500639796257|-0.2516882717609406|-0.9671254754066467|0|0|0|-1|-1|3
2021-03-10 21:04:19.892 +0000|290742.399642|-0.0300445556640625|-0.24896240234375|-0.9434356689453125|290742.379678|-2.918530166028548|-0.03619502805371471|0.259297059213384|0.252602607011795|0.02199817076325417|-0.2460380643606186|-0.0008807182312011719|-0.03766623139381409|0.001169919967651367|XArbitraryZVertical|-0.003446001133739079|-0.1304585599088405|-0.9855454014813142|0.1080229044530822|-0.03497740626335144|-0.2564011812210083|-0.9659373760223389|0|0|0|-1|-1|3
2021-03-10 21:04:19.912 +0000|290742.419606|-0.0240631103515625|-0.2093048095703125|-0.9319000244140625|290742.399642|-2.923913463547415|-0.03412592587952484|0.2622302520534022|0.2177470326423645|0.05724750459194183|-0.292025089263916|0.001458793878555298|0.0005529224872589111|0.01960372924804688|XArbitraryZVertical|-0.002616072488957455|-0.1317847091537956|-0.9856491850538011|0.1054593070263187|-0.03295290842652321|-0.2592352032661438|-0.9652519226074219|0|0|0|-1|-1|3
2021-03-10 21:04:19.932 +0000|290742.439571|-0.0235137939453125|-0.3038177490234375|-0.986114501953125|290742.419606|-2.930264507782178|-0.0316063318641709|0.2667098175102101|0.2615755498409271|0.05256737023591995|-0.3653572797775269|0.00959450751543045|0.05101931095123291|0.02328932285308838|XArbitraryZVertical|-0.001553637017382523|-0.1338538068067871|-0.9856921401997847|0.1024287034623137|-0.03048375993967056|-0.2635590136051178|-0.9641615152359009|0|0|0|-1|-1|3
2021-03-10 21:04:19.952 +0000|290742.459535|-0.0341033935546875|-0.3524322509765625|-0.9904937744140625|290742.439571|-2.938146578047992|-0.02856430488427363|0.2724452128902193|0.3100108206272125|0.02434665337204933|-0.3871285915374756|0.003276064991950989|-0.002992242574691772|-0.01084882020950317|XArbitraryZVertical|-0.0002872740653159095|-0.1365227326346255|-0.9857111188237591|0.09866728284187076|-0.0275069922208786|-0.2690872550010681|-0.9627228975296021|0|0|0|-1|-1|3
2021-03-10 21:04:19.972 +0000|290742.479499|-0.04620361328125|-0.3501434326171875|-0.963165283203125|290742.459535|-2.945683820590068|-0.02659939812521328|0.2783934103182865|0.2315066158771515|-0.04168317839503288|-0.3448505699634552|-0.006089702248573303|-0.07995560765266418|-0.02571934461593628|XArbitraryZVertical|0.0004604832723308222|-0.1393583688414122|-0.9856737520504874|0.09500695990361835|-0.02557225711643696|-0.2748112678527832|-0.9611580371856689|0|0|0|-1|-1|3
2021-03-10 21:04:19.992 +0000|290742.499463|-0.0214996337890625|-0.2849273681640625|-0.9348602294921875|290742.479499|-2.952452866975076|-0.02615508685841821|0.282926959956154|0.174099326133728|-0.08795293420553207|-0.3180565237998962|-0.01785635948181152|-0.07131174206733704|-0.01071280241012573|XArbitraryZVertical|0.0004239173124196832|-0.1415726421783649|-0.9856767869815934|0.09164218297402865|-0.02511236071586609|-0.2791674435138702|-0.9599140286445618|0|0|0|-1|-1|3
2021-03-10 21:04:20.012 +0000|290742.519427|-0.0204315185546875|-0.2478485107421875|-0.9428863525390625|290742.499463|-2.959306831154784|-0.02643781951322437|0.2850738630108917|0.1379478722810745|-0.1143219619989395|-0.3530739545822144|-0.005958408117294312|-0.02721285820007324|0.0133674144744873|XArbitraryZVertical|-0.0001019258558436625|-0.1426436992224477|-0.985835050999772|0.08821592910006831|-0.02536785788834095|-0.2812283337116241|-0.9593055248260498|0|0|0|-1|-1|3
2021-03-10 21:04:20.032 +0000|290742.539392|-0.0160675048828125|-0.288238525390625|-0.948516845703125|290742.519427|-2.96661072284919|-0.02660760601109965|0.2878798155511207|0.2144922912120819|-0.09488530457019806|-0.3585591018199921|0.008480861783027649|0.04113730788230896|0.01955902576446533|XArbitraryZVertical|-0.0005825875372067399|-0.1440324891481263|-0.9859527783157165|0.08456714221156575|-0.02550963871181011|-0.2839199304580688|-0.9585086107254028|0|0|0|-1|-1|3
2021-03-10 21:04:20.052 +0000|290742.559356|-0.0180511474609375|-0.306640625|-0.9495391845703125|290742.539392|-2.973874498558339|-0.02620623869166925|0.2939552933720325|0.2830502688884735|-0.08590539544820786|-0.3534080982208252|0.005364932119846344|0.009787082672119141|0.002827763557434082|XArbitraryZVertical|-0.0006502864091156926|-0.1470075380416856|-0.9858180891645765|0.08093847675166249|-0.02507926151156425|-0.289740115404129|-0.9567767381668091|0|0|0|-1|-1|3
2021-03-10 21:04:20.072 +0000|290742.57932|-0.026763916015625|-0.2941436767578125|-0.923980712890625|290742.559356|-2.981166484417781|-0.02527856044657361|0.3006773239300019|0.2516341507434845|-0.04694228246808052|-0.3498124778270721|0.006136558949947357|-0.008718669414520264|0.008221447467803955|XArbitraryZVertical|-0.0004562844725598467|-0.1502807764136747|-0.9856143520239956|0.0773300954848587|-0.02414189465343952|-0.2961672246456146|-0.9548309445381165|0|0|0|-1|-1|3
2021-03-10 21:04:20.092 +0000|290742.599284|-0.045318603515625|-0.312591552734375|-0.932647705078125|290742.57932|-2.988636254071971|-0.02383718170122644|0.3071055169000528|0.3034853041172028|-0.0204166118055582|-0.3899975419044495|-0.003174379467964172|0.002328276634216309|0.01921069622039795|XArbitraryZVertical|-5.853341211421725e-05|-0.1533920187403735|-0.9854146165728871|0.07368176755341688|-0.02271975018084049|-0.3023008406162262|-0.9529417753219604|0|0|0|-1|-1|3
2021-03-10 21:04:20.112 +0000|290742.619249|-0.00341796875|-0.3748016357421875|-0.962646484375|290742.599284|-2.997408327051051|-0.02134689863576832|0.3120898475547785|0.2461200803518295|0.02230603247880936|-0.480051189661026|-0.01403333246707916|0.007243484258651733|0.02909862995147705|XArbitraryZVertical|0.0006774998960374298|-0.1557593510049175|-0.9853470488575278|0.06949604158122219|-0.02031417191028595|-0.3070482015609741|-0.9514771103858948|0|0|0|-1|-1|3
2021-03-10 21:04:20.148 +0000|290742.639213|-0.0075225830078125|-0.290802001953125|-0.9256439208984375|290742.619249|-3.008529958324102|-0.01734526701447877|0.3149692948058718|0.1018267497420311|0.02192184329032898|-0.55523681640625|0.0008661914616823196|-0.05282258987426758|-0.01515740156173706|XArbitraryZVertical|0.001880068411592294|-0.1570510568246173|-0.9854932097023653|0.06429993137362849|-0.01649115420877934|-0.3097872734069824|-0.9506628513336182|0|0|0|-1|-1|3
2021-03-10 21:04:20.165 +0000|290742.659177|-0.00323486328125|-0.27752685546875|-0.9370880126953125|290742.639213|-3.020981737106387|-0.01294321526889572|0.3159676639845369|0.01281992346048355|0.03857799619436264|-0.6195442080497742|0.005069502629339695|-0.006158143281936646|0.02423858642578125|XArbitraryZVertical|0.003102405558193008|-0.1574233639120665|-0.985792017491848|0.05850080127893925|-0.01230213232338428|-0.3107363879680634|-0.9504165053367615|0|0|0|-1|-1|3
2021-03-10 21:04:20.172 +0000|290742.679141|0.0105743408203125|-0.32257080078125|-0.9614410400390625|290742.659177|-3.034342651074359|-0.00804018320145815|0.3177802587721416|0.1548304408788681|0.04382336139678955|-0.6495986580848694|0.0002218037843704224|0.04245442152023315|0.01504039764404297|XArbitraryZVertical|0.004516807751227377|-0.1582064449478854|-0.9860103222630857|0.05228857101980428|-0.007637539878487587|-0.312458723783493|-0.9499006271362305|0|0|0|-1|-1|3
2021-03-10 21:04:20.192 +0000|290742.699105|0.0209503173828125|-0.329345703125|-0.9401397705078125|290742.679141|-3.048494798873398|-0.003174750179314619|0.3207702361161187|0.1452823728322983|0.01493940688669682|-0.7059481143951416|0.008704379200935364|5.099177360534668e-05|-0.01159846782684326|XArbitraryZVertical|0.00586579120255741|-0.1595981158827676|-0.9861071447132603|0.04568164012564963|-0.003012810135260224|-0.3152976036071777|-0.9489880800247192|0|0|0|-1|-1|3
2021-03-10 21:04:20.212 +0000|290742.71907|0.0276947021484375|-0.31573486328125|-0.9369354248046875|290742.699105|-3.063729258198581|0.001189994752926044|0.3230394552594292|0.06083297729492188|-0.01705841720104218|-0.7633168697357178|0.01451185345649719|-0.01853302121162415|0.003709495067596436|XArbitraryZVertical|0.006846156475565073|-0.1606735877580061|-0.9862322839587636|0.03851086953591915|0.001128441886976361|-0.3174502551555634|-0.9482742547988892|0|0|0|-1|-1|3
2021-03-10 21:04:20.232 +0000|290742.739034|0.034088134765625|-0.3076934814453125|-0.94586181640625|290742.71907|-3.08031384556267|0.005732548919752179|0.3244089157775417|0.04958659410476685|-0.05845832079648972|-0.8139473795890808|0.02168139815330505|0.005516111850738525|0.01358914375305176|XArbitraryZVertical|0.007774608518754701|-0.1613309936759902|-0.9863923156301186|0.03069504050309224|0.005433505401015282|-0.3187485933303833|-0.947823703289032|0|0|0|-1|-1|3
2021-03-10 21:04:20.252 +0000|290742.758998|0.0364990234375|-0.342132568359375|-0.9599456787109375|290742.739034|-3.09755459078002|0.009341115266695562|0.3243607776648177|0.05243165045976639|-0.1062305346131325|-0.8233296275138855|0.02457815408706665|0.01601436734199524|0.002043068408966064|XArbitraryZVertical|0.008163229440691588|-0.1613279821916446|-0.9866109533901769|0.02248206532773384|0.008853890933096409|-0.3187029659748077|-0.9478132724761963|0|0|0|-1|-1|3
2021-03-10 21:04:20.272 +0000|290742.778962|0.0316009521484375|-0.3679046630859375|-0.97796630859375|290742.758998|-3.114304118229895|0.01171561255959373|0.3246435410706934|0.01149689964950085|-0.1891989707946777|-0.7609323859214783|0.02989701926708221|-0.0179583728313446|-0.006875097751617432|XArbitraryZVertical|0.007985174941818489|-0.1615132002652178|-0.9867330354750672|0.01441084775190393|0.01110338792204857|-0.3189709782600403|-0.9476994276046753|0|0|0|-1|-1|3
2021-03-10 21:04:20.291 +0000|290742.798927|0.0499267578125|-0.409393310546875|-0.9863128662109375|290742.778962|-3.12903979606401|0.01193994325348979|0.3241096646072555|-0.01658094115555286|-0.2498858124017715|-0.653838574886322|0.01617836207151413|-0.04441961646080017|-0.01752597093582153|XArbitraryZVertical|0.006904255391531444|-0.1613034093040846|-0.9868548432836041|0.007157253304266253|0.01131801679730415|-0.3184649348258972|-0.9478670954704285|0|0|0|-1|-1|3
2021-03-10 21:04:20.312 +0000|290742.818891|0.02392578125|-0.427734375|-1.00091552734375|290742.798927|-3.141591390485269|0.01066603591375726|0.3249395105462933|0.1095874980092049|-0.3030267953872681|-0.529392421245575|0.04328285157680511|-0.0748525857925415|-0.03781169652938843|XArbitraryZVertical|0.005262863441457773|-0.1617536206776624|-0.9868167851664768|0.0008632663456966116|0.01010769139975309|-0.3192514479160309|-0.9476161599159241|0|0|0|-1|-1|3
2021-03-10 21:04:20.331 +0000|290742.838855|0.0217132568359375|-0.39117431640625|-0.95062255859375|290742.818891|3.132079652362026|0.007038608309233381|0.328089351299125|0.1689156293869019|-0.4069154262542725|-0.3366571664810181|0.02936292439699173|-0.09761074185371399|-0.05969607830047607|XArbitraryZVertical|0.002695234440898815|-0.1633235610337886|-0.9865602937056337|-0.00411786759971694|0.006663111969828606|-0.3222348690032959|-0.9466363191604614|0|0|0|-1|-1|3
2021-03-10 21:04:20.351 +0000|290742.858819|0.0020294189453125|-0.339569091796875|-0.964569091796875|290742.838855|3.125932358617513|0.001018497694412182|0.3313018475316564|0.1613018810749054|-0.4592625796794891|-0.216586247086525|0.01338018476963043|-0.06751742959022522|-0.00266873836517334|XArbitraryZVertical|-0.0007888716034798529|-0.1648932273360068|-0.98628157551346|-0.007638914002712272|0.0009631112916395068|-0.3252743482589722|-0.9456192255020142|0|0|0|-1|-1|3
2021-03-10 21:04:20.372 +0000|290742.878783|-0.00665283203125|-0.3515625|-0.9517059326171875|290742.858819|3.122202764449575|-0.007302214610121057|0.33539539039083|0.1942229717969894|-0.5241252183914185|-0.1276367455720901|0.01478410512208939|-0.02104663848876953|-0.01881861686706543|XArbitraryZVertical|-0.005217885274617584|-0.1668689321598791|-0.985912831619647|-0.01016811323024774|-0.006895275786519051|-0.3291425406932831|-0.9442550539970398|0|0|0|-1|-1|3
2021-03-10 21:04:20.391 +0000|290742.898748|-0.011627197265625|-0.3459320068359375|-0.9329681396484375|290742.878783|3.11991056098226|-0.01663370396749597|0.3405733600690131|0.2074225097894669|-0.548631489276886|-0.08151329308748245|0.01018446683883667|-0.01446792483329773|-0.0124468207359314|XArbitraryZVertical|-0.01003305930423508|-0.1693601967976259|-0.9854290507776634|-0.01209298324456154|-0.01567759551107883|-0.3340275883674622|-0.9424329400062561|0|0|0|-1|-1|3
2021-03-10 21:04:20.411 +0000|290742.918712|-0.032623291015625|-0.3207244873046875|-0.9292144775390625|290742.898748|3.118047352757592|-0.02618661749075456|0.3461570446375135|0.2062082439661026|-0.5291371941566467|-0.0863010361790657|0.01219462603330612|-0.01555785536766052|0.00550079345703125|XArbitraryZVertical|-0.01492363661426217|-0.1720371494942072|-0.9848800933164306|-0.01385015077753143|-0.02463050372898579|-0.3392853140830994|-0.9403610229492188|0|0|0|-1|-1|3
2021-03-10 21:04:20.431 +0000|290742.938676|-0.027587890625|-0.3373260498046875|-0.902130126953125|290742.918712|3.115919429454356|-0.03529327395454074|0.3514292762738105|0.2041111141443253|-0.4918169379234314|-0.1180905699729919|0.004488617181777954|0.03334224224090576|-0.005047142505645752|XArbitraryZVertical|-0.01961615860187427|-0.1745471769195794|-0.9843278824959655|-0.01572106432168086|-0.03312933072447777|-0.3442400693893433|-0.9382969737052917|0|0|0|-1|-1|3
2021-03-10 21:04:20.451 +0000|290742.95864|-0.055877685546875|-0.3033905029296875|-0.928955078125|290742.938676|3.112330374098182|-0.04205035647452867|0.3564672823569323|0.206091895699501|-0.3866981565952301|-0.2011365443468094|0.01720902696251869|-0.002230525016784668|0.04687225818634033|XArbitraryZVertical|-0.02328167522873112|-0.1769305842263556|-0.9837811148997487|-0.01812257703011549|-0.03939526900649071|-0.3489657938480377|-0.9363070726394653|0|0|0|-1|-1|3
2021-03-10 21:04:20.471 +0000|290742.978604|-0.059173583984375|-0.3871307373046875|-0.9172515869140625|290742.95864|3.10750125215492|-0.04700969271427457|0.3607568227409646|0.2271683216094971|-0.3440010845661163|-0.253572404384613|-0.01537391170859337|0.05992212891578674|0.01072245836257935|XArbitraryZVertical|-0.0261750493492551|-0.178932137619637|-0.9832894333234761|-0.02097951941756593|-0.04396747797727585|-0.3529824316501617|-0.9345963001251221|0|0|0|-1|-1|3
2021-03-10 21:04:20.491 +0000|290742.998569|-0.0514678955078125|-0.3641204833984375|-0.8997802734375|290742.978604|3.101166169941767|-0.05059508785871494|0.3649425192742413|0.1145015805959702|-0.2794584631919861|-0.3328951895236969|-0.01055730506777763|-0.0009993016719818115|0.004115879535675049|XArbitraryZVertical|-0.0285363040400973|-0.1808624658618138|-0.982790037464923|-0.0244590289774762|-0.04724295064806938|-0.3568955957889557|-0.932948887348175|0|0|0|-1|-1|3
2021-03-10 21:04:20.511 +0000|290743.018533|-0.04345703125|-0.3204498291015625|-0.9340362548828125|290742.998569|3.093273042836856|-0.05232366796079872|0.3657461849511251|0.04848146438598633|-0.1668038666248322|-0.4054029285907745|0.00550561398267746|-0.03029325604438782|0.03122717142105103|XArbitraryZVertical|-0.03010681161218973|-0.1811188063818253|-0.9825870851188866|-0.0285022557070671|-0.04884053766727448|-0.3576462268829346|-0.9325791001319885|0|0|0|-1|-1|3
2021-03-10 21:04:20.531 +0000|290743.038497|-0.064300537109375|-0.390289306640625|-0.8826446533203125|290743.018533|3.084651202046061|-0.05199796071035349|0.367982839258844|0.1275291442871094|-0.1459227055311203|-0.4032670259475708|-0.001965686678886414|0.04917189478874207|0.01532042026519775|XArbitraryZVertical|-0.03075331239335827|-0.1820915721666237|-0.9822554065992445|-0.03273112317858035|-0.0484950914978981|-0.3597340285778046|-0.9317938089370728|0|0|0|-1|-1|3
2021-03-10 21:04:20.551 +0000|290743.058461|-0.0430450439453125|-0.38201904296875|-0.96295166015625|290743.038497|3.076103322654959|-0.05283129376443636|0.3680687245772458|-0.09344391524791718|-0.221602126955986|-0.3813458979129791|-0.01876896992325783|-0.02392911911010742|0.02362591028213501|XArbitraryZVertical|-0.03194165989961825|-0.1819852548818791|-0.9820854402675998|-0.03700558293651363|-0.04926993697881699|-0.3598141670227051|-0.9317222237586975|0|0|0|-1|-1|3
2021-03-10 21:04:20.571 +0000|290743.078426|-0.029022216796875|-0.387725830078125|-0.928497314453125|290743.058461|3.06729853115119|-0.05333684049914951|0.3673700188503619|0.004785200580954552|-0.175990492105484|-0.3743599057197571|0.007670648396015167|0.002106517553329468|-0.01431053876876831|XArbitraryZVertical|-0.03297967209822233|-0.1814892693507739|-0.9819687459301851|-0.04136791264473308|-0.04975435137748718|-0.3591621816158295|-0.9319479465484619|0|0|0|-1|-1|3
2021-03-10 21:04:20.591 +0000|290743.09839|-0.03472900390625|-0.3994598388671875|-0.95379638671875|290743.078426|3.059115102249621|-0.05337074516739813|0.3686003238964415|-0.008444352075457573|-0.1800754070281982|-0.3512963950634003|0.00384867936372757|-0.04229304194450378|0.006547093391418457|XArbitraryZVertical|-0.03376056295216552|-0.1819561971805836|-0.9816776366278478|-0.04540005203548797|-0.04976233839988708|-0.3603101074695587|-0.9315043091773987|0|0|0|-1|-1|3
2021-03-10 21:04:20.611 +0000|290743.118354|-0.0369873046875|-0.3639984130859375|-0.9515533447265625|290743.09839|3.052379923974672|-0.05515516240867441|0.3690551793916897|0.07166987657546997|-0.2351018488407135|-0.3025265634059906|0.01693058386445045|-0.02670153975486755|-0.02451443672180176|XArbitraryZVertical|-0.03525764600956241|-0.1820212519504386|-0.9814462519542625|-0.04887220200695777|-0.05141540989279747|-0.3607344031333923|-0.9312503337860107|0|0|0|-1|-1|3
2021-03-10 21:04:20.631 +0000|290743.138318|-0.03887939453125|-0.3789215087890625|-0.975616455078125|290743.118354|3.046194035899374|-0.05855136705776853|0.3704750242755085|0.006501507945358753|-0.3288903534412384|-0.2842404544353485|0.02262644469738007|-0.01307907700538635|-0.03425514698028564|XArbitraryZVertical|-0.0375161814920984|-0.1825198517828544|-0.9810968123154039|-0.05223052531649597|-0.05454779788851738|-0.3620582818984985|-0.9305580854415894|0|0|0|-1|-1|3
2021-03-10 21:04:20.661 +0000|290743.158282|-0.036895751953125|-0.3656005859375|-0.9000701904296875|290743.138318|3.040272603491481|-0.06352718048119184|0.3716329891793453|0.02144134230911732|-0.4118451476097107|-0.251644104719162|0.03212745115160942|-0.01207622885704041|-0.04382246732711792|XArbitraryZVertical|-0.04052217916235257|-0.1828384275382708|-0.9807327147066116|-0.0556013387285077|-0.05915072932839394|-0.363137423992157|-0.9298561215400696|0|0|0|-1|-1|3
2021-03-10 21:04:20.671 +0000|290743.178247|-0.062835693359375|-0.351318359375|-0.95062255859375|290743.158282|3.034678273621405|-0.0690991502838795|0.3736799873314709|0.0477040559053421|-0.4125766456127167|-0.2338183224201202|0.01853364706039429|-0.005042761564254761|0.0292019248008728|XArbitraryZVertical|-0.0438123173034953|-0.1835652068716771|-0.980264150160994|-0.05887779718238689|-0.0642794594168663|-0.3650439381599426|-0.9287685751914978|0|0|0|-1|-1|3
2021-03-10 21:04:20.691 +0000|290743.1982106667|-0.0675201416015625|-0.3881072998046875|-0.870147705078125|290743.178247|3.029289417862013|-0.07512478419773493|0.3757902116206755|0.07891812175512314|-0.4483290314674377|-0.2513601183891296|-0.002723544836044312|0.01683372259140015|-0.008212089538574219|XArbitraryZVertical|-0.04731019310546012|-0.1842950220459028|-0.9797656760886466|-0.062099079015141|-0.0698167011141777|-0.367007702589035|-0.9275941848754883|0|0|0|-1|-1|3
2021-03-10 21:04:20.711 +0000|290743.2181746667|-0.07745361328125|-0.3475341796875|-0.9413909912109375|290743.1982106667|3.023172473736157|-0.08163335574405678|0.3772686256059105|-0.001027165097184479|-0.4550289809703827|-0.316724568605423|0.001467384397983551|-0.02324953675270081|0.0592229962348938|XArbitraryZVertical|-0.05109847534088598|-0.1846612460241832|-0.9792704788665719|-0.06571570348812905|-0.07580816745758057|-0.3683825433254242|-0.9265783429145813|0|0|0|-1|-1|3
2021-03-10 21:04:20.731 +0000|290743.2381386667|-0.076080322265625|-0.3880157470703125|-0.916900634765625|290743.2181746667|3.01606372481694|-0.0877941249998459|0.3777752044129181|-0.04628725722432137|-0.5189774632453918|-0.3256947994232178|0.005281135439872742|0.02966582775115967|-0.01972520351409912|XArbitraryZVertical|-0.05478355708669847|-0.1845126335777307|-0.9788185235579685|-0.06977182035208412|-0.08149875700473785|-0.3688534498214722|-0.9259076714515686|0|0|0|-1|-1|3
2021-03-10 21:04:20.751 +0000|290743.2581026667|-0.09234619140625|-0.3773956298828125|-0.9138946533203125|290743.2381386667|3.008638038248815|-0.09425134333868325|0.3784257122391814|-0.04424778744578362|-0.4782617688179016|-0.3330762684345245|0.01280725002288818|-0.01115724444389343|0.006971240043640137|XArbitraryZVertical|-0.05864563699934894|-0.1843885824891788|-0.9783066696132073|-0.07401117415348085|-0.0874532014131546|-0.369458019733429|-0.9251230955123901|0|0|0|-1|-1|3
2021-03-10 21:04:20.771 +0000|290743.2780676667|-0.0748138427734375|-0.4027862548828125|-0.95465087890625|290743.2581026667|3.001140239451711|-0.1002419367615728|0.3778264616610641|-0.06382214277982712|-0.4119193553924561|-0.3386315703392029|0.007154606282711029|0.008549511432647705|0.0009745955467224121|XArbitraryZVertical|-0.06224786580823127|-0.183640552571032|-0.9778973178859967|-0.07821873805722906|-0.09301577508449554|-0.3689011037349701|-0.9248027205467224|0|0|0|-1|-1|3
2021-03-10 21:04:20.791 +0000|290743.2980316667|-0.0944061279296875|-0.3979034423828125|-0.9267578125|290743.2780676667|2.993753025085749|-0.1047667710715889|0.3780602832498769|-0.03334186226129532|-0.3987706303596497|-0.3066350221633911|0.03076889365911484|-0.02275782823562622|-0.05386286973953247|XArbitraryZVertical|-0.065144633488225|-0.1833381998644117|-0.9774346685179354|-0.08224930131224131|-0.09719036519527435|-0.3691184222698212|-0.9242865443229675|0|0|0|-1|-1|3
2021-03-10 21:04:20.811 +0000|290743.3179956667|-0.1435699462890625|-0.3911895751953125|-0.8444061279296875|290743.2980316667|2.987371260316214|-0.1103535723753789|0.3775879530080997|-0.06628775596618652|-0.4400535523891449|-0.2616028189659119|0.01844851672649384|-0.03023111820220947|0.002149403095245361|XArbitraryZVertical|-0.06844327089095856|-0.1826591242950939|-0.9770248720081649|-0.08586961594987064|-0.1023718193173409|-0.368679404258728|-0.9239023327827454|0|0|0|-1|-1|3
2021-03-10 21:04:20.831 +0000|290743.3379596667|-0.114654541015625|-0.4020843505859375|-0.9459381103515625|290743.3179956667|2.981692107881956|-0.1173493363080526|0.376453153576898|-0.1072043851017952|-0.3980328738689423|-0.2365137040615082|-0.02570090442895889|-0.01318931579589844|0.03682923316955566|XArbitraryZVertical|-0.07233966862933644|-0.1815977419516632|-0.9766383539986165|-0.08925720171437407|-0.1088815778493881|-0.3676243126392365|-0.9235784411430359|0|0|0|-1|-1|3
2021-03-10 21:04:20.850 +0000|290743.3579236667|-0.1552581787109375|-0.371185302734375|-0.7604522705078125|290743.3379596667|2.976335523794294|-0.1223843185883805|0.3764033753309027|-0.04318122565746307|-0.3746034502983093|-0.2182751297950745|0.008964173495769501|-0.01633313298225403|-0.03939610719680786|XArbitraryZVertical|-0.07528188585789326|-0.1811471439225598|-0.9762140830546131|-0.09232787712637075|-0.1135326102375984|-0.3675780296325684|-0.9230366945266724|0|0|0|-1|-1|3
2021-03-10 21:04:20.870 +0000|290743.3778886667|-0.1129150390625|-0.398345947265625|-0.9672088623046875|290743.3579236667|2.971258220651357|-0.128461423052711|0.3753905599842111|-0.0006616129539906979|-0.2253884077072144|-0.2457295805215836|-0.01786689460277557|-0.01646649837493896|0.1081080436706543|XArbitraryZVertical|-0.07867053475407741|-0.1801713621149549|-0.9758386746905792|-0.09533145912784599|-0.1191875040531158|-0.3666359186172485|-0.922698438167572|0|0|0|-1|-1|3
2021-03-10 21:04:20.890 +0000|290743.3978526667|-0.171417236328125|-0.3909912109375|-0.7672576904296875|290743.3778886667|2.96659043463028|-0.131884398778424|0.3764737548671808|-0.07098474353551865|-0.3173333406448364|-0.1985423564910889|0.0163358747959137|0.01823243498802185|-0.1054223775863647|XArbitraryZVertical|-0.08080020724002354|-0.1803493980670378|-0.9753730632236892|-0.09794270223593543|-0.1222928762435913|-0.3676434755325317|-0.9218908548355103|0|0|0|-1|-1|3
2021-03-10 21:04:20.910 +0000|290743.4178166667|-0.1281585693359375|-0.4027862548828125|-0.941619873046875|290743.3978526667|2.96262222200295|-0.137639629981555|0.3755917721393504|-0.008225522935390472|-0.1803901344537735|-0.1688556522130966|-0.0229632556438446|-0.01977357268333435|0.07845973968505859|XArbitraryZVertical|-0.08393074692006272|-0.1794696014567395|-0.975023793284479|-0.1003735272341928|-0.127640962600708|-0.3668231070041656|-0.9214925765991211|0|0|0|-1|-1|3
2021-03-10 21:04:20.930 +0000|290743.4377806667|-0.14447021484375|-0.357513427734375|-0.917022705078125|290743.4178166667|2.959138412232379|-0.1399475774330851|0.3766619288772136|-0.002607551636174321|-0.2134987264871597|-0.1469776183366776|0.005734920501708984|-0.0104316771030426|-0.06855833530426025|XArbitraryZVertical|-0.08540893087262949|-0.1797280226641739|-0.9746469550681127|-0.1023061628286713|-0.1297125369310379|-0.3678184747695923|-0.9208062887191772|0|0|0|-1|-1|3
2021-03-10 21:04:20.950 +0000|290743.4577456667|-0.1352996826171875|-0.3258056640625|-0.978973388671875|290743.4377806667|2.956170301448561|-0.1430125403623606|0.3780319339610064|-0.03358560800552368|-0.252176821231842|-0.1147604659199715|-0.0008232742547988892|0.007855474948883057|0.01310545206069946|XArbitraryZVertical|-0.08722184748666738|-0.1801109558890032|-0.9742295762971296|-0.1040635973708861|-0.1324622184038162|-0.3690920770168304|-0.9199047684669495|0|0|0|-1|-1|3
2021-03-10 21:04:20.970 +0000|290743.4777096667|-0.165863037109375|-0.447418212890625|-0.7647247314453125|290743.4577456667|2.953494991934937|-0.1466208997909003|0.375334513453157|-0.05500947311520576|-0.1422111690044403|-0.1147079095244408|-0.02494773268699646|0.01988881826400757|0.0439375638961792|XArbitraryZVertical|-0.089114318115359|-0.178486541230794|-0.9741899048981478|-0.105618283620852|-0.1359256505966187|-0.3665837645530701|-0.9204024076461792|0|0|0|-1|-1|3
2021-03-10 21:04:20.990 +0000|290743.4976736667|-0.1379547119140625|-0.3709716796875|-0.9308319091796875|290743.4777096667|2.951063811088264|-0.1501818446789709|0.3731226261972095|-0.1977496147155762|-0.09880111366510391|-0.07849033921957016|-0.02234356105327606|-0.0740889310836792|0.03840309381484985|XArbitraryZVertical|-0.09097766186823678|-0.1771075207505172|-0.9741121195079075|-0.1070581985284316|-0.1393232643604279|-0.3645249605178833|-0.9207119941711426|0|0|0|-1|-1|3
2021-03-10 21:04:21.010 +0000|290743.5176376667|-0.1394500732421875|-0.375|-0.9339752197265625|290743.4976736667|2.948616870178632|-0.1519981070176406|0.369923159984316|-0.1610080450773239|-0.1586226373910904|-0.08065503835678101|-0.005191117525100708|-0.01095378398895264|0.02649450302124023|XArbitraryZVertical|-0.09195003692426842|-0.1753351293316197|-0.9742020823185736|-0.108320210187084|-0.1411711573600769|-0.3615438044071198|-0.9216055870056152|0|0|0|-1|-1|3
2021-03-10 21:04:21.030 +0000|290743.5376016667|-0.12432861328125|-0.3807830810546875|-0.9459991455078125|290743.5176376667|2.946746359620104|-0.1536289813730442|0.3678340158135271|-0.1760390847921371|-0.1302125602960587|-0.04831299558281898|0.01102966070175171|0.004355311393737793|-0.03511106967926025|XArbitraryZVertical|-0.09282331296047791|-0.1741395306402461|-0.9742226426692424|-0.1093143030865287|-0.1427892595529556|-0.3595951795578003|-0.9221184849739075|0|0|0|-1|-1|3
2021-03-10 21:04:21.050 +0000|290743.5575666667|-0.1137847900390625|-0.341094970703125|-0.9171295166015625|290743.5376016667|2.944563832254391|-0.1540634509163844|0.3645611229466151|-0.2159146368503571|-0.02665698528289795|-0.08419136703014374|0.02389344573020935|-0.02497625350952148|-0.02664518356323242|XArbitraryZVertical|-0.09308992192385096|-0.1724153538045802|-0.9743903588836247|-0.1103211672319601|-0.1433697193861008|-0.3565393090248108|-0.9232144355773926|0|0|0|-1|-1|3
2021-03-10 21:04:21.070 +0000|290743.5775306667|-0.135406494140625|-0.3352813720703125|-0.9307098388671875|290743.5575666667|2.941961576040961|-0.1537003699679275|0.3627079963028605|-0.09833044558763504|-0.05098149552941322|-0.09374350309371948|0.0316699892282486|-0.01204448938369751|0.009351730346679688|XArbitraryZVertical|-0.09305957260425088|-0.1714089969940418|-0.9744360185081984|-0.1115046090625251|-0.1431354135274887|-0.3548073470592499|-0.9239177703857422|0|0|0|-1|-1|3
2021-03-10 21:04:21.090 +0000|290743.5974946667|-0.14404296875|-0.34912109375|-0.918426513671875|290743.5775306667|2.939755590667571|-0.1537866334726574|0.3625327017138835|-0.04108567163348198|-0.03843417391180992|-0.0939088836312294|0.009115174412727356|0.04398971796035767|-0.01409769058227539|XArbitraryZVertical|-0.09328314627927461|-0.1712157379605507|-0.9743248311638997|-0.1125817431196481|-0.1432246416807175|-0.3546434342861176|-0.9239668250083923|0|0|0|-1|-1|3
2021-03-10 21:04:21.110 +0000|290743.6174586667|-0.1457366943359375|-0.3799591064453125|-0.8930206298828125|290743.5974946667|2.93765124658378|-0.1537359478671942|0.3621137069360247|-0.0298719797283411|-0.04169771820306778|-0.08033430576324463|0.007260024547576904|0.001910924911499023|-0.004849433898925781|XArbitraryZVertical|-0.09342052365460904|-0.1709156869782805|-0.9742472393567647|-0.1135905860894426|-0.143200546503067|-0.3542516529560089|-0.9241208434104919|0|0|0|-1|-1|3
2021-03-10 21:04:21.130 +0000|290743.6374226667|-0.1409912109375|-0.35174560546875|-0.9345550537109375|290743.6174586667|2.935730432051675|-0.1529105672938876|0.3622657494324252|-0.06035057827830315|0.01766723208129406|-0.07663518190383911|-0.01084496080875397|-0.03029549121856689|0.03946566581726074|XArbitraryZVertical|-0.09318922149097675|-0.170947397199862|-0.9741621252793575|-0.1144599936634885|-0.1424295455217361|-0.3543938398361206|-0.9241855144500732|0|0|0|-1|-1|3
2021-03-10 21:04:21.161 +0000|290743.6573876667|-0.1381378173828125|-0.359954833984375|-0.9224700927734375|290743.6374226667|2.934158196569833|-0.1516533672282473|0.3620999558603625|-0.02063279040157795|0.02071505971252918|-0.0487636923789978|-0.001271158456802368|0.008215218782424927|-0.004716277122497559|XArbitraryZVertical|-0.09270396765580199|-0.1708655064899705|-0.9741457123476165|-0.1151137140488022|-0.1412764191627502|-0.3542388081550598|-0.9244219064712524|0|0|0|-1|-1|3
2021-03-10 21:04:21.170 +0000|290743.6773516667|-0.136322021484375|-0.3564453125|-0.908721923828125|290743.6573876667|2.932919558062345|-0.1509870178182903|0.3605705228504308|-0.06087977811694145|0.01614044047892094|-0.0514494888484478|0.00725787878036499|-0.003682971000671387|-0.00894010066986084|XArbitraryZVertical|-0.09241741138017033|-0.1700994765636895|-0.9742472881634429|-0.1156179263093344|-0.1407417207956314|-0.3528081178665161|-0.9250503778457642|0|0|0|-1|-1|3
2021-03-10 21:04:21.190 +0000|290743.6973156667|-0.14105224609375|-0.3672332763671875|-0.92864990234375|290743.6773516667|2.931723747072015|-0.14990509825913|0.3595481198233774|-0.0588018000125885|0.04557982459664345|-0.04080749675631523|0.002953842282295227|-0.007615268230438232|0.01828598976135254|XArbitraryZVertical|-0.09194638273716225|-0.1696075486169929|-0.9743225542700181|-0.116080499752283|-0.1397946178913116|-0.3518512845039368|-0.9255582690238953|0|0|0|-1|-1|3
2021-03-10 21:04:21.210 +0000|290743.7172796667|-0.1526947021484375|-0.3600006103515625|-0.9274139404296875|290743.6973156667|2.930813305280965|-0.1483885849999433|0.3590939422453426|-0.0690469816327095|0.06661586463451385|-0.0305095873773098|-0.002195268869400024|-0.01304534077644348|0.009240150451660156|XArbitraryZVertical|-0.09126435821299694|-0.169432071929337|-0.9743811483641247|-0.1163832135669608|-0.1384144425392151|-0.3514261245727539|-0.9259271621704102|0|0|0|-1|-1|3
2021-03-10 21:04:21.230 +0000|290743.7372436667|-0.1508026123046875|-0.3212738037109375|-0.91680908203125|290743.7172796667|2.930215319111411|-0.1472847339463306|0.3582211392637262|-0.04003775119781494|0.03133516013622284|-0.01477252226322889|-0.01006942987442017|-0.006629914045333862|-0.01062923669815063|XArbitraryZVertical|-0.09073775427625916|-0.169042700212009|-0.9744770485398698|-0.1165577861762808|-0.1374372392892838|-0.3506088554859161|-0.9263824224472046|0|0|0|-1|-1|3
2021-03-10 21:04:21.250 +0000|290743.7572086667|-0.1428375244140625|-0.3578948974609375|-0.931304931640625|290743.7372436667|2.929793850390211|-0.1464367523303516|0.3576348450485581|-0.03732180595397949|0.048392653465271|-0.008258609101176262|-0.008383661508560181|0.03005236387252808|0.006368041038513184|XArbitraryZVertical|-0.09033359060175328|-0.1687865676883787|-0.9745449208979323|-0.1166760026678801|-0.1366816014051437|-0.3500597178936005|-0.9267019033432007|0|0|0|-1|-1|3
2021-03-10 21:04:21.270 +0000|290743.7771726667|-0.1454315185546875|-0.359893798828125|-0.914459228515625|290743.7572086667|2.929314644018746|-0.1450691966874935|0.3566182120086344|-0.1031669303774834|0.05784858018159866|-0.01305957790464163|-0.008821547031402588|-0.02229171991348267|0.002633273601531982|XArbitraryZVertical|-0.08966130992566086|-0.1683480264220417|-0.9746718265413554|-0.1167675527073462|-0.135465532541275|-0.3491072058677673|-0.9272395968437195|0|0|0|-1|-1|3
2021-03-10 21:04:21.290 +0000|290743.7971366667|-0.1312255859375|-0.357757568359375|-0.9105377197265625|290743.7771726667|2.92892759699841|-0.1435550060966288|0.3548168574728964|-0.1196894645690918|0.08528521656990051|0.006205906625837088|-0.0141948014497757|0.005835354328155518|0.009851634502410889|XArbitraryZVertical|-0.08887348231039985|-0.1675387651542352|-0.9748816277298393|-0.1167823503564368|-0.1341511160135269|-0.3474186360836029|-0.9280645251274109|0|0|0|-1|-1|3
2021-03-10 21:04:21.310 +0000|290743.8171006667|-0.1155242919921875|-0.3368682861328125|-0.9487152099609375|290743.7971366667|2.928580306060111|-0.1413395570094736|0.3519065247124507|-0.1752910166978836|0.1291053891181946|0.01201692409813404|-0.003887057304382324|-0.01288637518882751|0.01997852325439453|XArbitraryZVertical|-0.08768869494311074|-0.1662300151366757|-0.9752236608799861|-0.1166925375444553|-0.1322365701198578|-0.3446881175041199|-0.929356575012207|0|0|0|-1|-1|3
2021-03-10 21:04:21.330 +0000|290743.8370646667|-0.138824462890625|-0.32763671875|-0.938812255859375|290743.8171006667|2.928677368035234|-0.1393418809854535|0.3490147255679024|-0.1322028338909149|0.09001275151968002|0.02515474148094654|0.01697704195976257|-0.01476314663887024|-0.009507179260253906|XArbitraryZVertical|-0.08657301927912209|-0.1649365687318301|-0.975576989245272|-0.1164072775817373|-0.1305176615715027|-0.3419721126556396|-0.9306020736694336|0|0|0|-1|-1|3
2021-03-10 21:04:21.350 +0000|290743.8570296667|-0.1377105712890625|-0.3638916015625|-0.9269866943359375|290743.8370646667|2.929300418337963|-0.1383201050542903|0.3466176974821235|-0.1433557271957397|0.06067760288715363|0.06546470522880554|-0.001698762178421021|0.02509763836860657|-0.01248657703399658|XArbitraryZVertical|-0.08591267704372363|-0.1638503140790507|-0.9758716804089068|-0.1159598761609126|-0.1296793669462204|-0.3397186100482941|-0.9315441846847534|0|0|0|-1|-1|3
2021-03-10 21:04:21.370 +0000|290743.8769936667|-0.1418609619140625|-0.36871337890625|-0.9152374267578125|290743.8570296667|2.930741391473684|-0.1379062156605803|0.3434608739511639|-0.1527399569749832|0.0652102455496788|0.100492812693119|-0.01383939385414124|-0.02482441067695618|0.005592405796051025|XArbitraryZVertical|-0.08544795897631553|-0.1623913966881975|-0.9762527154571587|-0.11514470191221|-0.1294405907392502|-0.3367478549480438|-0.9326553344726562|0|0|0|-1|-1|3
2021-03-10 21:04:21.390 +0000|290743.8969576667|-0.1218109130859375|-0.3321990966796875|-0.9571380615234375|290743.8769936667|2.933030957867563|-0.1371852241745715|0.3406446444312225|-0.1694197207689285|0.0987752377986908|0.1600653231143951|-0.01351293921470642|-0.01722359657287598|0.001051783561706543|XArbitraryZVertical|-0.08478224925033571|-0.1611516934267546|-0.9766623304666811|-0.1138987677253359|-0.1288972944021225|-0.334094762802124|-0.933684229850769|0|0|0|-1|-1|3
2021-03-10 21:04:21.410 +0000|290743.9169216667|-0.13299560546875|-0.31097412109375|-0.9423370361328125|290743.8969576667|2.935973781316808|-0.1358069953944898|0.336965135262841|-0.2286008894443512|0.1026379466056824|0.1685436815023422|0.005156323313713074|-0.04629820585250854|0.002409696578979492|XArbitraryZVertical|-0.08370712421685611|-0.1595518790451129|-0.9772073613052034|-0.1122597784734999|-0.1277759224176407|-0.3306244313716888|-0.9350726008415222|0|0|0|-1|-1|3
2021-03-10 21:04:21.429 +0000|290743.9368856667|-0.1363525390625|-0.3251190185546875|-0.9019622802734375|290743.9169216667|2.938643187642027|-0.1345988737420723|0.3310311239832694|-0.2933470606803894|0.09709905087947845|0.143208846449852|-0.007965207099914551|0.02651065587997437|-0.006052792072296143|XArbitraryZVertical|-0.08264098770930629|-0.1568230145420584|-0.9779160150726905|-0.1107130281810341|-0.1269071847200394|-0.3250183463096619|-0.9371539950370789|0|0|0|-1|-1|3
2021-03-10 21:04:21.449 +0000|290743.9568506667|-0.0999603271484375|-0.2643280029296875|-0.951568603515625|290743.9368856667|2.940601140672694|-0.1333316363076655|0.3259307389525613|-0.2195894569158554|0.1207745522260666|0.1225729957222939|-0.01149766147136688|0.009964197874069214|0.02291399240493774|XArbitraryZVertical|-0.0816434991143335|-0.1544729481073633|-0.9785067583369168|-0.1095311669453492|-0.1259382218122482|-0.3201906681060791|-0.9389448761940002|0|0|0|-1|-1|3
2021-03-10 21:04:21.469 +0000|290743.9768146667|-0.1308135986328125|-0.3090057373046875|-0.9657745361328125|290743.9568506667|2.942556746927729|-0.131874072446167|0.3237454406979698|-0.04864326864480972|0.07954370230436325|0.1111277043819427|0.02734070271253586|0.03012523055076599|-0.001938343048095703|XArbitraryZVertical|-0.08068389057753639|-0.1535600494379156|-0.9788549150158424|-0.1084084594950402|-0.1246612295508385|-0.3181196451187134|-0.9398188591003418|0|0|0|-1|-1|3
2021-03-10 21:04:21.489 +0000|290743.9967786667|-0.156097412109375|-0.334503173828125|-0.913055419921875|290743.9768146667|2.944833685615113|-0.1312698842261755|0.3245670019833465|-0.03039821982383728|0.03991495817899704|0.1071685627102852|0.001149609684944153|0.03413888812065125|-0.02678084373474121|XArbitraryZVertical|-0.08024867219140033|-0.1540872011241357|-0.9789335744030065|-0.1072675438053663|-0.1240591257810593|-0.3188984394073486|-0.9396345615386963|0|0|0|-1|-1|3
2021-03-10 21:04:21.509 +0000|290744.0167426667|-0.1080780029296875|-0.3410491943359375|-0.919708251953125|290743.9967786667|2.946725374112411|-0.1309422163303215|0.3221079165727726|-0.1378156840801239|0.0866963118314743|0.09768948704004288|-0.03227464854717255|-0.01712772250175476|0.004506230354309082|XArbitraryZVertical|-0.07983758439823316|-0.1529740310302194|-0.9792519715831138|-0.1062565112551528|-0.1238532513380051|-0.3165667653083801|-0.9404498338699341|0|0|0|-1|-1|3
2021-03-10 21:04:21.529 +0000|290744.0367066667|-0.0991668701171875|-0.2893829345703125|-0.9635009765625|290744.0167426667|2.948405991545975|-0.1291771105744521|0.3189807770776648|-0.1274154633283615|0.1423780471086502|0.09189178049564362|-0.000299602746963501|-0.04379245638847351|0.04503762722015381|XArbitraryZVertical|-0.07871213462732368|-0.1515993620335729|-0.9796683850812917|-0.1052233598504671|-0.1223199889063835|-0.3135989010334015|-0.9416440725326538|0|0|0|-1|-1|3
2021-03-10 21:04:21.549 +0000|290744.0566716667|-0.1234283447265625|-0.301239013671875|-0.9472808837890625|290744.0367066667|2.950192096614182|-0.1270284022749415|0.3164597768049256|-0.1051468104124069|0.1185718551278114|0.1041232347488403|0.0210462212562561|0.02893173694610596|-0.01924335956573486|XArbitraryZVertical|-0.07741796575290563|-0.1505439587753297|-0.9800515288787245|-0.1041258127502603|-0.1203961670398712|-0.3112041056156158|-0.9426859617233276|0|0|0|-1|-1|3
2021-03-10 21:04:21.569 +0000|290744.0766356667|-0.117584228515625|-0.31268310546875|-0.920806884765625|290744.0566716667|2.951564292037348|-0.1252749557146874|0.3123007040806675|-0.2066558450460434|0.1223451793193817|0.07276815176010132|0.003608353435993195|0.002668201923370361|-0.01411080360412598|XArbitraryZVertical|-0.07628115067819269|-0.1486451419705958|-0.9805256746014368|-0.1032241157426651|-0.1189037263393402|-0.3072488605976105|-0.9441716074943542|0|0|0|-1|-1|3
2021-03-10 21:04:21.589 +0000|290744.0965996667|-0.0952606201171875|-0.30523681640625|-0.9404144287109375|290744.0766356667|2.952373766548011|-0.1226880288907719|0.3081252340291473|-0.2688257396221161|0.1797379404306412|0.05199585482478142|-0.008932463824748993|-0.01679566502571106|0.03436410427093506|XArbitraryZVertical|-0.07477778381521501|-0.1467574287324744|-0.9809975735212323|-0.102539384491989|-0.116616815328598|-0.3032726943492889|-0.9457410573959351|0|0|0|-1|-1|3
2021-03-10 21:04:21.609 +0000|290744.1165636667|-0.10028076171875|-0.28424072265625|-0.9871063232421875|290744.0965996667|2.952858329133457|-0.1188228379390777|0.3039723476530818|-0.2647714018821716|0.2090844810009003|0.06883040815591812|0.009837359189987183|0.007167994976043701|0.01819741725921631|XArbitraryZVertical|-0.07267184750628938|-0.1449317630385977|-0.9814910156260188|-0.1019263144057457|-0.1131088063120842|-0.2993128001689911|-0.9474271535873413|0|0|0|-1|-1|3
2021-03-10 21:04:21.629 +0000|290744.1365276667|-0.11328125|-0.310943603515625|-0.949676513671875|290744.1165636667|2.953709674425755|-0.1152996460949457|0.2985120375478822|-0.2637002170085907|0.1492033749818802|0.08465535193681717|0.01712208986282349|1.570582389831543e-05|-0.03500688076019287|XArbitraryZVertical|-0.07065169177875154|-0.1424561863927712|-0.982082460377521|-0.1011365106647419|-0.1099565327167511|-0.2940983772277832|-0.9494291543960571|0|0|0|-1|-1|3
2021-03-10 21:04:21.660 +0000|290744.1564926667|-0.103759765625|-0.271392822265625|-0.9586181640625|290744.1365276667|2.955127005676154|-0.1130117743932715|0.2933372213065446|-0.2532580196857452|0.1233141422271729|0.1054834872484207|-0.006547659635543823|-0.009496539831161499|-0.006296038627624512|XArbitraryZVertical|-0.06921072919523195|-0.140075051611073|-0.9826266554494133|-0.1001690050475322|-0.1079542562365532|-0.2891485095024109|-0.951177716255188|0|0|0|-1|-1|3
2021-03-10 21:04:21.670 +0000|290744.1764566667|-0.1068115234375|-0.26409912109375|-0.964996337890625|290744.1564926667|2.956869931684138|-0.1114719718722209|0.2890075085718502|-0.217330202460289|0.09405606240034103|0.1201741993427277|-0.0009161382913589478|0.007901430130004883|-0.007031917572021484|XArbitraryZVertical|-0.06815219537748196|-0.1380806079872702|-0.9830897079675035|-0.0991148293330118|-0.1066277697682381|-0.2850010395050049|-0.952578067779541|0|0|0|-1|-1|3
2021-03-10 21:04:21.690 +0000|290744.1964207917|-0.112091064453125|-0.2584991455078125|-0.9649810791015625|290744.1764566667|2.958919179157301|-0.1104660340250392|0.2853033248000337|-0.1708203107118607|0.064922034740448|0.1213213950395584|0.001399800181388855|0.02085891366004944|-0.01262682676315308|XArbitraryZVertical|-0.06736379013018745|-0.1363757531286693|-0.983497532262364|-0.09796133935756771|-0.1057851389050484|-0.2814485132694244|-0.9537275433540344|0|0|0|-1|-1|3
2021-03-10 21:04:21.710 +0000|290744.2163847917|-0.1097259521484375|-0.2683868408203125|-0.94970703125|290744.1964207917|2.960985981321096|-0.1100166710128972|0.282567556154541|-0.1281644254922867|0.02419431880116463|0.1135511845350266|-0.004651427268981934|0.01426538825035095|-0.02268189191818237|XArbitraryZVertical|-0.06689049220558622|-0.1351195477495259|-0.9838124955339291|-0.09685756063447271|-0.1054407060146332|-0.2788223028182983|-0.9545367360115051|0|0|0|-1|-1|3
2021-03-10 21:04:21.729 +0000|290744.2363487917|-0.119598388671875|-0.24951171875|-0.975006103515625|290744.2163847917|2.962904351218669|-0.1101549330652413|0.2804946259769749|-0.08960644900798798|0.008467127569019794|0.08990621566772461|-0.006317704916000366|0.0008604824542999268|0.01271176338195801|XArbitraryZVertical|-0.06674542296096925|-0.1341557308456486|-0.9840499856482289|-0.09587989055717724|-0.1056359931826591|-0.2768309712409973|-0.955094575881958|0|0|0|-1|-1|3
2021-03-10 21:04:21.749 +0000|290744.2563137917|-0.1185302734375|-0.283233642578125|-0.9737548828125|290744.2363487917|2.964670484911352|-0.1109718238326633|0.2792436755807242|-0.04982860758900642|-0.03709300607442856|0.0959564745426178|-0.008932501077651978|0.03649294376373291|-0.02420181035995483|XArbitraryZVertical|-0.06697907433913226|-0.1335593867839501|-0.9841967546349335|-0.09503915942235819|-0.1064544320106506|-0.2756286859512329|-0.9553514122962952|0|0|0|-1|-1|3
2021-03-10 21:04:21.769 +0000|290744.2762777917|-0.12835693359375|-0.253875732421875|-0.9551544189453125|290744.2563137917|2.966325929309204|-0.1124058245052592|0.2777339073513159|-0.07651913911104202|-0.06928358972072601|0.07237835228443146|-0.007867030799388885|-0.02704668045043945|-0.005266308784484863|XArbitraryZVertical|-0.06751474665878902|-0.1328031385681015|-0.9843347750128304|-0.09428758738196455|-0.1078708544373512|-0.2741771042346954|-0.9556101560592651|0|0|0|-1|-1|3
2021-03-10 21:04:21.789 +0000|290744.2962417917|-0.1255340576171875|-0.243011474609375|-0.94927978515625|290744.2762777917|2.967484843720167|-0.11441849460197|0.2760318186859757|-0.06946873664855957|-0.08911343663930893|0.04493066295981407|-0.01545806229114532|0.02231094241142273|-0.00407707691192627|XArbitraryZVertical|-0.06836189782215116|-0.1319089424237251|-0.984441864039886|-0.09381300559101877|-0.1098470762372017|-0.2725398540496826|-0.9558533430099487|0|0|0|-1|-1|3
2021-03-10 21:04:21.809 +0000|290744.3162057917|-0.1076507568359375|-0.2457275390625|-0.9271697998046875|290744.2962417917|2.967569973136002|-0.116047585606505|0.2742077646952005|-0.1061833426356316|-0.06369463354349136|-0.01230572536587715|-0.01482021063566208|0.0258350670337677|0.0040779709815979|XArbitraryZVertical|-0.06908698751587863|-0.1309363238226105|-0.9845187434174035|-0.09383716869709111|-0.1114614829421043|-0.2707843780517578|-0.9561653137207031|0|0|0|-1|-1|3
2021-03-10 21:04:21.829 +0000|290744.3361697917|-0.10040283203125|-0.22381591796875|-0.941864013671875|290744.3162057917|2.966466114633127|-0.1164597056210158|0.2715489027205344|-0.1052650809288025|-0.003232617862522602|-0.06703155487775803|-0.002334244549274445|0.02196228504180908|0.02471739053726196|XArbitraryZVertical|-0.06925759740496336|-0.1295679858449634|-0.9846391252736009|-0.0943469561151713|-0.1119387894868851|-0.268223911523819|-0.9568310379981995|0|0|0|-1|-1|3
2021-03-10 21:04:21.849 +0000|290744.3561347917|-0.10711669921875|-0.2695770263671875|-0.972198486328125|290744.3361697917|2.964657425803049|-0.1154990956676877|0.2709191098309153|-0.01612162962555885|0.05621926113963127|-0.0834379643201828|0.01057520508766174|0.04549491405487061|0.01554691791534424|XArbitraryZVertical|-0.06887677909303558|-0.1292405519976369|-0.9846304824303131|-0.09516096174895694|-0.1110390424728394|-0.2676171362400055|-0.9571057558059692|0|0|0|-1|-1|3
2021-03-10 21:04:21.869 +0000|290744.3760987917|-0.11663818359375|-0.28033447265625|-0.9534912109375|290744.3561347917|2.963075417096023|-0.113896043122883|0.2707913975044073|-0.005292850080877542|0.06741630285978317|-0.07994912564754486|0.007549300789833069|-0.01245895028114319|-0.006062448024749756|XArbitraryZVertical|-0.06818467396897727|-0.1291999174251807|-0.9846188229911937|-0.095833395915354|-0.1095084920525551|-0.2674940824508667|-0.9573164582252502|0|0|0|-1|-1|3
2021-03-10 21:04:21.889 +0000|290744.3960627917|-0.115386962890625|-0.2536468505859375|-0.9536895751953125|290744.3760987917|2.961670059705911|-0.1122241560363815|0.2703160556223529|-0.02299877628684044|0.08608964085578918|-0.06642337143421173|-0.008975505828857422|-0.003792226314544678|-0.001039505004882812|XArbitraryZVertical|-0.06743305493577077|-0.1289982733050492|-0.9846410665275104|-0.09640697555496455|-0.1079220399260521|-0.2670360207557678|-0.9576244354248047|0|0|0|-1|-1|3
2021-03-10 21:04:21.909 +0000|290744.4160267917|-0.09820556640625|-0.273223876953125|-0.956298828125|290744.3960627917|2.960164088855761|-0.1101328989566191|0.2692864620936111|-0.04753414914011955|0.09903036803007126|-0.0678427591919899|-0.007988013327121735|0.002432823181152344|-0.001367092132568359|XArbitraryZVertical|-0.06645829614767751|-0.1285413816964664|-0.9847096031381362|-0.09699177236853529|-0.1059493348002434|-0.2660436928272247|-0.9581208229064941|0|0|0|-1|-1|3
2021-03-10 21:04:21.929 +0000|290744.4359907917|-0.096527099609375|-0.2634429931640625|-0.9735565185546875|290744.4160267917|2.958782635975481|-0.1076211167941807|0.2681694508632383|-0.03076228871941566|0.1100259274244308|-0.06737101823091507|-0.001421421766281128|-0.006014108657836914|0.01255756616592407|XArbitraryZVertical|-0.06526396999352672|-0.1280672724704182|-0.9848023382893618|-0.09748764917442074|-0.1035742685198784|-0.264966756105423|-0.9586787819862366|0|0|0|-1|-1|3
2021-03-10 21:04:21.949 +0000|290744.4559557917|-0.10174560546875|-0.25311279296875|-0.983551025390625|290744.4359907917|2.957532058430875|-0.1052979347628253|0.2679830893871007|-0.006593221798539162|0.08541362732648849|-0.05420772358775139|0.003726296126842499|0.002183288335800171|-0.0127137303352356|XArbitraryZVertical|-0.06419230722192895|-0.1280484331100382|-0.9848291727549808|-0.09795091791371574|-0.1013519912958145|-0.2647870481014252|-0.9589658975601196|0|0|0|-1|-1|3
2021-03-10 21:04:21.968 +0000|290744.4759197917|-0.10931396484375|-0.2649993896484375|-0.9600372314453125|290744.4559557917|2.956308237242225|-0.1039700029847434|0.2671422449049312|-0.06695864349603653|0.03195839375257492|-0.06625186651945114|0.0001870244741439819|0.01566985249519348|-0.0250542163848877|XArbitraryZVertical|-0.06358118922510339|-0.127659946609845|-0.9848692898179633|-0.09845213909477152|-0.1001015305519104|-0.263976126909256|-0.9593207240104675|0|0|0|-1|-1|3
2021-03-10 21:04:21.989 +0000|290744.4958837917|-0.1018829345703125|-0.239013671875|-0.9828643798828125|290744.4759197917|2.954953934252864|-0.103331667535251|0.26598069668682|-0.06850317120552063|0.0121705187484622|-0.06399430334568024|-0.0166139081120491|-0.01943200826644897|0.003679871559143066|XArbitraryZVertical|-0.06330370222196655|-0.1270757733831873|-0.9849021306560478|-0.09905585856962082|-0.09952070564031601|-0.2628556191921234|-0.9596887826919556|0|0|0|-1|-1|3
2021-03-10 21:04:22.008 +0000|290744.5158477917|-0.0897369384765625|-0.258819580078125|-0.9578094482421875|290744.4958837917|2.953518474434546|-0.1032188993127978|0.2654336268086175|0.00879523903131485|-0.0337861068546772|-0.06711854785680771|-0.005522638559341431|0.02374130487442017|-0.01539206504821777|XArbitraryZVertical|-0.06331579507180436|-0.1267661716747625|-0.9848718066358356|-0.09974506712196235|-0.09942728281021118|-0.2623277306556702|-0.9598429203033447|0|0|0|-1|-1|3
2021-03-10 21:04:22.028 +0000|290744.5358117917|-0.07879638671875|-0.26885986328125|-0.9560394287109375|290744.5158477917|2.952338443732461|-0.1038198281125637|0.2664400189725459|0.0616052933037281|-0.04938445240259171|-0.06260493397712708|0.005952030420303345|0.005470961332321167|-0.005827367305755615|XArbitraryZVertical|-0.06373009100692939|-0.1271948193166859|-0.9847249513631696|-0.1003836876223367|-0.09997665137052536|-0.2632987499237061|-0.9595199227333069|0|0|0|-1|-1|3
2021-03-10 21:04:22.048 +0000|290744.5557767917|-0.0974273681640625|-0.2552032470703125|-0.9403076171875|290744.5358117917|2.951357513093761|-0.1043319649494514|0.2679796335962669|0.09721680730581284|-0.03351989760994911|-0.04775426536798477|0.02152255177497864|-0.0006428956985473633|0.005985081195831299|XArbitraryZVertical|-0.06411165081823844|-0.1278966922363858|-0.9845534698254076|-0.1009290736134263|-0.1004257053136826|-0.2647837102413177|-0.959064245223999|0|0|0|-1|-1|3
2021-03-10 21:04:22.068 +0000|290744.5757407917|-0.101104736328125|-0.275177001953125|-0.931396484375|290744.5557767917|2.950741755388495|-0.1047396718628233|0.2704233059575832|0.1099177300930023|-0.008222636766731739|-0.02678906172513962|0.008860379457473755|0.01529306173324585|0.004107475280761719|XArbitraryZVertical|-0.06445838544521323|-0.1290607554018713|-0.9843401790819518|-0.1013057376602891|-0.1007487699389458|-0.2671393752098083|-0.9583768844604492|0|0|0|-1|-1|3
2021-03-10 21:04:22.088 +0000|290744.5957047917|-0.0930633544921875|-0.252410888671875|-0.9599456787109375|290744.5757407917|2.950563881213007|-0.10410109749593|0.2717929271480226|0.06809927523136139|0.06643062084913254|-0.01084329560399055|-0.004774987697601318|-0.006962180137634277|0.02843451499938965|XArbitraryZVertical|-0.0642154057005697|-0.129762367979136|-0.9842563441763407|-0.1013784003406899|-0.1000986397266388|-0.2684589922428131|-0.9580762386322021|0|0|0|-1|-1|3
2021-03-10 21:04:22.108 +0000|290744.6156687917|-0.1025848388671875|-0.281494140625|-0.9771881103515625|290744.5957047917|2.95067557354242|-0.1025178099141803|0.2727908114465064|0.07790711522102356|0.08212494850158691|0.01623883284628391|0.001859232783317566|0.007274061441421509|0.00943446159362793|XArbitraryZVertical|-0.06347255199191307|-0.1303378766561564|-0.9842428423602709|-0.1012394533818433|-0.09855414181947708|-0.2694200873374939|-0.9579665660858154|0|0|0|-1|-1|3
2021-03-10 21:04:22.128 +0000|290744.6356327917|-0.104248046875|-0.3065948486328125|-0.940216064453125|290744.6156687917|2.951554066977022|-0.1011340112242298|0.2739396772193352|0.04517754539847374|0.06293687224388123|0.05270833894610405|-0.00174085795879364|0.0009340047836303711|-0.02383500337600708|XArbitraryZVertical|-0.06278423582196398|-0.1310016161434159|-0.9842503432118538|-0.1007381205734743|-0.09719710052013397|-0.2705262899398804|-0.9577934145927429|0|0|0|-1|-1|3
2021-03-10 21:04:22.161 +0000|290744.6555977917|-0.099456787109375|-0.23394775390625|-0.9627838134765625|290744.6356327917|2.952909892379092|-0.0997156784177289|0.2736865274100557|-0.02326161414384842|0.1004571840167046|0.07593731582164764|-0.01623041927814484|-0.0388604998588562|0.02138346433639526|XArbitraryZVertical|-0.06198641381312713|-0.1309903286489557|-0.9843803512779217|-0.09997329853050993|-0.09584534168243408|-0.2702825963497162|-0.9579984545707703|0|0|0|-1|-1|3
2021-03-10 21:04:22.169 +0000|290744.6755617917|-0.095794677734375|-0.265899658203125|-0.959259033203125|290744.6755617917|2.956512856438544|-0.09725955452080275|0.2734634408734968|0.003089915495365858|0.07778660207986832|0.08137611299753189|0.0007245540618896484|-0.002805143594741821|-0.0004797577857971191|XArbitraryZVertical|-0.06053173002402113|-0.1311123198846801|-0.9846495223103676|-0.09803476178883738|-0.09349794685840607|-0.2700677812099457|-0.9582909345626831|0|0|0|-1|-1|3
2021-03-10 21:04:22.188 +0000|290744.6955257917|-0.0947418212890625|-0.277069091796875|-0.950347900390625||||||||||||||||||||||||3
2021-03-10 21:04:22.208 +0000|290744.7154897917|-0.1064453125|-0.243377685546875|-0.974365234375|290744.6955257917|2.958153530022208|-0.09611693615327591|0.2733445484583078|0.02289492823183537|0.08049599081277847|0.06643693149089813|-0.006043665111064911|0.002329379320144653|0.008325338363647461|XArbitraryZVertical|-0.05985655701768128|-0.1311588401388207|-0.9847723258547864|-0.09714996799416548|-0.0924060046672821|-0.2699533104896545|-0.9584290981292725|0|0|0|-1|-1|3
2021-03-10 21:04:22.228 +0000|290744.7354537917|-0.1056671142578125|-0.2813568115234375|-0.9451751708984375|290744.7154897917|2.959330301875408|-0.09522714032320007|0.2742013941198208|0.01288959849625826|0.04690026864409447|0.05304282903671265|-0.01022969186306|0.02367740869522095|-0.01664948463439941|XArbitraryZVertical|-0.05937702897813575|-0.1316594136385951|-0.984795836086887|-0.09652695288686902|-0.09153113514184952|-0.2707782387733459|-0.9582803249359131|0|0|0|-1|-1|3
2021-03-10 21:04:22.248 +0000|290744.7554187917|-0.09234619140625|-0.239013671875|-0.9791259765625|290744.7354537917|2.960084172345072|-0.0945076346911513|0.2735335966472789|-0.04650140553712845|0.06025043129920959|0.02037481218576431|-0.01781439036130905|-0.006262391805648804|0.006056904792785645|XArbitraryZVertical|-0.05894529751910508|-0.1313871302118413|-0.9849001857523604|-0.09609692834754452|-0.09085866808891296|-0.2701353430747986|-0.9585257768630981|0|0|0|-1|-1|3
2021-03-10 21:04:22.268 +0000|290744.7753827917|-0.098480224609375|-0.269195556640625|-0.980133056640625|290744.7554187917|2.960193502410196|-0.09350640377965987|0.2722204313427068|-0.05100496113300323|0.03954701498150826|0.01267436984926462|-0.002932988107204437|0.02555409073829651|-0.01132255792617798|XArbitraryZVertical|-0.05839035467091632|-0.1307909480724639|-0.9850263529308548|-0.09595508891702345|-0.08993196487426758|-0.2688707709312439|-0.9589685797691345|0|0|0|-1|-1|3
2021-03-10 21:04:22.288 +0000|290744.7953467917|-0.1047515869140625|-0.2572784423828125|-0.9552764892578125|290744.7753827917|2.960359667579529|-0.09321397202995677|0.2708478917660848|-0.09338992089033127|0.008784525096416473|0.008307939395308495|-0.006749719381332397|0.0006417632102966309|-0.02162617444992065|XArbitraryZVertical|-0.05817830553789509|-0.1301329942805742|-0.9851381210490198|-0.0958309723170237|-0.08968579024076462|-0.2675485014915466|-0.9593613743782043|0|0|0|-1|-1|3
2021-03-10 21:04:22.308 +0000|290744.8153107917|-0.10308837890625|-0.2851104736328125|-0.954315185546875|290744.7953467917|2.960459916343078|-0.09329471834823076|0.2683813204403258|-0.131340354681015|0.01038710679858923|0.02621991746127605|-0.01253145188093185|0.004428863525390625|-0.003889381885528564|XArbitraryZVertical|-0.05810884242752164|-0.1289155739493613|-0.9853106665850034|-0.09574507956130632|-0.08982446044683456|-0.2651710510253906|-0.9600082635879517|0|0|0|-1|-1|3
2021-03-10 21:04:22.328 +0000|290744.8352747917|-0.06842041015625|-0.3047943115234375|-0.9324493408203125|290744.8352747917|2.963009362194443|-0.09165029246440606|0.2607472622450061|-0.2245369702577591|0.1200737655162811|0.09336468577384949|0.01277533173561096|-0.06460034847259521|0.03680378198623657|XArbitraryZVertical|-0.05682013369883614|-0.1253004885184922|-0.9859955584393099|-0.09425511518783139|-0.08842837810516357|-0.2578026354312897|-0.9621425271034241|0|0|0|-1|-1|3
2021-03-10 21:04:22.348 +0000|290744.8552397917|-0.062286376953125|-0.1918792724609375|-0.9813690185546875||||||||||||||||||||||||3
2021-03-10 21:04:22.368 +0000|290744.8752037917|-0.058807373046875|-0.2708587646484375|-0.968231201171875|290744.8552397917|2.9648688228739|-0.09012341073830586|0.2571494917939149|-0.1010314077138901|0.08127982169389725|0.1151705607771873|0.02486258000135422|0.05460250377655029|-0.01313966512680054|XArbitraryZVertical|-0.05580394658564138|-0.1236485008265344|-0.9863639343604206|-0.0931830609652757|-0.08704210817813873|-0.2543247938156128|-0.963193953037262|0|0|0|-1|-1|3
2021-03-10 21:04:22.388 +0000|290744.8951677917|-0.0645294189453125|-0.2462310791015625|-0.9715423583984375|290744.8752037917|2.966833726957541|-0.08922902305598879|0.2556501258961823|-0.06931277364492416|0.06803830713033676|0.08621090650558472|0.02479790151119232|0.0001431405544281006|-0.004855751991271973|XArbitraryZVertical|-0.05518073408344845|-0.1230041569901723|-0.9865781165892661|-0.09213396076321792|-0.08621449023485184|-0.2528744637966156|-0.963650107383728|0|0|0|-1|-1|3
2021-03-10 21:04:22.408 +0000|290744.9151317917|-0.0862884521484375|-0.2503204345703125|-0.960479736328125|290744.8951677917|2.968413277407429|-0.08876735826949664|0.2549741350784555|-0.0288593452423811|0.03097318485379219|0.08567321300506592|0.02294906973838806|-0.001273900270462036|-0.01042908430099487|XArbitraryZVertical|-0.05482875373823187|-0.122734945336125|-0.9867074698878715|-0.09131527322068694|-0.08578473329544067|-0.2522203922271729|-0.9638598561286926|0|0|0|-1|-1|3
2021-03-10 21:04:22.427 +0000|290744.9350957917|-0.099578857421875|-0.229095458984375|-0.939239501953125|290744.9151317917|2.970079958739962|-0.0885568529477596|0.2559619686905525|0.004221043549478054|0.03667522594332695|0.07486636936664581|0.005237527191638947|0.00372546911239624|-0.000649869441986084|XArbitraryZVertical|-0.05466173739212399|-0.1232779725109216|-0.9867244801049231|-0.09049627194374188|-0.08555975556373596|-0.2531761527061462|-0.9636292457580566|0|0|0|-1|-1|3
2021-03-10 21:04:22.448 +0000|290744.9550597917|-0.0946502685546875|-0.2245941162109375|-0.948272705078125|290744.9350957917|2.9712798332871|-0.08765461292897865|0.2557220647186792|0.00976552814245224|0.07213622331619263|0.04113219678401947|-0.01198404282331467|0.01603609323501587|0.01827096939086914|XArbitraryZVertical|-0.05413316737893768|-0.123232809681848|-0.9868187612921971|-0.08984474409025489|-0.08469560742378235|-0.2529440522193909|-0.9637665748596191|0|0|0|-1|-1|3
2021-03-10 21:04:22.467 +0000|290744.9750247917|-0.0806427001953125|-0.244720458984375|-0.97344970703125|290744.9550597917|2.971699487770419|-0.08564865576610309|0.2554144840712936|0.01098300889134407|0.1091924086213112|0.003990777768194675|-0.01513154059648514|0.03040218353271484|0.02370434999465942|XArbitraryZVertical|-0.05310541128724858|-0.1231820926251944|-0.9869114080434971|-0.08950917421062465|-0.08276882022619247|-0.2526464760303497|-0.9640119671821594|0|0|0|-1|-1|3
2021-03-10 21:04:22.488 +0000|290744.9949887917|-0.0790863037109375|-0.2735443115234375|-0.9846649169921875|290744.9750247917|2.971304835677687|-0.08298986391457899|0.2557438602487835|-0.01516964845359325|0.107581302523613|-0.02634244970977306|-0.001146048307418823|0.00890079140663147|-0.004192352294921875|XArbitraryZVertical|-0.05183070821571505|-0.123453434636456|-0.9869420668262633|-0.08954507362888567|-0.08019851893186569|-0.2529651522636414|-0.9641456604003906|0|0|0|-1|-1|3
2021-03-10 21:04:22.508 +0000|290745.0149527917|-0.079681396484375|-0.25994873046875|-0.9766082763671875|290744.9949887917|2.970779550374533|-0.08099509922182548|0.2550266732082229|-0.04104359075427055|0.07254863530397415|-0.01386083476245403|-0.0006896704435348511|-0.01066821813583374|-0.02324759960174561|XArbitraryZVertical|-0.05085029824178632|-0.1231750861359791|-0.9870163990456438|-0.08967065685352327|-0.07828977704048157|-0.2522712051868439|-0.9644842743873596|0|0|0|-1|-1|3
2021-03-10 21:04:22.528 +0000|290745.0349167917|-0.079803466796875|-0.2290802001953125|-0.9665374755859375|290745.0149527917|2.970569570285531|-0.08003012058225965|0.2538404302334412|-0.05354989320039749|0.04259388521313667|-0.003685784060508013|-0.0005131736397743225|-0.02252796292304993|-0.01223951578140259|XArbitraryZVertical|-0.05033979391522098|-0.1226270718030601|-0.9871084000229975|-0.08969783349014196|-0.0773828998208046|-0.2511231601238251|-0.9648570418357849|0|0|0|-1|-1|3
2021-03-10 21:04:22.548 +0000|290745.0548807917|-0.0742340087890625|-0.227996826171875|-0.9569244384765625|290745.0548807917|2.970593848154464|-0.0787717634486962|0.2511166085959269|-0.04677930846810341|0.05035513639450073|0.004909124225378036|0.002552859485149384|0.01635374128818512|0.004572391510009766|XArbitraryZVertical|-0.04960867155428192|-0.1213384293526391|-0.9873161234566459|-0.08957028143549153|-0.0762222483754158|-0.2484856992959976|-0.965631902217865|0|0|0|-1|-1|3
2021-03-10 21:04:22.568 +0000|290745.0748457917|-0.070648193359375|-0.2463531494140625|-0.971649169921875|290745.0748457917|2.970954011695675|-0.07763733739875457|0.2504652917243165|-0.03722148761153221|0.06894266605377197|0.03227656707167625|0.003926560282707214|-0.001046627759933472|-0.0001854896545410156|XArbitraryZVertical|-0.04900084360953084|-0.1210762143367133|-0.9874019250725703|-0.08931463736873069|-0.07513929903507233|-0.2478547543287277|-0.965878963470459|0|0|0|-1|-1|3
2021-03-10 21:04:22.587 +0000|290745.0948097917|-0.0688629150390625|-0.28009033203125|-0.94659423828125||||||||||||||||||||||||3
2021-03-10 21:04:22.607 +0000|290745.1147737917|-0.0662078857421875|-0.229522705078125|-0.9808807373046875|290745.0948097917|2.971991466642761|-0.07618148854478331|0.2502582094088034|-0.02701099589467049|0.09518913924694061|0.06913898140192032|0.0005100592970848083|-0.02416594326496124|0.02274012565612793|XArbitraryZVertical|-0.04821102814101968|-0.1210639028849079|-0.9874966365658884|-0.08871144031685513|-0.07373695075511932|-0.247654139995575|-0.9660384654998779|0|0|0|-1|-1|3
2021-03-10 21:04:22.627 +0000|290745.1347377917|-0.0726776123046875|-0.2443695068359375|-0.9809417724609375|290745.1147737917|2.973535868790387|-0.07484580415904445|0.2495524206454236|0.01245440542697906|0.07305624336004257|0.08716129511594772|0.00619073212146759|0.004767492413520813|-0.00738370418548584|XArbitraryZVertical|-0.04743025434941402|-0.1208110096862688|-0.9876416023066767|-0.08785859406008378|-0.07245961576700211|-0.2469702661037445|-0.9663101434707642|0|0|0|-1|-1|3
2021-03-10 21:04:22.660 +0000|290745.1547017917|-0.080596923828125|-0.2226409912109375|-0.97869873046875|290745.1547017917|2.976389209244444|-0.07429391964328309|0.2493804436253759|0.0121212275698781|-0.006934038829058409|0.03993261978030205|-0.006714299321174622|0.02408631145954132|-0.02069872617721558|XArbitraryZVertical|-0.04697864127999819|-0.1208173988166426|-0.9877898760510583|-0.08641383528304877|-0.07192946225404739|-0.2468036115169525|-0.9663923382759094|0|0|0|-1|-1|3
2021-03-10 21:04:22.668 +0000|290745.1746667917|-0.076629638671875|-0.2368316650390625|-0.96466064453125||||||||||||||||||||||||3
2021-03-10 21:04:22.687 +0000|290745.1946304167|-0.0662689208984375|-0.2389068603515625|-0.9599456787109375|290745.1746667917|2.976716822450402|-0.07454933121467032|0.2497627662964329|-0.00143794110044837|-0.005336835514754057|-0.003032953944057226|-0.006367698311805725|0.01885680854320526|0.001527547836303711|XArbitraryZVertical|-0.04709972017655076|-0.1210030402097435|-0.9877738044935805|-0.08627255974684078|-0.07216925919055939|-0.2471740990877151|-0.9662797451019287|0|0|0|-1|-1|3
2021-03-10 21:04:22.708 +0000|290745.2145944167|-0.0631561279296875|-0.2655487060546875|-0.9678955078125|290745.1946304167|2.976251588790896|-0.07437453951629261|0.2497908065410823|-0.001553605543449521|0.0002303961664438248|-0.03467885404825211|0.001321166753768921|-0.0003573596477508545|0.01012396812438965|XArbitraryZVertical|-0.04704262458984423|-0.1210135035426251|-0.9877560110058901|-0.08649211962991796|-0.07199984043836594|-0.2472012639045715|-0.9662854671478271|0|0|0|-1|-1|3
2021-03-10 21:04:22.727 +0000|290745.2345584167|-0.068450927734375|-0.261444091796875|-0.9485931396484375|290745.2145944167|2.975785307396659|-0.07414059063373769|0.2497212053433749|0.02427288144826889|0.01428698748350143|-0.01427584327757359|0.007169373333454132|-0.0007452219724655151|-0.004078507423400879|XArbitraryZVertical|-0.0469526004004801|-0.1209782820288489|-0.9877456916733773|-0.08670732022998831|-0.07177504897117615|-0.2471338212490082|-0.9663194417953491|0|0|0|-1|-1|3
2021-03-10 21:04:22.747 +0000|290745.2545224167|-0.0711517333984375|-0.232330322265625|-0.9515380859375|290745.2345584167|2.975609178777218|-0.07351003081473854|0.2497015966433087|0.02687771990895271|0.04662910848855972|0.001149895368143916|0.005477026104927063|-0.02517829835414886|0.01300019025802612|XArbitraryZVertical|-0.04665107507489159|-0.1209918059468657|-0.9877541124308444|-0.0867559185179512|-0.07116606831550598|-0.247114822268486|-0.9663693308830261|0|0|0|-1|-1|3
2021-03-10 21:04:22.767 +0000|290745.2744874167|-0.0852508544921875|-0.2247161865234375|-0.9493408203125|290745.2545224167|2.97591955821156|-0.0724708141072494|0.2501739970425612|0.05449344962835312|0.0747845321893692|0.01315373834222555|0.0001460164785385132|0.008726701140403748|0.01689386367797852|XArbitraryZVertical|-0.0461373538780387|-0.1212775116932123|-0.987761677592262|-0.08654578042102493|-0.07015330344438553|-0.2475725412368774|-0.9663262367248535|0|0|0|-1|-1|3
2021-03-10 21:04:22.787 +0000|290745.2944514167|-0.0836944580078125|-0.23626708984375|-0.953857421875|290745.2744874167|2.975961698129933|-0.07072685501306815|0.2510104072851703|0.02677864953875542|0.1068153232336044|-0.02117449603974819|-0.0168890506029129|0.0245821624994278|0.01082640886306763|XArbitraryZVertical|-0.04530593316201462|-0.1217672910604509|-0.9877500403399915|-0.08642947078532928|-0.06845331192016602|-0.2483828216791153|-0.9662402272224426|0|0|0|-1|-1|3
2021-03-10 21:04:22.807 +0000|290745.3144154167|-0.051055908203125|-0.23974609375|-1.00537109375|290745.2944514167|2.975262743829445|-0.06819187563194656|0.2509891107871152|0.0007545896805822849|0.1280239373445511|-0.04936299100518227|-0.02426690608263016|0.01615394651889801|0.0168614387512207|XArbitraryZVertical|-0.04409569283607058|-0.1218508124474028|-0.9877778198162901|-0.08662002554146173|-0.06600405275821686|-0.248362198472023|-0.9664158821105957|0|0|0|-1|-1|3
2021-03-10 21:04:22.827 +0000|290745.3343794167|-0.0506134033203125|-0.2619781494140625|-0.9961395263671875|290745.3144154167|2.9744019858474|-0.06576694148024871|0.2517391004966008|0.01472248695790768|0.0840919017791748|-0.02735977619886398|0.009387888014316559|0.0161937028169632|-0.02737218141555786|XArbitraryZVertical|-0.04298000297204609|-0.1223079365832601|-0.9877454353775721|-0.0869056268995976|-0.06364810466766357|-0.2490886151790619|-0.9663869738578796|0|0|0|-1|-1|3
2021-03-10 21:04:22.847 +0000|290745.3543434167|-0.0608978271484375|-0.2523193359375|-0.97930908203125|290745.3343794167|2.973970207927515|-0.06475462037589841|0.2518638884732247|-0.003994625527411699|0.01127947960048914|-0.01535468921065331|0.01293941587209702|-0.01989454030990601|-0.03187108039855957|XArbitraryZVertical|-0.04251137977019875|-0.1224044078405367|-0.9877403151187494|-0.08705829413335783|-0.06266777217388153|-0.2492094784975052|-0.9664198756217957|0|0|0|-1|-1|3
2021-03-10 21:04:22.867 +0000|290745.3743074167|-0.0732879638671875|-0.2340545654296875|-0.99151611328125|290745.3543434167|2.973996507893476|-0.06523338903429082|0.2514104336364239|0.02242240123450756|-0.04016687721014023|0.01434008870273829|0.001538120210170746|0.005117952823638916|-0.01503443717956543|XArbitraryZVertical|-0.042728327717783|-0.1221600304189823|-0.9877601400539412|-0.08706965934224722|-0.06313781440258026|-0.2487702965736389|-0.9665024280548096|0|0|0|-1|-1|3
2021-03-10 21:04:22.887 +0000|290745.3942724167|-0.071685791015625|-0.2494659423828125|-0.9656524658203125|290745.3743074167|2.974372297403615|-0.06693841880698807|0.2509392839365397|-0.001275787828490138|-0.09372129291296005|0.02247418090701103|-0.002299390733242035|0.008003249764442444|-0.02743202447891235|XArbitraryZVertical|-0.04352892713848602|-0.1218610791885495|-0.9877698189125732|-0.08698286530829305|-0.06479346752166748|-0.2483139336109161|-0.9665102362632751|0|0|0|-1|-1|3
2021-03-10 21:04:22.907 +0000|290745.4142364167|-0.07525634765625|-0.2298126220703125|-0.964599609375|290745.3942724167|2.974724237618087|-0.06902633070881933|0.2502864787188563|-0.02791602164506912|-0.1079545021057129|0.006584164686501026|-0.008479610085487366|-0.004592061042785645|0.005337417125701904|XArbitraryZVertical|-0.04451309288148007|-0.1214554022423753|-0.9877807229746604|-0.08692848906338205|-0.06682248413562775|-0.2476815283298492|-0.9665343165397644|0|0|0|-1|-1|3
2021-03-10 21:04:22.927 +0000|290745.4342004167|-0.0760345458984375|-0.2596893310546875|-0.9647369384765625|290745.4142364167|2.974699503460134|-0.07099220480516352|0.2497531644751853|-0.03980077430605888|-0.1091599017381668|0.005125107243657112|-0.005212254822254181|0.02315050363540649|-0.004338204860687256|XArbitraryZVertical|-0.04546463760089899|-0.121105757804441|-0.9877692350169078|-0.08705344028217743|-0.06873179227113724|-0.247164785861969|-0.9665327072143555|0|0|0|-1|-1|3
2021-03-10 21:04:22.947 +0000|290745.4541644167|-0.078887939453125|-0.25921630859375|-0.934478759765625|290745.4342004167|2.974633120989037|-0.07265891327656473|0.2483187822887495|-0.08131700754165649|-0.07973149418830872|0.0057545006275177|-0.00613924115896225|-0.01312123239040375|0.003329455852508545|XArbitraryZVertical|-0.04623572615792023|-0.120322675154342|-0.9878189382472242|-0.08716877498127329|-0.07036828994750977|-0.2457746565341949|-0.9667693972587585|0|0|0|-1|-1|3
2021-03-10 21:04:22.967 +0000|290745.4741284167|-0.0677490234375|-0.2406768798828125|-0.9678192138671875|290745.4541644167|2.974858233881844|-0.07379889320724586|0.2465385200322406|-0.07783193141222|-0.02210676111280918|0.03381463140249252|-0.006134189665317535|-0.006271839141845703|0.01686704158782959|XArbitraryZVertical|-0.04671575764660282|-0.1193982247127225|-0.9879144429588924|-0.08710285279350671|-0.07150249183177948|-0.244048610329628|-0.9671233892440796|0|0|0|-1|-1|3
2021-03-10 21:04:22.987 +0000|290745.4940934167|-0.0839385986328125|-0.2359771728515625|-0.9753570556640625|290745.4741284167|2.975789663870932|-0.07403113598868831|0.2455046340913133|-0.03223037719726562|0.006440143100917339|0.06191382184624672|0.004286646842956543|-0.02082440257072449|0.01942086219787598|XArbitraryZVertical|-0.04673475417956712|-0.1188987835583662|-0.9880142442955598|-0.08664295793441465|-0.07174572348594666|-0.2430458515882492|-0.967357873916626|0|0|0|-1|-1|3
2021-03-10 21:04:23.007 +0000|290745.5140574167|-0.104644775390625|-0.214599609375|-0.9900665283203125|290745.4940934167|2.977395259533073|-0.07429277187783392|0.2445119421578306|-0.04185415804386139|0.006499371491372585|0.08449804782867432|-0.01080798357725143|0.01873990893363953|-0.0110432505607605|XArbitraryZVertical|-0.04673042294938116|-0.1184342315245427|-0.9881391837190516|-0.08585202697612979|-0.07201668620109558|-0.2420828193426132|-0.967579185962677|0|0|0|-1|-1|3
2021-03-10 21:04:23.027 +0000|290745.5340214167|-0.0836639404296875|-0.2987518310546875|-0.91021728515625|290745.5140574167|2.979131338608571|-0.07471501909356518|0.2432055342417097|-0.1039323732256889|-0.0005020787939429283|0.1055180281400681|-0.02795401215553284|0.01341331005096436|-0.01924306154251099|XArbitraryZVertical|-0.04678661949898913|-0.1178107963926516|-0.9882845710228352|-0.08500157010066425|-0.07244878262281418|-0.240815058350563|-0.9678632616996765|0|0|0|-1|-1|3
2021-03-10 21:04:23.047 +0000|290745.5539854167|-0.035064697265625|-0.27105712890625|-0.9593353271484375|290745.5340214167|2.981502529937849|-0.0743776521685045|0.240520320692045|-0.1588853150606155|0.1047488152980804|0.143271267414093|-0.02687472105026245|-0.02587588131427765|0.04193902015686035|XArbitraryZVertical|-0.04637969246191159|-0.1165522279779214|-0.988557792627242|-0.08377346453588227|-0.07217004150152206|-0.238207995891571|-0.9685289859771729|0|0|0|-1|-1|3
2021-03-10 21:04:23.067 +0000|290745.5739494167|-0.03656005859375|-0.206634521484375|-1.021133422851562|290745.5539854167|2.984465838573216|-0.07237788480533658|0.2378011816726816|-0.1346454620361328|0.1428432166576385|0.1830970495939255|0.02737197279930115|-0.05200091004371643|0.0339653491973877|XArbitraryZVertical|-0.04511834122065914|-0.1153577812799411|-0.9888919715816608|-0.08215605948392041|-0.07027965039014816|-0.235566258430481|-0.9693138599395752|0|0|0|-1|-1|3
2021-03-10 21:04:23.086 +0000|290745.5939144167|-0.0740814208984375|-0.2097320556640625|-1.011505126953125|290745.5739494167|2.988195420191811|-0.07101276323094527|0.2345561791368048|-0.1468937695026398|0.07919786870479584|0.1878785043954849|0.03791285306215286|0.02393049001693726|-0.04364293813705444|XArbitraryZVertical|-0.04411144060431563|-0.1138905387141485|-0.9892687068552691|-0.08019063115240999|-0.06901022791862488|-0.2324113398790359|-0.9701662659645081|0|0|0|-1|-1|3
2021-03-10 21:04:23.106 +0000|290745.6138784167|-0.1075592041015625|-0.2391815185546875|-0.9653472900390625|290745.5939144167|2.99171689732514|-0.07118850494485633|0.2305656092072719|-0.2285915911197662|0.01639408059418201|0.1844966411590576|0.006242640316486359|0.01983371376991272|-0.04113554954528809|XArbitraryZVertical|-0.04385771638958556|-0.1119855252718676|-0.9896404653728061|-0.07840566715611785|-0.06924614310264587|-0.2285282015800476|-0.9710714817047119|0|0|0|-1|-1|3
2021-03-10 21:04:23.126 +0000|290745.6338424167|-0.047088623046875|-0.361236572265625|-0.888885498046875|290745.6138784167|2.995683474212266|-0.07225706906049444|0.2246705169169134|-0.4020313024520874|0.03455151244997978|0.2398376613855362|-0.032647505402565|-0.001274898648262024|-0.02625715732574463|XArbitraryZVertical|-0.04396309274725982|-0.1091117568998132|-0.990111988107987|-0.07642154293196063|-0.07037979364395142|-0.2227851748466492|-0.9723237156867981|0|0|0|-1|-1|3
2021-03-10 21:04:23.161 +0000|290745.6538064167|-0.040618896484375|-0.11474609375|-1.00299072265625|290745.6538064167|3.00586145498194|-0.06962454486631676|0.2118863291837027|-0.1293268650770187|0.06343040615320206|0.3192620873451233|0.03340557962656021|0.03586591780185699|-0.01002317667007446|XArbitraryZVertical|-0.04169702730308218|-0.103090713031613|-0.9912535118870458|-0.07106446006390507|-0.06801247596740723|-0.2103044092655182|-0.9752673506736755|0|0|0|-1|-1|3
2021-03-10 21:04:23.167 +0000|290745.6737704167|-0.05133056640625|-0.171112060546875|-1.021331787109375||||||||||||||||||||||||3
2021-03-10 21:04:23.187 +0000|290745.6937344167|-0.0903167724609375|-0.160888671875|-1.008682250976562|290745.6737704167|3.012169410270597|-0.07042466728815301|0.2098835565931386|-0.06935431063175201|-0.02116048522293568|0.2842753231525421|0.02356476336717606|0.06834661960601807|-0.05047696828842163|XArbitraryZVertical|-0.04170766801114836|-0.1022011630825312|-0.9915634307886435|-0.06795083084537473|-0.06882228702306747|-0.2083460092544556|-0.9756307601928711|0|0|0|-1|-1|3
2021-03-10 21:04:23.206 +0000|290745.7136994167|-0.098602294921875|-0.25665283203125|-0.9304962158203125|290745.6937344167|3.017117848853391|-0.07278317558157586|0.207179002882571|-0.1810426115989685|-0.07682657241821289|0.2260527908802032|-0.009936578571796417|0.02752317488193512|-0.03134578466415405|XArbitraryZVertical|-0.04254565622405117|-0.1008849683616201|-0.9918224384508878|-0.06557779922372056|-0.0711638480424881|-0.2057000547647476|-0.9760241508483887|0|0|0|-1|-1|3
2021-03-10 21:04:23.226 +0000|290745.7336634167|-0.065673828125|-0.2421875|-0.93939208984375|290745.7136994167|3.021742853428976|-0.07499784388089463|0.2057669017653561|-0.2036131918430328|-0.0139547698199749|0.2576478123664856|-0.03383076190948486|-0.01173125207424164|0.02173089981079102|XArbitraryZVertical|-0.04337135920637109|-0.1002122550735339|-0.9919980406706976|-0.06337387504210076|-0.07334692776203156|-0.2043179422616959|-0.9761528372764587|0|0|0|-1|-1|3
2021-03-10 21:04:23.246 +0000|290745.7536274167|-0.0821075439453125|-0.15570068359375|-0.99700927734375|290745.7336634167|3.026857989812231|-0.07486472182720538|0.2023903740191933|-0.1338964253664017|0.07015877962112427|0.2924145758152008|-0.001667715609073639|-0.07083912193775177|0.06281304359436035|XArbitraryZVertical|-0.04295907607509627|-0.09865098480813399|-0.9923349452164022|-0.06077699905077039|-0.07326816022396088|-0.2010114938020706|-0.9768450260162354|0|0|0|-1|-1|3
2021-03-10 21:04:23.266 +0000|290745.7735914167|-0.0872039794921875|-0.1783599853515625|-1.019424438476562|290745.7536274167|3.033331141535572|-0.07467214170545082|0.199097092582892|0.0170762725174427|0.05494797229766846|0.3489822447299957|-0.005041703581809998|0.04402153193950653|-0.01682502031326294|XArbitraryZVertical|-0.04246155908185408|-0.09715990339375728|-0.9926985178036623|-0.05750326270244513|-0.07312902808189392|-0.1977843344211578|-0.9775139093399048|0|0|0|-1|-1|3
2021-03-10 21:04:23.286 +0000|290745.7935554167|-0.1023101806640625|-0.2065582275390625|-1.010421752929688|290745.7735914167|3.040360041573453|-0.07512250134509808|0.198034529014175|-0.0726691409945488|0.02394121140241623|0.3459568023681641|-0.01093341410160065|0.02228890359401703|-0.03497487306594849|XArbitraryZVertical|-0.04231865680637768|-0.09676864431281948|-0.9929385926053285|-0.05401888003487954|-0.07358498871326447|-0.1967426538467407|-0.9776899218559265|0|0|0|-1|-1|3
2021-03-10 21:04:23.306 +0000|290745.8135204167|-0.1104888916015625|-0.2478485107421875|-0.8919830322265625|290745.7935554167|3.047235271472795|-0.07657432908738139|0.1943065082194143|-0.2003188878297806|-0.01082710176706314|0.3820951879024506|-0.02758590131998062|-0.004774585366249084|-0.03744047880172729|XArbitraryZVertical|-0.0426262218029679|-0.09502483900800493|-0.9932731314286706|-0.05061322508926419|-0.07505993545055389|-0.1930861473083496|-0.9783065915107727|0|0|0|-1|-1|3
2021-03-10 21:04:23.326 +0000|290745.8334844167|-0.0518646240234375|-0.241546630859375|-0.920806884765625|290745.8135204167|3.054979722366744|-0.07669044547808196|0.1895459886771447|-0.3938643038272858|0.2397201061248779|0.4270474016666412|-0.03884682059288025|-0.02696476876735687|0.05827432870864868|XArbitraryZVertical|-0.04222185591183538|-0.09282073219317238|-0.9936909564703934|-0.04669134141323836|-0.07524310052394867|-0.1884130388498306|-0.9792032241821289|0|0|0|-1|-1|3
2021-03-10 21:04:23.346 +0000|290745.8534484167|-0.1111602783203125|-0.1174163818359375|-0.9474945068359375|290745.8334844167|3.063154948647994|-0.07128664942477614|0.1814364227506683|-0.3424866497516632|0.4436658024787903|0.4259777069091797|0.01626995205879211|-0.08890555799007416|0.06810826063156128|XArbitraryZVertical|-0.03901176953999189|-0.08907517748579558|-0.9943635135518708|-0.04224867053349091|-0.07005714625120163|-0.180442601442337|-0.9810873866081238|0|0|0|-1|-1|3
2021-03-10 21:04:23.366 +0000|290745.8734124167|-0.0986785888671875|-0.0529327392578125|-0.9360504150390625|290745.8534484167|3.071198334519907|-0.06203344926693422|0.1742168795772042|-0.3162790834903717|0.6390661001205444|0.3921643495559692|-0.04230775311589241|0.02355663478374481|0.04050916433334351|XArbitraryZVertical|-0.03393502373690974|-0.08581545575989268|-0.9950176544762875|-0.03773590707402169|-0.06105524674057961|-0.173336923122406|-0.982968270778656|0|0|0|-1|-1|3
2021-03-10 21:04:23.386 +0000|290745.8933764167|-0.05303955078125|-0.0037841796875|-0.9135284423828125|290745.8734124167|3.077822915818529|-0.04960480615508373|0.1680539873095474|-0.3082181811332703|0.7595792412757874|0.2812920808792114|-0.05855116993188858|0.1047488152980804|0.03398531675338745|XArbitraryZVertical|-0.02737456145566274|-0.08307186914826313|-0.9955926944364882|-0.0338375721283522|-0.04888592660427094|-0.1672640740871429|-0.9846993684768677|0|0|0|-1|-1|3
2021-03-10 21:04:23.406 +0000|290745.9133404167|-0.069122314453125|-0.26141357421875|-0.898681640625|290745.8933764167|3.082358024182805|-0.03581465073480686|0.1634926254615207|-0.2962742447853088|0.7212861776351929|0.2240045517683029|-0.02782658860087395|0.1691739112138748|0.05651247501373291|XArbitraryZVertical|-0.02025641478692267|-0.08107791047810442|-0.9960205211972298|-0.03097087378065061|-0.03532950207591057|-0.1627652496099472|-0.9860321283340454|0|0|0|-1|-1|3
2021-03-10 21:04:23.426 +0000|290745.9333054167|-0.0426483154296875|-0.2767486572265625|-1.13037109375|290745.9133404167|3.089084728443241|-0.02400466048618119|0.1538144778595616|-0.8539968729019165|0.7422845959663391|0.2431546300649643|-0.02814560569822788|-0.095097616314888|0.1178072094917297|XArbitraryZVertical|-0.01397919446695592|-0.07648530564198074|-0.9966044834345477|-0.0270932812158397|-0.02371897920966148|-0.1532086879014969|-0.9879091382026672|0|0|0|-1|-1|3
2021-03-10 21:04:23.446 +0000|290745.9532694167|-0.019866943359375|-0.248870849609375|-1.044631958007812|290745.9333054167|3.094099897324794|-0.01174911984789649|0.1336261957075943|-1.241470098495483|0.6727489829063416|0.2683043777942657|-0.0250532403588295|-0.1314042955636978|-0.1042131781578064|XArbitraryZVertical|-0.007444979289323613|-0.06660425308279021|-0.9974609811986687|-0.0240828514648479|-0.01164411194622517|-0.1332288831472397|-0.9910168647766113|0|0|0|-1|-1|3
2021-03-10 21:04:23.466 +0000|290745.9732334167|0.009521484375|-0.090179443359375|-0.8685302734375|290745.9532694167|3.099645892663244|8.967777282699549e-05|0.1047578109297422|-1.490498185157776|0.6890547275543213|0.2579765617847443|-0.03382632881402969|-0.1695120632648468|-0.06628835201263428|XArbitraryZVertical|-0.001053212407260312|-0.0523443825415451|-0.9984089540490551|-0.02094073366704535|8.918614912545308e-05|-0.1045663133263588|-0.9945179224014282|0|0|0|-1|-1|3
2021-03-10 21:04:23.486 +0000|290745.9931974167|0.0691680908203125|-0.0030670166015625|-0.86712646484375|290745.9732334167|3.10419901921267|0.01430820953806985|0.07259572506951958|-1.701396226882935|0.8063967227935791|0.1735436767339706|-0.00668637827038765|-0.04866860061883926|0.09554588794708252|XArbitraryZVertical|0.006469633339808609|-0.03641628351614614|-0.9991459133766609|-0.0184233602746936|0.01427003648132086|-0.07253197580575943|-0.9972639679908752|0|0|0|-1|-1|3
2021-03-10 21:04:23.506 +0000|290746.0131614167|0.1073150634765625|0.1649017333984375|-0.98095703125|290745.9931974167|3.107961244039143|0.03084847365761513|0.04176893736369112|-1.363840460777283|0.8577736020088196|0.1249589249491692|0.02438965812325478|0.005501896142959595|0.145167350769043|XArbitraryZVertical|0.01506697855979726|-0.02113680491342874|-0.9995270773756849|-0.01648720004360066|0.03081667982041836|-0.04175679385662079|-0.998652458190918|0|0|0|-1|-1|3
2021-03-10 21:04:23.526 +0000|290746.0331264167|0.12939453125|0.1887054443359375|-1.091201782226562|290746.0131614167|3.111233688535898|0.04733413350916236|0.01777927590995008|-1.030329465866089|0.7844196557998657|0.100731261074543|0.05226990953087807|0.1520404070615768|0.0645332932472229|XArbitraryZVertical|0.02352630018870118|-0.009245199608502824|-0.999568493266884|-0.01496370517720885|0.04730898141860962|-0.01777833886444569|-0.9987220764160156|0|0|0|-1|-1|3
2021-03-10 21:04:23.546 +0000|290746.0530904167|0.1384124755859375|0.1208038330078125|-1.095123291015625|290746.0331264167|3.113936629665435|0.0601320761917874|0.001640344736575119|-0.5926451086997986|0.5107538104057312|0.09828008711338043|0.06827646493911743|0.1917343288660049|-0.07213646173477173|XArbitraryZVertical|0.03004728793759505|-0.001235400727111412|-0.9994525119959748|-0.01379666479108005|0.06009576469659805|-0.00164034403860569|-0.9981912970542908|0|0|0|-1|-1|3
2021-03-10 21:04:23.566 +0000|290746.0730544167|0.16595458984375|-0.0128631591796875|-1.034744262695312|290746.0730544167|3.118879304798244|0.07443227015206091|-0.008382077566804889|-0.03698891028761864|0.4025084972381592|0.09448277205228806|0.0800580307841301|0.02097591571509838|-0.06011581420898438|XArbitraryZVertical|0.03725237994937861|0.003765313130784959|-0.9992325917910114|-0.01150439539851916|0.07436095178127289|0.008381979539990425|-0.9971961379051208|0|0|0|-1|-1|3
2021-03-10 21:04:23.585 +0000|290746.0930184167|0.18817138671875|-0.07904052734375|-1.035140991210938||||||||||||||||||||||||3
2021-03-10 21:04:23.606 +0000|290746.1129824167|0.1179351806640625|0.0469970703125|-1.036209106445312|290746.0930184167|3.120073634981322|0.08287181817765939|-0.01051204830331306|-0.246606856584549|0.3828863799571991|0.01406356319785118|0.1102207824587822|-0.09350442141294479|-0.04264098405838013|XArbitraryZVertical|0.04147758349836361|0.004805496527013777|-0.999067726518067|-0.01096763173203286|0.08277241885662079|0.01051185466349125|-0.9965130090713501|0|0|0|-1|-1|3
2021-03-10 21:04:23.625 +0000|290746.1329474167|0.076202392578125|0.0726165771484375|-0.9825439453125|290746.1129824167|3.120191392052231|0.08952785196470156|-0.01704564091148473|-0.3461981415748596|0.2922958731651306|-0.03102091327309608|0.04744555056095123|-0.009140774607658386|-0.04759138822555542|XArbitraryZVertical|0.04483589698723094|0.00803487673853262|-0.9989006858110303|-0.01107067968928294|0.08939531445503235|0.01704481616616249|-0.9958503842353821|0|0|0|-1|-1|3
2021-03-10 21:04:23.648 +0000|290746.1529114167|0.07598876953125|0.0239715576171875|-0.932373046875|290746.1329474167|3.120832443965539|0.09509881161457132|-0.0223425820939199|-0.1587679088115692|0.2694760859012604|0.04204877093434334|-0.01369399577379227|0.06350520998239517|0.001351833343505859|XArbitraryZVertical|0.04764178640992996|0.01066448893002956|-0.9987481112092651|-0.01089848846557229|0.09493183344602585|0.02234072238206863|-0.9952330589294434|0|0|0|-1|-1|3
2021-03-10 21:04:23.665 +0000|290746.1728754167|0.0777740478515625|0.01873779296875|-0.9677276611328125|290746.1529114167|3.122112252274654|0.1006396422976293|-0.02366422060180573|-0.007318367250263691|0.2844782471656799|0.06952442973852158|-0.02738258987665176|0.0100751556456089|0.05281281471252441|XArbitraryZVertical|0.05040777947773287|0.01132642122799542|-0.998611122983073|-0.01032213269950905|0.1004417166113853|0.0236620120704174|-0.9946615099906921|0|0|0|-1|-1|3
2021-03-10 21:04:23.685 +0000|290746.1928395|0.067474365234375|0.0056304931640625|-0.988128662109375|290746.1728754167|3.123714794272379|0.1064149345073387|-0.02030439014676555|0.1920227706432343|0.267991691827774|0.11246008425951|-0.02391688525676727|-0.005471466109156609|0.03788530826568604|XArbitraryZVertical|0.05326811599298741|0.009661885549682175|-0.9984886889788962|-0.00946558877666448|0.1061923131346703|0.02030299417674541|-0.9941383004188538|0|0|0|-1|-1|3
2021-03-10 21:04:23.706 +0000|290746.2128035|0.0901031494140625|-0.0053558349609375|-1.023635864257812|290746.2128035|3.128942860771914|0.117330839527955|-0.01124383952206436|0.1507551521062851|0.2490130513906479|0.1894658207893372|-0.03401605039834976|-0.01829317584633827|-0.01687163114547729|XArbitraryZVertical|0.05866517166116014|0.0052412748313325|-0.9982418544865519|-0.006643488559104738|0.1170544177293777|0.01124360226094723|-0.9930618405342102|0|0|0|-1|-1|3
2021-03-10 21:04:23.725 +0000|290746.2327675|0.1171722412109375|0.0107421875|-1.00372314453125||||||||||||||||||||||||3
2021-03-10 21:04:23.745 +0000|290746.2527325|0.163482666015625|0.0401611328125|-1.005889892578125|290746.2327675|3.132829440833772|0.1217854906608876|-0.01055522283767228|-0.005573580507189035|0.22990982234478|0.2109190076589584|-0.01191975176334381|-0.002925645560026169|-0.02024883031845093|XArbitraryZVertical|0.06087676577400897|0.005001115821119034|-0.9981218082687665|-0.004694576825213126|0.1214779019355774|0.01055502705276012|-0.9925380349159241|0|0|0|-1|-1|3
2021-03-10 21:04:23.765 +0000|290746.2726965|0.1501007080078125|0.0160369873046875|-1.02178955078125|290746.2527325|3.137341699077435|0.1249308047840805|-0.01048641069065274|0.02526284568011761|0.1502282023429871|0.2432644367218018|0.03273417800664902|0.02511252090334892|-0.002950131893157959|XArbitraryZVertical|0.06243490694409308|0.005100262664210306|-0.9980330713207131|-0.0024486052330987|0.1245992258191109|0.01048621814697981|-0.9921517372131348|0|0|0|-1|-1|3
2021-03-10 21:04:23.785 +0000|290746.2926605|0.1390380859375|-0.02056884765625|-1.006362915039062|290746.2726965|-3.140857918501873|0.1261027040024674|-0.007971756123789151|0.1629371047019958|0.07100176811218262|0.2853453159332275|0.03138554096221924|0.01574047282338142|-0.03053963184356689|XArbitraryZVertical|0.06300761405762925|0.004001094274444273|-0.9980050771647314|0.0001154869065975728|0.1257647573947906|0.007971671409904957|-0.9920280575752258|0|0|0|-1|-1|3
2021-03-10 21:04:23.805 +0000|290746.3126245|0.125274658203125|0.0126800537109375|-0.977294921875|290746.2926605|-3.135197472190646|0.1264877733482349|-0.002862485462449843|0.1858550161123276|0.04541502520442009|0.3300271332263947|0.01687042415142059|-0.01519159600138664|-0.01838421821594238|XArbitraryZVertical|0.06319677951446682|0.001630466288139881|-0.9979949371255001|0.003100732751818491|0.1261502504348755|0.002862481633201241|-0.9920070171356201|0|0|0|-1|-1|3
2021-03-10 21:04:23.825 +0000|290746.3325885|0.141754150390625|0.0649871826171875|-0.951751708984375|290746.3126245|-3.129040347518306|0.1269513549941791|0.0001885585925979015|0.04152517020702362|0.04954489693045616|0.3185686767101288|0.0004951357841491699|-0.004526425153017044|0.004083216190338135|XArbitraryZVertical|0.06343240209941679|0.0003040254002972531|-0.9979663866757187|0.006269452405558873|0.1266106218099594|-0.0001885585952550173|-0.9919524788856506|0|0|0|-1|-1|3
2021-03-10 21:04:23.845 +0000|290746.3525525|0.1478729248046875|0.0216522216796875|-0.996551513671875|290746.3325885|-3.122969648792996|0.1282714721434561|0.0009769798440812877|0.06880535185337067|0.06403126567602158|0.3064439296722412|0.006571069359779358|0.06390421092510223|0.04164975881576538|XArbitraryZVertical|0.06409352724976763|0.0001093176193357609|-0.9979003613879962|0.009323530188054763|0.1279199421405792|-0.0009769797325134277|-0.9917840361595154|0|0|0|-1|-1|3
2021-03-10 21:04:23.865 +0000|290746.3725175|0.123291015625|-0.0269622802734375|-1.042938232421875|290746.3725175|-3.111706946652232|0.1299579892078438|0.01179870002752756|0.3319009244441986|0.007696141488850117|0.3237460553646088|0.001169145107269287|0.00349763035774231|-0.03741705417633057|XArbitraryZVertical|0.06501285609074532|-0.004915972613181264|-0.9977552071304978|0.01529352696534148|0.1295834630727768|-0.0117984265089035|-0.9914983510971069|0|0|0|-1|-1|3
2021-03-10 21:04:23.885 +0000|290746.3924815|0.1173858642578125|-0.049468994140625|-1.028121948242188||||||||||||||||||||||||3
2021-03-10 21:04:23.905 +0000|290746.4124455|0.1561279296875|0.002227783203125|-0.985809326171875|290746.3924815|-3.106115854941331|0.1302617940126153|0.01640916886800487|0.02086460031569004|0.03429478406906128|0.2838472723960876|-0.01642709970474243|-0.04018643498420715|-0.05000263452529907|XArbitraryZVertical|0.0652176475088628|-0.007031406810990804|-0.9976796966301287|0.01823316962175636|0.1298762410879135|-0.01640843227505684|-0.9913944602012634|0|0|0|-1|-1|3
2021-03-10 21:04:23.925 +0000|290746.4324095|0.1421661376953125|0.0284271240234375|-0.973052978515625|290746.4124455|-3.10088839006488|0.1312547190379681|0.0137755377955622|-0.1516881734132767|0.04075907170772552|0.2234667539596558|0.01485572755336761|0.002895567566156387|0.004655838012695312|XArbitraryZVertical|0.06570498785350043|-0.005536889027992034|-0.9976078557152306|0.02075804456311697|0.130865752696991|-0.01377510186284781|-0.9913043975830078|0|0|0|-1|-1|3
2021-03-10 21:04:23.945 +0000|290746.4523735|0.1252593994140625|0.000885009765625|-0.9690704345703125|290746.4523735|-3.092268986543285|0.1323384701826358|0.0128083704828636|0.1348925828933716|0.02967334724962711|0.217701643705368|-0.004423961043357849|0.02615944482386112|0.02871137857437134|XArbitraryZVertical|0.06625707030693087|-0.004757717706708464|-0.9974773565946216|0.02502818865864925|0.1319417059421539|-0.01280802022665739|-0.9911747574806213|0|0|0|-1|-1|3
2021-03-10 21:04:23.965 +0000|290746.4723385|0.124786376953125|-0.0364227294921875|-0.989349365234375||||||||||||||||||||||||3
2021-03-10 21:04:23.985 +0000|290746.4923025|0.1392364501953125|-0.03094482421875|-1.009796142578125|290746.4723385|-3.088198619805862|0.1328965964203308|0.01673924245296912|0.09046304970979691|0.05376169085502625|0.2215427160263062|-0.01015743613243103|-0.01525923609733582|0.008941948413848877|XArbitraryZVertical|0.06659634709553422|-0.006575683831818762|-0.9973877768644015|0.02718953468347352|0.1324871927499771|-0.01673846133053303|-0.9910433888435364|0|0|0|-1|-1|3
2021-03-10 21:04:24.005 +0000|290746.5122665|0.147705078125|0.0129547119140625|-0.9631195068359375|290746.4923025|-3.08395912602809|0.1340402862482061|0.01829752853224256|-0.005767092108726501|0.06883134692907333|0.2149538695812225|0.003544405102729797|-0.0209338553249836|-0.02155649662017822|XArbitraryZVertical|0.06720238513526343|-0.007194798302093559|-0.9972813113222342|0.02935931343693238|0.1336168944835663|-0.01829650811851025|-0.9908641576766968|0|0|0|-1|-1|3
2021-03-10 21:04:24.025 +0000|290746.5322305|0.1541748046875|0.0107879638671875|-0.96942138671875|290746.5122665|-3.079735543855825|0.1358690957982762|0.01710820930037651|-0.05983565375208855|0.1043423116207123|0.1948923766613007|0.007802665233612061|0.02495037578046322|0.02054625749588013|XArbitraryZVertical|0.06811126744337988|-0.006431097209902604|-0.9971617764456435|0.03143155506678841|0.135431632399559|-0.01710737496614456|-0.9906389713287354|0|0|0|-1|-1|3
2021-03-10 21:04:24.045 +0000|290746.5521945|0.14630126953125|0.006988525390625|-0.9866943359375|290746.5322305|-3.076055768649294|0.1381604247707452|0.01659403220437542|0.03331910818815231|0.1232030838727951|0.1767361909151077|0.01902072131633759|0.02536705508828163|0.02291220426559448|XArbitraryZVertical|0.06925703141218469|-0.006011319873410581|-0.9970262959404776|0.03325570404921341|0.1377023458480835|-0.01659327000379562|-0.9903346300125122|0|0|0|-1|-1|3
2021-03-10 21:04:24.065 +0000|290746.5721585|0.152191162109375|-0.0051116943359375|-0.97564697265625|290746.5521945|-3.072902493726592|0.1406161557990019|0.01862614111977614|0.1063392236828804|0.1480275839567184|0.1657067090272903|0.007866129279136658|0.03418900817632675|0.009321510791778564|XArbitraryZVertical|0.07052468779273885|-0.006872279055706244|-0.9968755241525573|0.03490586570988413|0.1401289105415344|-0.01862506382167339|-0.9899581074714661|0|0|0|-1|-1|3
