loggingTime(txt)|accelerometerTimestamp_sinceReboot(s)|accelerometerAccelerationX(G)|accelerometerAccelerationY(G)|accelerometerAccelerationZ(G)|motionTimestamp_sinceReboot(s)|motionYaw(rad)|motionRoll(rad)|motionPitch(rad)|motionRotationRateX(rad/s)|motionRotationRateY(rad/s)|motionRotationRateZ(rad/s)|motionUserAccelerationX(G)|motionUserAccelerationY(G)|motionUserAccelerationZ(G)|motionAttitudeReferenceFrame(txt)|motionQuaternionX(R)|motionQuaternionY(R)|motionQuaternionZ(R)|motionQuaternionW(R)|motionGravityX(G)|motionGravityY(G)|motionGravityZ(G)|motionMagneticFieldX(µT)|motionMagneticFieldY(µT)|motionMagneticFieldZ(µT)|motionHeading(°)|motionMagneticFieldCalibrationAccuracy(Z)|label
2021-03-10 21:12:17.088 +0000|291097.27345375|-0.36163330078125|-0.107086181640625|-0.9308013916015625|291097.25349075|2.607738104985557|-0.3693649815701807|0.09881257023156775|-0.1467890590429306|0.0860213041305542|0.05428848043084145|-0.05910319089889526|0.01958081126213074|-0.05268985033035278|XArbitraryZVertical|-0.1897200611128946|0.001550793182883287|-0.9446336440990237|-0.2677147351002157|-0.3592622578144073|-0.09865184873342514|-0.9280077815055847|0|0|0|-1|-1|3
2021-03-10 21:12:17.098 +0000|291097.29341675|-0.367279052734375|-0.07244873046875|-0.9162750244140625|291097.27345375|2.607922777336033|-0.3680908209873481|0.09468689228158764|-0.1080260872840881|0.05423973128199577|0.05728258565068245|0.00698089599609375|-0.02811993658542633|-0.007396876811981201|XArbitraryZVertical|-0.188601829703786|0.003321531746016064|-0.9449730788991527|-0.267290578324527|-0.3582229316234589|-0.09454546868801117|-0.9288366436958313|0|0|0|-1|-1|3
2021-03-10 21:12:17.099 +0000|291097.31337975|-0.353607177734375|-0.100555419921875|-0.9214935302734375|291097.29341675|2.608428920382809|-0.3668158169300424|0.09301284089675957|0.06653701514005661|0.07927008718252182|0.01385876629501581|-0.01181709766387939|0.0292801558971405|0.01720762252807617|XArbitraryZVertical|-0.1877905071035271|0.003898482408724958|-0.9452381270749962|-0.2669165066645261|-0.3570946455001831|-0.09287878125905991|-0.9294390678405762|0|0|0|-1|-1|3
2021-03-10 21:12:17.115 +0000|291097.33334275|-0.3694305419921875|-0.1675262451171875|-0.922515869140625|291097.31337975|2.608867635077447|-0.3653812478225797|0.0945304291887669|0.09326713532209396|0.06901516020298004|-0.04219678044319153|0.00135532021522522|0.004378117620944977|0.007515430450439453|XArbitraryZVertical|-0.1873032294035863|0.00294521576388055|-0.9453610922620909|-0.2668354673570479|-0.3557101488113403|-0.09438970685005188|-0.9298176765441895|0|0|0|-1|-1|3
2021-03-10 21:12:17.135 +0000|291097.35330575|-0.368865966796875|-0.1726226806640625|-0.9251708984375|291097.33334275|2.607628255035075|-0.3652480411527904|0.0957963607843338|-0.04283652827143669|0.05271032825112343|-0.1252313107252121|-0.005128622055053711|-0.05684641748666763|0.004948019981384277|XArbitraryZVertical|-0.1873971596037798|0.002442327750800673|-0.945149221447631|-0.2675244302969537|-0.355543315410614|-0.09564990550279617|-0.9297527074813843|0|0|0|-1|-1|3
2021-03-10 21:12:17.155 +0000|291097.37326875|-0.370086669921875|-0.1265106201171875|-0.9105072021484375|291097.35330575|2.603866577455|-0.3635336517858004|0.09530544155519211|-0.1203832402825356|0.06139873713254929|-0.2095949947834015|-0.01931023597717285|-0.09380361437797546|0.005264222621917725|XArbitraryZVertical|-0.186520412443377|0.002796980383094484|-0.9448275358379334|-0.2692642465827956|-0.3539654910564423|-0.09516122937202454|-0.9304046034812927|0|0|0|-1|-1|3
2021-03-10 21:12:17.174 +0000|291097.39323175|-0.34039306640625|-0.1171875|-0.888336181640625|291097.37326875|2.59865883679766|-0.3619080597606413|0.09461437416172859|-0.06786328554153442|0.0979437455534935|-0.2745347917079926|-0.01794657111167908|-0.03505858033895493|0.01597046852111816|XArbitraryZVertical|-0.1856568602511492|0.003389656319407373|-0.9443066939689962|-0.271670609828172|-0.3524757623672485|-0.09447327256202698|-0.9310401082038879|0|0|0|-1|-1|3
2021-03-10 21:12:17.197 +0000|291097.41319475|-0.3427886962890625|-0.1158905029296875|-0.8733367919921875|291097.39323175|2.592514734973024|-0.3598713325530434|0.09577657586930462|-0.01424095500260592|0.06197429448366165|-0.348648339509964|0.003173559904098511|-0.025967076420784|0.03655683994293213|XArbitraryZVertical|-0.1848347330983544|0.003129348557238398|-0.9436018988913319|-0.2746668089360089|-0.3505398631095886|-0.0956302136182785|-0.9316526651382446|0|0|0|-1|-1|3
2021-03-10 21:12:17.214 +0000|291097.43315775|-0.351165771484375|-0.1056976318359375|-0.8638916015625|291097.41319475|2.585561774004075|-0.3588746088433502|0.09936303356157376|0.001492068637162447|-0.00643959641456604|-0.3838628828525543|0.006074100732803345|-0.01591269671916962|0.05768156051635742|XArbitraryZVertical|-0.1848216095332988|0.001934428411110023|-0.9425627943066333|-0.278231135781732|-0.349488377571106|-0.09919961541891098|-0.9316744804382324|0|0|0|-1|-1|3
2021-03-10 21:12:17.234 +0000|291097.45312075|-0.349822998046875|-0.0749664306640625|-0.87274169921875|291097.43315775|2.578267396075375|-0.3593730510024718|0.1040032193311519|-0.02477338910102844|-0.06827808916568756|-0.3873435854911804|0.001764625310897827|-0.001713961362838745|0.06561124324798584|XArbitraryZVertical|-0.1856613929423629|0.0004828868496453073|-0.941269190463855|-0.282031922019119|-0.3497870862483978|-0.1038158237934113|-0.9310592412948608|0|0|0|-1|-1|3
2021-03-10 21:12:17.254 +0000|291097.47308375|-0.3651885986328125|-0.0323944091796875|-0.8649139404296875|291097.45312075|2.570944286880907|-0.3612059728163592|0.1072724971733206|0.05494419112801552|-0.1615164279937744|-0.3994414508342743|-0.003578692674636841|0.009517446160316467|0.06107550859451294|XArbitraryZVertical|-0.1869570932941486|-0.0001209297114420915|-0.9398956873641373|-0.2857328205249565|-0.3513712286949158|-0.1070668771862984|-0.9300940632820129|0|0|0|-1|-1|3
2021-03-10 21:12:17.274 +0000|291097.49304775|-0.3664093017578125|-0.094573974609375|-0.855316162109375|291097.47308375|2.564340467539645|-0.3643059595028517|0.1132605639682162|0.2406636029481888|-0.1863108277320862|-0.4119787514209747|-0.003159701824188232|0.08857399225234985|0.06080043315887451|XArbitraryZVertical|-0.1892197952354098|-0.001882844075803136|-0.9383465016518617|-0.2893065404518209|-0.3540180325508118|-0.1130185723304749|-0.9283846616744995|0|0|0|-1|-1|3
2021-03-10 21:12:17.294 +0000|291097.51301075|-0.3811187744140625|-0.1381683349609375|-0.8455810546875|291097.49304775|2.55860813721938|-0.3675470590940705|0.1210827941653255|0.2428286522626877|-0.2127255499362946|-0.3993877768516541|-0.01178789138793945|0.04597331583499908|0.06891137361526489|XArbitraryZVertical|-0.1918065286915587|-0.004556061080782353|-0.9367848781701587|-0.2926152900423002|-0.3566965758800507|-0.1207871437072754|-0.9263790249824524|0|0|0|-1|-1|3
2021-03-10 21:12:17.314 +0000|291097.53297375|-0.381591796875|-0.1656646728515625|-0.82147216796875|291097.51301075|2.55255390682908|-0.3720756500697155|0.1273489994918362|0.1334905326366425|-0.2846605181694031|-0.3971574604511261|-0.01427203416824341|-0.01081229746341705|0.07152241468429565|XArbitraryZVertical|-0.1947957368068662|-0.006257651512760164|-0.9351072582286563|-0.2959559338542758|-0.3606058359146118|-0.1270050555467606|-0.9240309000015259|0|0|0|-1|-1|3
2021-03-10 21:12:17.334 +0000|291097.55293675|-0.3966064453125|-0.1575775146484375|-0.8043212890625|291097.53297375|2.545678670074348|-0.3775534409932099|0.1304215915754669|-0.07069266587495804|-0.3344528377056122|-0.3708282709121704|-0.01685348153114319|-0.02253571152687073|0.09477037191390991|XArbitraryZVertical|-0.1977980596794795|-0.006213546526162857|-0.9333698682400989|-0.2994293554112573|-0.3655164539813995|-0.1300521641969681|-0.9216746091842651|0|0|0|-1|-1|3
2021-03-10 21:12:17.354 +0000|291097.57289975|-0.4260711669921875|-0.1454315185546875|-0.78546142578125|291097.55293675|2.537406056234357|-0.3840222069743821|0.1302772160450126|-0.2362575381994247|-0.4151916205883026|-0.3924165964126587|-0.01722446084022522|-0.03751042485237122|0.1083341836929321|XArbitraryZVertical|-0.2008156797284429|-0.00434658463996529|-0.9314871990813157|-0.3032916522321483|-0.3714779019355774|-0.1299090087413788|-0.9193083643913269|0|0|0|-1|-1|3
2021-03-10 21:12:17.374 +0000|291097.592864|-0.4426116943359375|-0.115325927734375|-0.75738525390625|291097.57289975|2.527235781620521|-0.3914087407749648|0.1280742714853711|-0.347195029258728|-0.4586861431598663|-0.4675547182559967|-0.04218095541000366|-0.02088090777397156|0.1259996891021729|XArbitraryZVertical|-0.203955458135957|-0.001155814488742496|-0.9293159236649963|-0.3078519985366963|-0.3783664703369141|-0.1277244240045547|-0.9168016910552979|0|0|0|-1|-1|3
2021-03-10 21:12:17.394 +0000|291097.612827|-0.44287109375|-0.1418304443359375|-0.74395751953125|291097.592864|2.514687042454886|-0.3992247381133677|0.1251110768773489|-0.4034845232963562|-0.4777649343013763|-0.5750518441200256|-0.05300891399383545|0.001417644321918488|0.145682692527771|XArbitraryZVertical|-0.2071520899670091|0.002734111102890707|-0.9267396436800849|-0.3134232465472503|-0.3856659829616547|-0.1247849464416504|-0.9141610860824585|0|0|0|-1|-1|3
2021-03-10 21:12:17.414 +0000|291097.63279|-0.428985595703125|-0.1527252197265625|-0.7716064453125|291097.612827|2.499494370060224|-0.4069716469589661|0.1216980389187054|-0.5220239162445068|-0.4978174865245819|-0.6850249171257019|-0.04958704113960266|-0.01089583337306976|0.1707785725593567|XArbitraryZVertical|-0.2101978976064439|0.007138462477098158|-0.9237293392161448|-0.320140871013918|-0.3929025530815125|-0.1213978603482246|-0.9115317463874817|0|0|0|-1|-1|3
2021-03-10 21:12:17.434 +0000|291097.652753|-0.4091949462890625|-0.0849609375|-0.8163604736328125|291097.63279|2.481549241161763|-0.4150500083101843|0.1166601473717812|-0.648830235004425|-0.5340749621391296|-0.7377972006797791|-0.04150646924972534|-0.03841996192932129|0.1477067470550537|XArbitraryZVertical|-0.2130749197196002|0.01268836170901035|-0.9202701272186613|-0.3279343057423471|-0.4004948735237122|-0.1163957118988037|-0.9088761806488037|0|0|0|-1|-1|3
2021-03-10 21:12:17.454 +0000|291097.672716|-0.458282470703125|-0.0130615234375|-0.86773681640625|291097.652753|2.462025121302147|-0.4245598722473982|0.1100907853316173|-0.7387086153030396|-0.6402720808982849|-0.7555034160614014|0.007646888494491577|0.0003256946802139282|0.101306140422821|XArbitraryZVertical|-0.2162673832426747|0.01940513378738146|-0.9164040117246586|-0.3362375309203452|-0.4094260632991791|-0.1098685339093208|-0.9057037234306335|0|0|0|-1|-1|3
2021-03-10 21:12:17.474 +0000|291097.692679|-0.4767303466796875|-0.0119476318359375|-0.89093017578125|291097.672716|2.442165678441797|-0.4356729319369608|0.1026004181688606|-0.7769804000854492|-0.6627700328826904|-0.7232393026351929|-0.029570072889328|0.08429306745529175|0.04564803838729858|XArbitraryZVertical|-0.2199232195872735|0.0269152693286677|-0.912264937485734|-0.3445025413012851|-0.4198012351989746|-0.1024205014109612|-0.9018186926841736|0|0|0|-1|-1|3
2021-03-10 21:12:17.494 +0000|291097.712642|-0.46978759765625|-0.0086517333984375|-0.9022216796875|291097.692679|2.422501461151287|-0.4469865757630654|0.09399992682504051|-0.8513665199279785|-0.6601978540420532|-0.6781197190284729|-0.04509148001670837|0.07805345952510834|0.008856713771820068|XArbitraryZVertical|-0.2233557307112741|0.03501209806310723|-0.9081044744476809|-0.3524665405889582|-0.4303418695926666|-0.09386155754327774|-0.8977727293968201|0|0|0|-1|-1|3
2021-03-10 21:12:17.514 +0000|291097.732605|-0.44927978515625|0.0184783935546875|-0.9227294921875|291097.712642|2.40287000413458|-0.4582293119356517|0.08382523488187389|-0.9064197540283203|-0.646812915802002|-0.6367913484573364|-0.03432062268257141|0.07521270215511322|-0.0011482834815979|XArbitraryZVertical|-0.2263438589967179|0.0438677731264843|-0.9039552887351919|-0.3601513918327554|-0.4408075213432312|-0.08372709900140762|-0.8936881422996521|0|0|0|-1|-1|3
2021-03-10 21:12:17.534 +0000|291097.752568|-0.4687347412109375|0.0352020263671875|-0.949615478515625|291097.732605|2.383835394971341|-0.4698070644836086|0.07323338185644698|-0.8938981294631958|-0.6682756543159485|-0.5863651037216187|0.005791634321212769|0.08760276436805725|-0.02847421169281006|XArbitraryZVertical|-0.2292664663907212|0.05295315069119245|-0.8998072791460786|-0.3673960761648064|-0.4515008330345154|-0.07316794246435165|-0.8892657160758972|0|0|0|-1|-1|3
2021-03-10 21:12:17.554 +0000|291097.772531|-0.4976348876953125|0.0417938232421875|-0.966888427734375|291097.752568|2.365875834979763|-0.4819933227046434|0.06278242927243763|-0.8603641390800476|-0.6751223802566528|-0.5375792980194092|0.0004596412181854248|0.08997815102338791|-0.0544089674949646|XArbitraryZVertical|-0.2323609387138371|0.06200729557545631|-0.8956923573938782|-0.3740304107075631|-0.4626330733299255|-0.06274119019508362|-0.8843269944190979|0|0|0|-1|-1|3
2021-03-10 21:12:17.574 +0000|291097.792495|-0.48681640625|0.03094482421875|-0.9744720458984375|291097.772531|2.34873558821243|-0.4941467746012545|0.05274586655956169|-0.8281880617141724|-0.6327397227287292|-0.505422055721283|-0.01964980363845825|0.09762804210186005|-0.08725082874298096|XArbitraryZVertical|-0.2353945309052453|0.0708149240141282|-0.891632116379762|-0.3802193976246767|-0.4736210703849792|-0.05272141098976135|-0.879149317741394|0|0|0|-1|-1|3
2021-03-10 21:12:17.594 +0000|291097.812458|-0.4911956787109375|0.0451202392578125|-0.964569091796875|291097.792495|2.332256842314634|-0.5055218176052798|0.04305416752109481|-0.8104475140571594|-0.5987054109573364|-0.4757151305675507|-0.004542231559753418|0.07455028593540192|-0.0961189866065979|XArbitraryZVertical|-0.2380323889138947|0.07927814308005098|-0.8876995833592805|-0.38606346272481|-0.4838152825832367|-0.04304086789488792|-0.8741111159324646|0|0|0|-1|-1|3
2021-03-10 21:12:17.614 +0000|291097.832421|-0.4803924560546875|0.024932861328125|-0.96453857421875|291097.812458|2.316552231082805|-0.5165071426593323|0.03412625873423881|-0.7343955636024475|-0.5530547499656677|-0.4548412561416626|0.004575282335281372|0.07997231185436249|-0.102102518081665|XArbitraryZVertical|-0.2405481002261089|0.08726423759034554|-0.8838567407315547|-0.3915595347985925|-0.493558406829834|-0.03411963582038879|-0.8690431118011475|0|0|0|-1|-1|3
2021-03-10 21:12:17.634 +0000|291097.852384|-0.491424560546875|0.022308349609375|-0.95867919921875|291097.832421|2.301916534811983|-0.5266820925079103|0.02645098719109651|-0.6678558588027954|-0.5150235891342163|-0.4384446740150452|0.02385431528091431|0.05664506182074547|-0.1017651557922363|XArbitraryZVertical|-0.2428855122178686|0.09443523877917483|-0.8801941908914219|-0.3966696043145347|-0.5024920105934143|-0.02644790336489677|-0.8641772270202637|0|0|0|-1|-1|3
2021-03-10 21:12:17.654 +0000|291097.872347|-0.5191650390625|0.0342559814453125|-0.9947357177734375|291097.852384|2.287964905620209|-0.5361067406412221|0.01977428830509354|-0.6156706809997559|-0.4587475657463074|-0.4290702939033508|0.0215877890586853|0.04090644046664238|-0.09967750310897827|XArbitraryZVertical|-0.2450294977841891|0.1009586823339551|-0.8766544592107753|-0.401553199797365|-0.5106929540634155|-0.01977299898862839|-0.8595357537269592|0|0|0|-1|-1|3
2021-03-10 21:12:17.674 +0000|291097.89231|-0.5248260498046875|0.0192413330078125|-1.021957397460938|291097.872347|2.274569251029826|-0.5443116069110649|0.0141656505833999|-0.5686714649200439|-0.3690483272075653|-0.4402078986167908|0.009598672389984131|0.04684952273964882|-0.1218357682228088|XArbitraryZVertical|-0.2468022664131773|0.1067219336854034|-0.8732729292853604|-0.4063170307143024|-0.5177773833274841|-0.01416517700999975|-0.8553981184959412|0|0|0|-1|-1|3
2021-03-10 21:12:17.724 +0000|291097.912273|-0.514739990234375|-0.0004119873046875|-0.957183837890625|291097.912273|2.249233576448952|-0.5580505677199358|0.004370496434470148|-0.4885820746421814|-0.3554040789604187|-0.3819231986999512|0.01137053966522217|0.01669959723949432|-0.1273965239524841|XArbitraryZVertical|-0.2493618036534452|0.1169539680897898|-0.8669511443151785|-0.4153748337175617|-0.5295284986495972|-0.004370482638478279|-0.8482809066772461|0|0|0|-1|-1|3
2021-03-10 21:12:17.726 +0000|291097.932236|-0.515716552734375|0.011505126953125|-0.914642333984375||||||||||||||||||||||||3
2021-03-10 21:12:17.734 +0000|291097.952199|-0.5274200439453125|0.0279083251953125|-0.9019012451171875|291097.932236|2.237975756693406|-0.5654715039094048|0.0006312880439416168|-0.4248403310775757|-0.3845391273498535|-0.3742372095584869|0.02467501163482666|0.002584435045719147|-0.07753914594650269|XArbitraryZVertical|-0.2511226403369897|0.1215297432237628|-0.863900274572339|-0.4193378279210807|-0.5358138680458069|-0.0006312879850156605|-0.8443358540534973|0|0|0|-1|-1|3
2021-03-10 21:12:17.754 +0000|291097.972162|-0.540924072265625|0.0102996826171875|-0.911956787109375|291097.952199|2.228014706110318|-0.5730183027926631|-0.001517430294717872|-0.2915504276752472|-0.3706150650978088|-0.3437559902667999|0.01281219720840454|0.0249871090054512|-0.06239676475524902|XArbitraryZVertical|-0.2533097618149913|0.1253014959564943|-0.8609833411959565|-0.4228963977611078|-0.5421700477600098|0.001517429715022445|-0.8402674198150635|0|0|0|-1|-1|3
2021-03-10 21:12:17.774 +0000|291097.992125|-0.5378570556640625|0.0084075927734375|-0.9102630615234375|291097.972162|2.220075394618923|-0.5801367756809915|-0.002058410422365634|-0.206403449177742|-0.3376900851726532|-0.2939861416816711|0.01183652877807617|0.01214753836393356|-0.07271748781204224|XArbitraryZVertical|-0.2557518860374922|0.1280547290163037|-0.8584267652641246|-0.4257892444472235|-0.5481371879577637|0.002058408921584487|-0.8363859057426453|0|0|0|-1|-1|3
2021-03-10 21:12:17.794 +0000|291098.012088|-0.5463409423828125|0.0306549072265625|-0.903839111328125|291097.992125|2.213300779012862|-0.5866002721274799|-0.002218524174049733|-0.1893090456724167|-0.3127092123031616|-0.2602176070213318|0.0142400860786438|0.005609259009361267|-0.07899415493011475|XArbitraryZVertical|-0.2580505168526259|0.1303735841717942|-0.8561602922974024|-0.4282550025598622|-0.5535314679145813|0.002218522364273667|-0.8328253030776978|0|0|0|-1|-1|3
2021-03-10 21:12:17.814 +0000|291098.032051|-0.5276336669921875|0.040283203125|-0.880126953125|291098.012088|2.207202051258754|-0.5923060670659415|-0.002359516471482193|-0.1575265377759933|-0.2519952058792114|-0.2370679974555969|0.01303189992904663|0.02362622320652008|-0.07658159732818604|XArbitraryZVertical|-0.2600591279533063|0.1324487297559133|-0.8541210586867855|-0.4304693821778904|-0.5582742094993591|0.00235951435752213|-0.8296531438827515|0|0|0|-1|-1|3
2021-03-10 21:12:17.834 +0000|291098.052014|-0.512908935546875|0.03497314453125|-0.853118896484375|291098.032051|2.201861526056577|-0.5967104283767926|-0.001949304178054935|-0.1064501106739044|-0.1943608820438385|-0.2303093373775482|0.02853715419769287|0.03769304603338242|-0.06110334396362305|XArbitraryZVertical|-0.2616711029175422|0.1339205816378559|-0.852367465753692|-0.4325081908138735|-0.5619233846664429|0.0019493029685691|-0.8271870017051697|0|0|0|-1|-1|3
2021-03-10 21:12:17.854 +0000|291098.071977|-0.5108184814453125|0.02685546875|-0.8435211181640625|291098.052014|2.197095062574018|-0.599565767998368|-0.000885502423425229|-0.07635127753019333|-0.1543502807617188|-0.2340788543224335|0.05122226476669312|0.0339961051940918|-0.0319787859916687|XArbitraryZVertical|-0.2627976202317364|0.1347115565900452|-0.850889151776123|-0.4344858635584569|-0.5642838478088379|0.0008855023188516498|-0.8255804181098938|0|0|0|-1|-1|3
2021-03-10 21:12:17.874 +0000|291098.091941|-0.5189208984375|0.0435638427734375|-0.854583740234375|291098.071977|2.19240470916544|-0.6009658667640243|0.0004226581208610628|-0.08124952018260956|-0.1181345954537392|-0.2378861159086227|0.05373585224151611|0.02912446111440659|-0.01914328336715698|XArbitraryZVertical|-0.2633613913365674|0.1350773037116052|-0.8495954970141684|-0.4365575282422567|-0.5654393434524536|-0.0004226581077091396|-0.824789822101593|0|0|0|-1|-1|3
2021-03-10 21:12:17.894 +0000|291098.111904|-0.5517425537109375|0.08709716796875|-0.892974853515625|291098.091941|2.187306425294632|-0.6018287351923589|0.00105564754191215|-0.1239979118108749|-0.09814166277647018|-0.2398732006549835|0.05009829998016357|0.03900428116321564|-0.02718502283096313|XArbitraryZVertical|-0.2635210457857156|0.1356689431650388|-0.8483231266946846|-0.4387464590895258|-0.5661505460739136|-0.001055647386237979|-0.8243011832237244|0|0|0|-1|-1|3
2021-03-10 21:12:17.914 +0000|291098.131867|-0.5785369873046875|0.09967041015625|-0.91070556640625|291098.111904|2.181981275228567|-0.602387818069785|0.0007816652271030827|-0.1361660212278366|-0.06443195044994354|-0.2270872592926025|0.02724373340606689|0.07588544487953186|-0.05885827541351318|XArbitraryZVertical|-0.2633353236350364|0.136609437312167|-0.8470971238688136|-0.4409294294872059|-0.5666114091873169|-0.000781665148679167|-0.8239847421646118|0|0|0|-1|-1|3
2021-03-10 21:12:17.934 +0000|291098.15183|-0.5873870849609375|0.1109466552734375|-0.91351318359375|291098.131867|2.176688775326578|-0.601841943981936|-0.0002665142206197572|-0.1884015053510666|-0.01428074203431606|-0.1946273297071457|-0.01350438594818115|0.09925133734941483|-0.09025663137435913|XArbitraryZVertical|-0.2625098016177927|0.1376282619012996|-0.8460712099720606|-0.4430693720678522|-0.5661616921424866|0.0002665142237674445|-0.8242941498756409|0|0|0|-1|-1|3
2021-03-10 21:12:17.954 +0000|291098.171793|-0.6159515380859375|0.117034912109375|-0.8704681396484375|291098.15183|2.171161743951275|-0.6009585311272562|-0.002236214593377902|-0.2581916451454163|-0.01529466081410646|-0.1674953103065491|-0.01060259342193604|0.09874647110700607|-0.08547109365463257|XArbitraryZVertical|-0.2613163492421535|0.1389884883689751|-0.8450946857817088|-0.4452087551278087|-0.5654318928718567|0.002236212836578488|-0.8247919082641602|0|0|0|-1|-1|3
2021-03-10 21:12:17.974 +0000|291098.191756|-0.569061279296875|0.06689453125|-0.7900390625|291098.171793|2.165700201126556|-0.5995835441548516|-0.005466397277985942|-0.2609734237194061|0.04201587289571762|-0.1311894208192825|-0.05936694145202637|0.1180230379104614|-0.0687592625617981|XArbitraryZVertical|-0.2596313868094388|0.1407564139036303|-0.844275965747894|-0.4471881219119062|-0.5642902851104736|0.005466369912028313|-0.8255583643913269|0|0|0|-1|-1|3
2021-03-10 21:12:17.993 +0000|291098.211719|-0.568267822265625|0.053375244140625|-0.7531585693359375|291098.191756|2.161024983124707|-0.5978000424401563|-0.009578606800110558|-0.2412189096212387|0.04842977598309517|-0.09045112133026123|-0.01328068971633911|0.06677654385566711|0.01911908388137817|XArbitraryZVertical|-0.257622347576398|0.1426947325361867|-0.8437377780009748|-0.4487487498111904|-0.5627995729446411|0.009578459896147251|-0.8265379071235657|0|0|0|-1|-1|3
2021-03-10 21:12:18.013 +0000|291098.231682|-0.5619354248046875|0.027008056640625|-0.76348876953125|291098.211719|2.157527577754806|-0.5961302861491027|-0.01418907952477309|-0.2000080049037933|0.07373470813035965|-0.03129930421710014|-0.01132023334503174|0.04596156626939774|0.06931346654891968|XArbitraryZVertical|-0.2556240015443141|0.144709348250429|-0.8434746628397611|-0.4497401117392132|-0.5613879561424255|0.01418860349804163|-0.8274311423301697|0|0|0|-1|-1|3
2021-03-10 21:12:18.033 +0000|291098.251645|-0.54510498046875|0.0313720703125|-0.7717437744140625|291098.231682|2.155231223546362|-0.5940402615865863|-0.01890797109801457|-0.1923234164714813|0.09615948051214218|0.01248599495738745|-0.003206789493560791|0.01309085637331009|0.06942844390869141|XArbitraryZVertical|-0.2535035232961796|0.1465161786853334|-0.8435346929381271|-0.4502424900156525|-0.5596136450767517|0.01890684477984905|-0.8285379409790039|0|0|0|-1|-1|3
2021-03-10 21:12:18.053 +0000|291098.271608|-0.5261993408203125|0.0315093994140625|-0.7666473388671875|291098.251645|2.153417752737722|-0.5923425921170236|-0.02439286142837981|-0.204427495598793|0.09569966048002243|0.03437220677733421|0.009006679058074951|0.005013272166252136|0.06203901767730713|XArbitraryZVertical|-0.2514033242947897|0.1486681817405995|-0.8436954210731115|-0.4504134671425348|-0.558139979839325|0.0243904422968626|-0.8293882608413696|0|0|0|-1|-1|3
2021-03-10 21:12:18.074 +0000|291098.291571|-0.5240325927734375|0.0254974365234375|-0.7639312744140625|291098.271608|2.151648562981578|-0.5915119507096332|-0.02990467502900276|-0.2024752199649811|0.06380905210971832|0.02813819237053394|0.02372175455093384|0.003974325954914093|0.0597078800201416|XArbitraryZVertical|-0.2496597448659924|0.1510175828589939|-0.8437509527194115|-0.4504976181916662|-0.5573674440383911|0.02990021742880344|-0.8297274112701416|0|0|0|-1|-1|3
2021-03-10 21:12:18.093 +0000|291098.311534|-0.51947021484375|0.02044677734375|-0.759307861328125|291098.291571|2.149792148320253|-0.5921077768882296|-0.03413201409736964|-0.1783291548490524|0.01692521944642067|0.008956508710980415|0.04219168424606323|-0.007254630327224731|0.06524479389190674|XArbitraryZVertical|-0.248800147727222|0.15315694530157|-0.8435229855619821|-0.4506778278737424|-0.5577861666679382|0.03412538766860962|-0.8292828798294067|0|0|0|-1|-1|3
2021-03-10 21:12:18.113 +0000|291098.331497|-0.5200042724609375|0.0135040283203125|-0.7595367431640625|291098.311534|2.148087541158998|-0.5929490750772189|-0.03706839095494632|-0.1437462717294693|-0.005072435829788446|-0.002465256955474615|0.03262263536453247|-0.01353082060813904|0.06922042369842529|XArbitraryZVertical|-0.2483483740047604|0.1547894014060287|-0.8432163220459472|-0.4509431517658786|-0.55842524766922|0.03705990314483643|-0.8287266492843628|0|0|0|-1|-1|3
2021-03-10 21:12:18.133 +0000|291098.35146|-0.5353546142578125|0.0321197509765625|-0.780120849609375|291098.331497|2.146425477767757|-0.5942211869934394|-0.03895582904040559|-0.116979107260704|-0.04292293265461922|-0.01962009817361832|0.04146403074264526|-0.02806643396615982|0.07260030508041382|XArbitraryZVertical|-0.2483204641551896|0.1560732695637786|-0.8427999929064625|-0.4512941067563965|-0.5594388842582703|0.03894597664475441|-0.8279561400413513|0|0|0|-1|-1|3
2021-03-10 21:12:18.153 +0000|291098.371424|-0.551116943359375|0.040374755859375|-0.8035125732421875|291098.35146|2.144724214225559|-0.5955986568265477|-0.04037341107347753|-0.08746300637722015|-0.08235934376716614|-0.041745375841856|0.0316472053527832|-0.01359851285815239|0.05295306444168091|XArbitraryZVertical|-0.248440299572043|0.1571887779026339|-0.8423322192943934|-0.4517139548011919|-0.5605472922325134|0.04036244377493858|-0.8271381855010986|0|0|0|-1|-1|3
2021-03-10 21:12:18.173 +0000|291098.391387|-0.55950927734375|0.0424346923828125|-0.8166961669921875|291098.371424|2.143010382095822|-0.5975523847698025|-0.0411811757490676|-0.07664342969655991|-0.1028051748871803|-0.0554594099521637|0.01413953304290771|0.0001970678567886353|0.02491259574890137|XArbitraryZVertical|-0.2489409276327458|0.1581811496423733|-0.8417519168010889|-0.4521736080458623|-0.5621436834335327|0.04116953536868095|-0.8260142803192139|0|0|0|-1|-1|3
2021-03-10 21:12:18.209 +0000|291098.41135|-0.58209228515625|0.059295654296875|-0.8292083740234375|291098.391387|2.141107204757161|-0.6000544711706397|-0.04161775732451452|-0.08264102041721344|-0.1339091807603836|-0.06692733615636826|0.009694099426269531|-0.003199346363544464|0.01137304306030273|XArbitraryZVertical|-0.2497414678911065|0.1591668365948877|-0.8410364685075553|-0.4527171353882122|-0.5641984939575195|0.04160574451088905|-0.8245902061462402|0|0|0|-1|-1|3
2021-03-10 21:12:18.225 +0000|291098.431313|-0.5830078125|0.051300048828125|-0.82098388671875|291098.41135|2.139027800672552|-0.6028407794086863|-0.04171213478778728|-0.08552628755569458|-0.1422910690307617|-0.06711012125015259|-0.01180124282836914|0.01431500166654587|-0.00575411319732666|XArbitraryZVertical|-0.2507247469146002|0.1600975407727994|-0.8402226981124926|-0.4533559972344977|-0.5664916038513184|0.04170003905892372|-0.8230117559432983|0|0|0|-1|-1|3
2021-03-10 21:12:18.233 +0000|291098.451276|-0.583526611328125|0.052398681640625|-0.81622314453125|291098.431313|2.136985065686032|-0.6055415438819217|-0.04219953916148663|-0.1075409725308418|-0.1338468194007874|-0.0485648438334465|-0.01549732685089111|0.01558278501033783|-0.001642882823944092|XArbitraryZVertical|-0.2515815547597164|0.1611698614375177|-0.8394508080863529|-0.4539309839671491|-0.5687006711959839|0.04218701645731926|-0.8214619755744934|0|0|0|-1|-1|3
2021-03-10 21:12:18.253 +0000|291098.471239|-0.5902252197265625|0.049163818359375|-0.818359375|291098.471239|2.133123935042526|-0.6102822850783222|-0.04582361162537331|-0.1654133647680283|-0.1079802289605141|0.002676774514839053|-0.01911652088165283|0.003981880843639374|6.830692291259766e-05|XArbitraryZVertical|-0.2524116353985928|0.1642417030447832|-0.8382046244769064|-0.4546714598540565|-0.5724972486495972|0.04580757766962051|-0.8186260461807251|0|0|0|-1|-1|3
2021-03-10 21:12:18.273 +0000|291098.491202|-0.59075927734375|0.066986083984375|-0.821929931640625||||||||||||||||||||||||3
2021-03-10 21:12:18.293 +0000|291098.511165|-0.58148193359375|0.0723114013671875|-0.8060760498046875|291098.491202|2.131415947309539|-0.6123595821022081|-0.04886550359294278|-0.173043966293335|-0.09279339015483856|0.02509801462292671|-0.01339542865753174|0.0140964686870575|-0.00604701042175293|XArbitraryZVertical|-0.2524303258266257|0.1661936134935324|-0.8377452588389162|-0.4547982972865923|-0.5741137862205505|0.0488460585474968|-0.8173172473907471|0|0|0|-1|-1|3
2021-03-10 21:12:18.313 +0000|291098.531128|-0.57916259765625|0.0550994873046875|-0.793060302734375|291098.511165|2.130022981575425|-0.6141393580393776|-0.05194324516059706|-0.1427812725305557|-0.07254649698734283|0.02396998926997185|-0.009757399559020996|0.01895721256732941|0.00296550989151001|XArbitraryZVertical|-0.2523388671837186|0.1680517060444268|-0.8373964499303782|-0.4548088773655163|-0.5754781365394592|0.05191988870501518|-0.816167414188385|0|0|0|-1|-1|3
2021-03-10 21:12:18.333 +0000|291098.551091|-0.5975799560546875|0.0577392578125|-0.79730224609375|291098.531128|2.128850508874063|-0.615597250886654|-0.0541722423471216|-0.1195060014724731|-0.06042565405368805|0.01270117983222008|-0.001525819301605225|0.001854028552770615|0.0224759578704834|XArbitraryZVertical|-0.2523277216720897|0.1694556057029938|-0.8370845758023224|-0.4548679705302423|-0.57659912109375|0.05414574965834618|-0.8152310252189636|0|0|0|-1|-1|3
2021-03-10 21:12:18.353 +0000|291098.571054|-0.5812530517578125|0.03924560546875|-0.7891998291015625|291098.571054|2.126253658022295|-0.6171000522032669|-0.05841447943777208|-0.1638302654027939|-0.005630421452224255|0.004765314050018787|-0.006146252155303955|-0.01342885196208954|0.02191734313964844|XArbitraryZVertical|-0.2517380179170559|0.1718822049946084|-0.836566929967393|-0.4552365087779489|-0.577685534954071|0.05838126316666603|-0.8141689300537109|0|0|0|-1|-1|3
2021-03-10 21:12:18.372 +0000|291098.591017125|-0.569122314453125|0.03424072265625|-0.779144287109375||||||||||||||||||||||||3
2021-03-10 21:12:18.392 +0000|291098.610980125|-0.5582733154296875|0.039947509765625|-0.752471923828125|291098.591017125|2.123833832059987|-0.6176294332801167|-0.06183084176646266|-0.2380289733409882|-0.01982464455068111|-0.0158354789018631|0.006937384605407715|-0.02968693524599075|0.02974486351013184|XArbitraryZVertical|-0.2509450332128142|0.1737203437815111|-0.8361590056671585|-0.4557257115502571|-0.5779975652694702|0.06179145351052284|-0.8136956691741943|0|0|0|-1|-1|3
2021-03-10 21:12:18.413 +0000|291098.630943125|-0.552093505859375|0.057281494140625|-0.731353759765625|291098.610980125|2.120310493753779|-0.6184542163304723|-0.0658501810477969|-0.288493424654007|-0.02364335209131241|-0.04083768278360367|0.01508903503417969|-0.02577877789735794|0.05469369888305664|XArbitraryZVertical|-0.2500309157224356|0.1760104331523123|-0.8354968857646459|-0.4565630132808939|-0.5785198211669922|0.06580260396003723|-0.8130097389221191|0|0|0|-1|-1|3
2021-03-10 21:12:18.433 +0000|291098.650907125|-0.56414794921875|0.0704193115234375|-0.7293243408203125|291098.630943125|2.115884927525948|-0.6198125135001646|-0.06974887386576652|-0.2909975647926331|-0.04426250234246254|-0.08161679655313492|0.02847534418106079|-0.01639335602521896|0.07799941301345825|XArbitraryZVertical|-0.2492795788844633|0.1784813784602193|-0.8345515105553299|-0.4577420160385402|-0.579470157623291|0.06969233602285385|-0.8120082020759583|0|0|0|-1|-1|3
2021-03-10 21:12:18.453 +0000|291098.670870125|-0.564422607421875|0.06292724609375|-0.7529449462890625|291098.650907125|2.110905609822613|-0.6212354057951175|-0.07283886334193587|-0.2904472053050995|-0.0260789729654789|-0.1113894283771515|0.01869881153106689|-0.003728434443473816|0.08564680814743042|XArbitraryZVertical|-0.24868813154432|0.180699433645875|-0.8334190369887355|-0.4592543718676046|-0.5804968476295471|0.07277446985244751|-0.8110038638114929|0|0|0|-1|-1|3
2021-03-10 21:12:18.473 +0000|291098.690833125|-0.56756591796875|0.0575103759765625|-0.7602996826171875|291098.670870125|2.105328127593705|-0.6221389399299805|-0.07568249117557549|-0.327472448348999|-0.02550511248409748|-0.1263623386621475|0.01151114702224731|-0.01220997422933578|0.06486994028091431|XArbitraryZVertical|-0.2478751856726745|0.1827678693806475|-0.8321946087032777|-0.4610921583930407|-0.581106424331665|0.07561026513576508|-0.8103076219558716|0|0|0|-1|-1|3
2021-03-10 21:12:18.493 +0000|291098.710796125|-0.54791259765625|0.03668212890625|-0.7356109619140625|291098.690833125|2.098927884735447|-0.6234448327151493|-0.07899115846241674|-0.3860435485839844|-0.03435809910297394|-0.1454813629388809|0.01783645153045654|-0.0156002938747406|0.04717922210693359|XArbitraryZVertical|-0.2470307547668845|0.1852175709883349|-0.830752890173839|-0.4631630311139834|-0.5820149183273315|0.07890903949737549|-0.8093405365943909|0|0|0|-1|-1|3
2021-03-10 21:12:18.512 +0000|291098.730759125|-0.541107177734375|0.0361175537109375|-0.6960906982421875|291098.710796125|2.091200868214397|-0.6251884619729051|-0.08362891966120538|-0.4828057885169983|-0.055571299046278|-0.1808034926652908|0.02804422378540039|-0.0412035658955574|0.06508386135101318|XArbitraryZVertical|-0.2459054463028567|0.1884701256589288|-0.829021883495248|-0.465545288677109|-0.5832047462463379|0.08353147655725479|-0.8080190420150757|0|0|0|-1|-1|3
2021-03-10 21:12:18.532 +0000|291098.750722125|-0.5194854736328125|0.01214599609375|-0.651580810546875|291098.730759125|2.081618362203709|-0.6276446376987738|-0.08966481660218094|-0.5809311866760254|-0.07970603555440903|-0.2271431982517242|0.04175955057144165|-0.05078736692667007|0.1022734045982361|XArbitraryZVertical|-0.2445302346145667|0.1926766390019597|-0.8268435464247762|-0.4684127384859935|-0.5848808884620667|0.08954472094774246|-0.8061613440513611|0|0|0|-1|-1|3
2021-03-10 21:12:18.552 +0000|291098.770685125|-0.4849090576171875|0.0434722900390625|-0.6349334716796875|291098.750722125|2.069928976380829|-0.630270403363501|-0.09695941590860126|-0.7009317874908447|-0.07579448819160461|-0.2894306182861328|0.06117391586303711|-0.07826810330152512|0.140316367149353|XArbitraryZVertical|-0.2426677917165486|0.1976751880132203|-0.8242089279265471|-0.471928602420626|-0.5865950584411621|0.0968075692653656|-0.8040737509727478|0|0|0|-1|-1|3
2021-03-10 21:12:18.572 +0000|291098.790648125|-0.509002685546875|0.050994873046875|-0.616455078125|291098.770685125|2.056170882182815|-0.633868344128552|-0.1044096103885198|-0.7120075821876526|-0.151301234960556|-0.373814195394516|0.1003017425537109|-0.07823427021503448|0.1625301241874695|XArbitraryZVertical|-0.2409029654465119|0.2031956234744226|-0.8209538897892324|-0.4761428777231553|-0.5890407562255859|0.1042200103402138|-0.8013545870780945|0|0|0|-1|-1|3
2021-03-10 21:12:18.592 +0000|291098.810611125|-0.507110595703125|0.0949554443359375|-0.659576416015625|291098.790648125|2.041283072776919|-0.6387731004105407|-0.1110241798731813|-0.7084062099456787|-0.1767419874668121|-0.4212782084941864|0.08602464199066162|-0.05339264124631882|0.1779356002807617|XArbitraryZVertical|-0.239700585985528|0.2088088478363234|-0.8171953730291579|-0.4807643976698601|-0.5925401449203491|0.1107962355017662|-0.797885000705719|0|0|0|-1|-1|3
2021-03-10 21:12:18.612 +0000|291098.830574125|-0.55047607421875|0.10614013671875|-0.66876220703125|291098.810611125|2.025288186301051|-0.6453641162431984|-0.1169622193203499|-0.7473146319389343|-0.2996473908424377|-0.494615375995636|0.1006146669387817|-0.04537610709667206|0.1393393874168396|XArbitraryZVertical|-0.2391676606236467|0.2146800048370796|-0.8128973364739435|-0.4857050551278765|-0.5973798632621765|0.1166957244277|-0.7934226393699646|0|0|0|-1|-1|3
2021-03-10 21:12:18.632 +0000|291098.850537125|-0.5402984619140625|0.1471405029296875|-0.69140625|291098.830574125|2.007624059069443|-0.6536275060518638|-0.1229753307937511|-0.7682936787605286|-0.3208780586719513|-0.5421943664550781|0.04938572645187378|-0.01399248838424683|0.1257175207138062|XArbitraryZVertical|-0.239025676706009|0.2211849308457586|-0.8079621718966939|-0.4910612749082535|-0.6034781336784363|0.1226656064391136|-0.7878879308700562|0|0|0|-1|-1|3
2021-03-10 21:12:18.652 +0000|291098.870500125|-0.5479583740234375|0.1229400634765625|-0.69134521484375|291098.850537125|1.989107020054281|-0.6634622300007822|-0.1279696447321427|-0.7695344686508179|-0.4194206595420837|-0.6002556681632996|0.08140891790390015|0.008991315960884094|0.09003144502639771|XArbitraryZVertical|-0.2395885957068196|0.227785203882645|-0.8025242501150091|-0.4966547870816455|-0.6108125448226929|0.1276206523180008|-0.7814224362373352|0|0|0|-1|-1|3
2021-03-10 21:12:18.672 +0000|291098.890463125|-0.58612060546875|0.1460723876953125|-0.7226409912109375|291098.870500125|1.970690861920311|-0.6745927685306097|-0.1319658434672912|-0.645902693271637|-0.4859638512134552|-0.592649519443512|0.06256914138793945|0.001381963491439819|0.09199637174606323|XArbitraryZVertical|-0.2408424086167833|0.2343275801944098|-0.7968456735193842|-0.5021181526338868|-0.6191487312316895|0.1315831393003464|-0.7741710543632507|0|0|0|-1|-1|3
2021-03-10 21:12:18.720 +0000|291098.910426125|-0.6142425537109375|0.1357879638671875|-0.7252044677734375|291098.910426125|1.936977632193981|-0.7033087169279816|-0.1365534012359766|-0.6040152907371521|-0.6582215428352356|-0.5322062373161316|0.0127335786819458|-0.003911957144737244|0.04015243053436279|XArbitraryZVertical|-0.246890619207719|0.2474707372420133|-0.7851145014754868|-0.5112715794046773|-0.6407243013381958|0.1361294090747833|-0.7556065320968628|0|0|0|-1|-1|3
2021-03-10 21:12:18.722 +0000|291098.930390125|-0.616912841796875|0.1889801025390625|-0.716461181640625|291098.930390125|1.920798714098742|-0.7195877414995137|-0.1396291785309823|-0.6437259912490845|-0.7220337390899658|-0.479954868555069|0.04590988159179688|0.05288650095462799|0.0208505392074585|XArbitraryZVertical|-0.2503753940177361|0.2548198391700991|-0.7791620891906955|-0.515058609920046|-0.6526603102684021|0.1391759067773819|-0.7447580099105835|0|0|0|-1|-1|3
2021-03-10 21:12:18.732 +0000|291098.950353125|-0.597686767578125|0.103607177734375|-0.652587890625||||||||||||||||||||||||3
2021-03-10 21:12:18.752 +0000|291098.970316125|-0.5608673095703125|0.076080322265625|-0.5875244140625|291098.950353125|1.905359773989992|-0.7362842645667683|-0.143107705451936|-0.6556733846664429|-0.7484147548675537|-0.4289823174476624|0.05455183982849121|-0.01320992410182953|0.06255704164505005|XArbitraryZVertical|-0.2538893178831592|0.262379485400546|-0.7733306931774452|-0.5183213010608229|-0.6646745800971985|0.1426197290420532|-0.7333944439888|0|0|0|-1|-1|3
2021-03-10 21:12:18.772 +0000|291098.990279125|-0.58935546875|0.205902099609375|-0.6485137939453125|291098.970316125|1.889465987907888|-0.7543966451456557|-0.1482008540005111|-0.7740339040756226|-0.8534002900123596|-0.3842918872833252|0.1121565103530884|-0.06988485157489777|0.125604510307312|XArbitraryZVertical|-0.2573127790644775|0.2710008734453356|-0.7672840050558439|-0.5211756758305792|-0.6773420572280884|0.1476589441299438|-0.7206973433494568|0|0|0|-1|-1|3
2021-03-10 21:12:18.792 +0000|291099.010242125|-0.697967529296875|0.1908111572265625|-0.629241943359375|291098.990279125|1.873219335841571|-0.7764533870009099|-0.1537335273564215|-0.7372847199440002|-1.082906126976013|-0.4105123281478882|0.1315150856971741|0.01024720072746277|0.06497502326965332|XArbitraryZVertical|-0.2619257445709172|0.2808916119368956|-0.7606284678927233|-0.5233919007673835|-0.6924891471862793|0.1531286835670471|-0.7049896121025085|0|0|0|-1|-1|3
2021-03-10 21:12:18.812 +0000|291099.030205125|-0.65234375|0.1496429443359375|-0.5968475341796875|291099.010242125|1.857446220023565|-0.7996087930319031|-0.1571743600048965|-0.6315898895263672|-0.9595355987548828|-0.4344986081123352|0.01633459329605103|0.05231906473636627|0.05222642421722412|XArbitraryZVertical|-0.2674551986531775|0.2902925642779125|-0.7537209840258253|-0.525454675041237|-0.7082443833351135|0.1565280258655548|-0.6883959174156189|0|0|0|-1|-1|3
2021-03-10 21:12:18.832 +0000|291099.050168125|-0.63494873046875|0.1295166015625|-0.5407562255859375|291099.030205125|1.84198733397943|-0.820294101510803|-0.1593777192736877|-0.6601384878158569|-0.8875592350959778|-0.4723935127258301|0.06186026334762573|-0.0005006939172744751|0.0642317533493042|XArbitraryZVertical|-0.2723053325847418|0.2986109883165102|-0.7470554500288085|-0.5278157546454147|-0.7220775485038757|0.1587038487195969|-0.6733625531196594|0|0|0|-1|-1|3
2021-03-10 21:12:18.851 +0000|291099.070131125|-0.64166259765625|0.1287994384765625|-0.4897918701171875|291099.050168125|1.824227710492171|-0.8410759613432959|-0.1622902449918312|-0.8319588899612427|-0.9175079464912415|-0.4968604147434235|0.09631496667861938|-0.02771337330341339|0.1068758368492126|XArbitraryZVertical|-0.2764930977131448|0.3075727059364126|-0.7397755595644929|-0.5307379543277408|-0.7355666756629944|0.1615787744522095|-0.6579011678695679|0|0|0|-1|-1|3
2021-03-10 21:12:18.871 +0000|291099.090094125|-0.665985107421875|0.2183074951171875|-0.5371246337890625|291099.070131125|1.802725439597657|-0.8630349532815204|-0.1669410334564713|-1.113293170928955|-0.9424838423728943|-0.5363301634788513|0.105823278427124|-0.03535304963588715|0.1452159881591797|XArbitraryZVertical|-0.2798440521134468|0.3180240002830669|-0.7314487383858153|-0.5343508534657349|-0.7492559552192688|0.1661666929721832|-0.6410960555076599|0|0|0|-1|-1|3
2021-03-10 21:12:18.891 +0000|291099.110057125|-0.743438720703125|0.2440032958984375|-0.5658416748046875|291099.090094125|1.77603361214096|-0.8871336832493458|-0.1752825745325697|-1.47126293182373|-0.9950982928276062|-0.5004558563232422|0.1176943778991699|0.02548854053020477|0.09348553419113159|XArbitraryZVertical|-0.2817946145615224|0.3310779074643744|-0.7217549243071537|-0.5385621568310097|-0.7633853554725647|0.1743863821029663|-0.6219584345817566|0|0|0|-1|-1|3
2021-03-10 21:12:18.911 +0000|291099.130020125|-0.8068695068359375|0.37078857421875|-0.5712890625|291099.110057125|1.745290344054506|-0.91217578842362|-0.187072356257208|-1.619040012359619|-0.9435965418815613|-0.4595650732517242|0.04211515188217163|0.03053911030292511|0.03948938846588135|XArbitraryZVertical|-0.2820149183422772|0.3461117590760137|-0.7111666741276259|-0.5430619908194325|-0.7770395278930664|0.1859831362962723|-0.6013484597206116|0|0|0|-1|-1|3
2021-03-10 21:12:18.931 +0000|291099.149983125|-0.7993011474609375|0.3438720703125|-0.5342864990234375|291099.130020125|1.713989581746174|-0.9354520497942349|-0.1985718565940672|-1.47779381275177|-0.7699017524719238|-0.4744589030742645|0.001529872417449951|0.1475639641284943|-0.004678666591644287|XArbitraryZVertical|-0.2811885152986349|0.3606058536618913|-0.7006305096176324|-0.5477348046546182|-0.7890512347221375|0.1972694545984268|-0.5817928910255432|0|0|0|-1|-1|3
2021-03-10 21:12:18.951 +0000|291099.169946125|-0.69439697265625|0.2373809814453125|-0.5417022705078125|291099.149983125|1.687184196331824|-0.9530983606447887|-0.2061654703949089|-1.103434920310974|-0.4370107352733612|-0.4479209184646606|-0.013222336769104|0.1637306362390518|0.0232093334197998|XArbitraryZVertical|-0.2800731965239311|0.3716334370521743|-0.6916589106791783|-0.5523182374157611|-0.7979500889778137|0.2047080844640732|-0.5668951869010925|0|0|0|-1|-1|3
2021-03-10 21:12:18.971 +0000|291099.189909125|-0.676361083984375|0.228363037109375|-0.4289398193359375|291099.169946125|1.665416063556597|-0.9656811134120818|-0.2118866791210395|-1.079066157341003|-0.4479810297489166|-0.2955946028232574|0.08028864860534668|0.04334214329719543|0.02314537763595581|XArbitraryZVertical|-0.2785216987489911|0.3799450355607106|-0.6845498574365707|-0.5562903770154998|-0.8040435314178467|0.2103047519922256|-0.5561348795890808|0|0|0|-1|-1|3
2021-03-10 21:12:18.991 +0000|291099.209873125|-0.7132720947265625|0.32073974609375|-0.4648895263671875|291099.189909125|1.640211896674252|-0.9815540469471844|-0.2228172724878394|-1.633751034736633|-0.5653021335601807|-0.1905795931816101|0.1390568017959595|0.001556098461151123|0.0830848217010498|XArbitraryZVertical|-0.2756068213127614|0.3912089448869415|-0.6766560931084902|-0.5595828662201967|-0.8108097314834595|0.2209781259298325|-0.5419929027557373|0|0|0|-1|-1|3
2021-03-10 21:12:19.011 +0000|291099.229836125|-0.8430023193359375|0.5042724609375|-0.5590057373046875|291099.209873125|1.608265641950349|-1.000839311249912|-0.2390741201789746|-1.807799696922302|-0.6351401805877686|-0.1721608936786652|0.1261748671531677|0.03899945318698883|0.06395190954208374|XArbitraryZVertical|-0.2705100142651504|0.4058325941569708|-0.6670995973018288|-0.5631184092317817|-0.8179778456687927|0.2368031889200211|-0.524248480796814|0|0|0|-1|-1|3
2021-03-10 21:12:19.031 +0000|291099.249799125|-0.8528594970703125|0.460418701171875|-0.55810546875|291099.229836125|1.576567869121346|-1.022342933074663|-0.2544734312265636|-1.523726105690002|-0.6846548318862915|-0.176569327712059|0.0241696834564209|0.2348364591598511|-0.03085291385650635|XArbitraryZVertical|-0.2660770024036456|0.4206115035037196|-0.6572639131530305|-0.5659446143162012|-0.8258512616157532|0.2517358362674713|-0.5045779943466187|0|0|0|-1|-1|3
2021-03-10 21:12:19.051 +0000|291099.269762125|-0.860595703125|0.474822998046875|-0.570709228515625|291099.249799125|1.551665059259589|-1.042925002827775|-0.2651334359735513|-1.165601491928101|-0.748253345489502|-0.1231988668441772|-0.03791743516921997|0.1975414752960205|-0.07651156187057495|XArbitraryZVertical|-0.2639841507961428|0.4327409819705911|-0.6489079622405167|-0.5674206061208615|-0.833695113658905|0.2620380520820618|-0.4860952198505402|0|0|0|-1|-1|3
2021-03-10 21:12:19.071 +0000|291099.289725125|-0.9704742431640625|0.4033660888671875|-0.6103363037109375|291099.269762125|1.529735270455244|-1.064821002898594|-0.2739567821821566|-1.050872206687927|-0.8765192627906799|-0.2106753587722778|-0.004337489604949951|0.184291273355484|-0.09148812294006348|XArbitraryZVertical|-0.2633176000385257|0.4442639160151903|-0.6410183225119466|-0.5677931328717477|-0.8420827984809875|0.2705427706241608|-0.4665868282318115|0|0|0|-1|-1|3
2021-03-10 21:12:19.091 +0000|291099.309688125|-1.035446166992188|0.32086181640625|-0.486846923828125|291099.289725125|1.511027655784966|-1.08537862654962|-0.2765031113293644|-0.5771436095237732|-0.6783666610717773|-0.3859264552593231|-0.1076884269714355|0.1487749814987183|-0.1550417542457581|XArbitraryZVertical|-0.2648228394680709|0.4532561928168434|-0.6333535862025773|-0.5685869260980659|-0.8508840799331665|0.272993266582489|-0.4488553702831268|0|0|0|-1|-1|3
2021-03-10 21:12:19.111 +0000|291099.329651125|-1.1624755859375|0.1909942626953125|-0.57354736328125|291099.309688125|1.499736763038873|-1.099816475722722|-0.2720572957503757|-0.2844182848930359|-0.443743497133255|-0.5069851875305176|-0.1436807513237|0.1041959524154663|-0.1792624890804291|XArbitraryZVertical|-0.2682839473656742|0.4576991417039853|-0.6275583778205733|-0.5698295261485474|-0.8583486676216125|0.2687136232852936|-0.4370704293251038|0|0|0|-1|-1|3
2021-03-10 21:12:19.131 +0000|291099.349614125|-1.141845703125|0.213531494140625|-0.7073516845703125|291099.349614125|1.481751289684715|-1.097152158129635|-0.2581470246546942|-0.4094855487346649|0.5106768012046814|-0.4419261515140533|-0.2636599540710449|-0.1043342053890228|-0.2723301649093628|XArbitraryZVertical|-0.2679918938758877|0.4557095930191843|-0.6206367344209892|-0.5790675383020221|-0.8604245185852051|0.2552894055843353|-0.4410182237625122|0|0|0|-1|-1|3
2021-03-10 21:12:19.151 +0000|291099.369577125|-1.267745971679688|0.3374176025390625|-0.8331298828125||||||||||||||||||||||||3
2021-03-10 21:12:19.171 +0000|291099.389540125|-1.34222412109375|0.1595306396484375|-0.73699951171875|291099.369577125|1.466474295085034|-1.089607767159899|-0.2547790380716191|-0.7286249399185181|0.6059839725494385|-0.4994025826454163|-0.3978461027145386|0.08096104860305786|-0.3864580988883972|XArbitraryZVertical|-0.2633128309761691|0.4546648554134625|-0.6166689903082839|-0.5862301653854121|-0.8578302264213562|0.2520315945148468|-0.4478924572467804|0|0|0|-1|-1|3
2021-03-10 21:12:19.203 +0000|291099.409503125|-1.185226440429688|0.3440399169921875|-0.6389617919921875|291099.389540125|1.44770799297876|-1.079987427562598|-0.252224123142644|-0.9570361971855164|0.8254745006561279|-0.567732036113739|-0.4575682282447815|0.04531778395175934|-0.2726845443248749|XArbitraryZVertical|-0.2569618511199107|0.4536050291618452|-0.6119837302653963|-0.5947175975660673|-0.8540467023849487|0.2495583295822144|-0.4564261734485626|0|0|0|-1|-1|3
2021-03-10 21:12:19.215 +0000|291099.429466125|-1.30657958984375|0.322845458984375|-0.857269287109375|291099.409503125|1.421115538065271|-1.077147304333449|-0.2581325768987677|-1.69515335559845|0.2090818732976913|0.03302677720785141|-0.3149482011795044|-0.1540486216545105|-0.2353382110595703|XArbitraryZVertical|-0.2480176663913458|0.457619527521206|-0.6053068053213406|-0.602225210693272|-0.8514335751533508|0.2552754580974579|-0.4581432044506073|0|0|0|-1|-1|3
2021-03-10 21:12:19.231 +0000|291099.449430125|-1.02886962890625|0.402587890625|-0.3684234619140625|291099.429466125|1.39766453938257|-1.078208929333619|-0.2712457935182513|-0.6395947337150574|0.1424306780099869|-0.01405968330800533|-0.4948683977127075|0.1368685662746429|-0.3524123430252075|XArbitraryZVertical|-0.2383965616217676|0.4640675503342465|-0.6001518485440577|-0.6063218896026215|-0.8488969206809998|0.2679318785667419|-0.4556167721748352|0|0|0|-1|-1|3
2021-03-10 21:12:19.251 +0000|291099.469393125|-1.08197021484375|0.490692138671875|-0.281646728515625|291099.449430125|1.396000493957885|-1.080644222360749|-0.2822211143518548|-0.1013780534267426|-0.1216988638043404|0.6939787864685059|-0.2302478551864624|-0.001435667276382446|0.03615134954452515|XArbitraryZVertical|-0.2349192212208186|0.467701510239962|-0.6010818174718252|-0.6039611552159461|-0.8473584055900574|0.2784895896911621|-0.4521365165710449|0|0|0|-1|-1|3
2021-03-10 21:12:19.272 +0000|291099.489356125|-1.06640625|0.0595245361328125|-0.279998779296875|291099.469393125|1.401428501584597|-1.07786578465339|-0.294273769354614|-0.04857346415519714|0.2136715203523636|0.6726918816566467|-0.2772960662841797|0.2536562979221344|0.1282827854156494|XArbitraryZVertical|-0.2311513081462187|0.4691856825242748|-0.6049069107517593|-0.6004344325755004|-0.8430805206298828|0.290044903755188|-0.4528677463531494|0|0|0|-1|-1|3
2021-03-10 21:12:19.292 +0000|291099.509319125|-0.9207611083984375|-0.383087158203125|-0.3690185546875|291099.489356125|1.399761238173268|-1.071139479150414|-0.3050506725219126|-1.10646116733551|0.574495255947113|0.02806797251105309|-0.1676598191261292|-0.01271331310272217|0.2813754379749298|XArbitraryZVertical|-0.2249567965210709|0.4699919367142773|-0.6068131496085086|-0.6002331788556963|-0.8372229933738708|0.3003415167331696|-0.45700404047966|0|0|0|-1|-1|3
2021-03-10 21:12:19.311 +0000|291099.529282125|-1.293930053710938|0.236358642578125|-0.2514495849609375|291099.529282125|1.345208296303128|-1.066340686310191|-0.320389493361427|-0.584337055683136|1.254742026329041|-0.6590036749839783|-0.4139991402626038|0.03702300786972046|0.2037613093852997|XArbitraryZVertical|-0.2051567288761854|0.4780616272143794|-0.5930954106815348|-0.6144961902757902|-0.830889105796814|0.3149362504482269|-0.4587355852127075|0|0|0|-1|-1|3
2021-03-10 21:12:19.330 +0000|291099.549245125|-1.08917236328125|0.01898193359375|-0.7369232177734375||||||||||||||||||||||||3
2021-03-10 21:12:19.350 +0000|291099.569208125|-1.216781616210938|0.105377197265625|-0.6545257568359375|291099.549245125|1.318669223401676|-1.047886043755778|-0.3188271680073774|-1.830779075622559|1.141318678855896|-0.7410933971405029|-0.2881779670715332|-0.3831703960895538|-0.1260451674461365|XArbitraryZVertical|-0.1939556644016809|0.474619223902614|-0.5864597471933397|-0.6270430152698049|-0.8227077126502991|0.3134530484676361|-0.4742355942726135|0|0|0|-1|-1|3
2021-03-10 21:12:19.370 +0000|291099.589171125|-0.9773712158203125|0.998382568359375|-0.4569854736328125|291099.569208125|1.270921428378112|-1.041020402092985|-0.3276893568026288|-2.386357069015503|1.176466107368469|-0.6847389936447144|-0.3610059022903442|-0.07876843214035034|-0.172642320394516|XArbitraryZVertical|-0.1773441768247285|0.4788778380343468|-0.5733306630819732|-0.6407159848986415|-0.817003071308136|0.3218562006950378|-0.4784501194953918|0|0|0|-1|-1|3
2021-03-10 21:12:19.390 +0000|291099.609133125|-1.150115966796875|0.070098876953125|-0.215972900390625|291099.589171125|1.232144069342423|-1.044512561069707|-0.3386945844187472|-0.9465582966804504|-0.005802834406495094|-0.364957869052887|-0.1837261915206909|0.3701975643634796|-0.1992332935333252|XArbitraryZVertical|-0.1649041196719915|0.4857093785872613|-0.562259075521815|-0.648658417593306|-0.8155566453933716|0.3322561085224152|-0.4737860560417175|0|0|0|-1|-1|3
2021-03-10 21:12:19.412 +0000|291099.629096125|-1.043838500976562|0.1451873779296875|-0.5131378173828125|291099.609133125|1.20966345878612|-1.045585844136982|-0.3457556194503657|-1.659407258033752|0.2717263996601105|-0.02946615964174271|-0.4270437955856323|-0.05304944515228271|0.381848156452179|XArbitraryZVertical|-0.1570818343947184|0.489350686498507|-0.5559796621650172|-0.6532594426410471|-0.8140144944190979|0.3389076888561249|-0.4717223942279816|0|0|0|-1|-1|3
2021-03-10 21:12:19.430 +0000|291099.649059125|-1.133712768554688|0.2605743408203125|-0.4682464599609375|291099.629096125|1.163618398214423|-1.056616376781854|-0.3740147019240932|-3.417893409729004|0.2740739285945892|0.2408066093921661|-0.1878486275672913|-0.1829366683959961|0.01855048537254333|XArbitraryZVertical|-0.138024382923168|0.5020349001280831|-0.5446359236845842|-0.6574815086598232|-0.8105034232139587|0.365355521440506|-0.4578204452991486|0|0|0|-1|-1|3
2021-03-10 21:12:19.450 +0000|291099.669022125|-1.0823974609375|0.439422607421875|-0.537109375|291099.649059125|1.088937379744927|-1.077785564040192|-0.4180363181145988|-4.512361526489258|0.5895690321922302|0.2493134438991547|-0.3161457777023315|-0.2784641981124878|-0.04557850956916809|XArbitraryZVertical|-0.1076858594473825|0.521671559380265|-0.5259690877035909|-0.6630377342041678|-0.8050547242164612|0.4059666395187378|-0.4325250685214996|0|0|0|-1|-1|3
2021-03-10 21:12:19.470 +0000|291099.688985125|-0.981353759765625|0.174713134765625|-0.37811279296875|291099.669022125|1.007500074828569|-1.094471148503198|-0.4619347435661533|-4.097738742828369|1.202091336250305|0.2577667832374573|-0.3072081804275513|0.01266264915466309|-0.1268779039382935|XArbitraryZVertical|-0.07329427574642211|0.5379570564568583|-0.5055911412950465|-0.6705280630328214|-0.7955445051193237|0.4456809163093567|-0.4104603230953217|0|0|0|-1|-1|3
2021-03-10 21:12:19.490 +0000|291099.708949125|-0.8685150146484375|0.2575225830078125|-0.2863311767578125|291099.688985125|0.9233525235673806|-1.105649305022448|-0.5084106374030603|-4.726150989532471|1.627501249313354|0.3617864549160004|-0.2499726414680481|-0.2967260181903839|-0.02872669696807861|XArbitraryZVertical|-0.03477421138704231|0.5503456874845554|-0.4851385341908731|-0.6786390684699071|-0.7807127833366394|0.4867895245552063|-0.3918207585811615|0|0|0|-1|-1|3
2021-03-10 21:12:19.510 +0000|291099.728912125|-0.845062255859375|0.4930267333984375|-0.2413482666015625|291099.708949125|0.8194732787761165|-1.128904599126829|-0.5654809568863964|-5.746357917785645|1.335734724998474|0.8085461854934692|-0.05574154853820801|-0.2984103560447693|0.023019939661026|XArbitraryZVertical|0.0115547749451633|0.565090510297364|-0.4601018007539633|-0.6847230731239802|-0.7632282972335815|0.5358219742774963|-0.3610784113407135|0|0|0|-1|-1|3
2021-03-10 21:12:19.530 +0000|291099.748875125|-0.9360809326171875|0.682403564453125|-0.0314483642578125|291099.728912125|0.6984019760504306|-1.171597981493348|-0.6296826607246399|-5.963248252868652|1.194923400878906|1.094340205192566|-0.1117479205131531|-0.117529034614563|0.09465435147285461|XArbitraryZVertical|0.06259873235479137|0.5822482866818722|-0.4319577843095649|-0.6859160443132966|-0.7446668744087219|0.5888882875442505|-0.3141366541385651|0|0|0|-1|-1|3
2021-03-10 21:12:19.550 +0000|291099.768838125|-0.81683349609375|0.687408447265625|-0.1976318359375|291099.748875125|0.5715376670063954|-1.22097279387545|-0.6921682568639491|-5.656154155731201|1.690072417259216|1.114314079284668|-0.2103273272514343|-0.04793691635131836|0.1461508870124817|XArbitraryZVertical|0.1146524849949225|0.5957568809093016|-0.403856339074497|-0.6847106641077118|-0.7232359051704407|0.6382079720497131|-0.2638570964336395|0|0|0|-1|-1|3
2021-03-10 21:12:19.570 +0000|291099.788801125|-0.6712188720703125|0.67071533203125|-0.1857147216796875|291099.768838125|0.4531216715027694|-1.261201534414878|-0.7465265421499953|-4.543514251708984|2.011474370956421|1.186026573181152|-0.1733139157295227|0.08761519193649292|0.05943061411380768|XArbitraryZVertical|0.1636690991439556|0.6011568939663114|-0.3784506062764639|-0.6845421094512641|-0.6991530656814575|0.6790931820869446|-0.2236456274986267|0|0|0|-1|-1|3
2021-03-10 21:12:19.590 +0000|291099.808764125|-0.5802764892578125|0.829986572265625|-0.0136871337890625|291099.788801125|0.3430992473716928|-1.299751886778383|-0.7966468245400942|-4.458476066589355|1.732733726501465|1.338112950325012|-0.01846200227737427|-0.07919728755950928|0.003462061285972595|XArbitraryZVertical|0.2090685753676051|0.6022469818875338|-0.3565240504609845|-0.6829931646077829|-0.6735851764678955|0.7150158882141113|-0.1871778070926666|0|0|0|-1|-1|3
2021-03-10 21:12:19.610 +0000|291099.828727125|-0.534698486328125|0.901458740234375|0.0649261474609375|291099.808764125|0.242307270456225|-1.342180768660278|-0.8431330252664783|-3.397079229354858|1.385223269462585|1.482750654220581|0.03972744941711426|0.05585116147994995|0.09310485422611237|XArbitraryZVertical|0.2495317641474661|0.6019678675816854|-0.3389481006602945|-0.6785887764736195|-0.6478206515312195|0.746730625629425|-0.1507371664047241|0|0|0|-1|-1|3
2021-03-10 21:12:19.630 +0000|291099.848690125|-0.5155792236328125|0.8821868896484375|-0.00201416015625|291099.828727125|0.1627925174970597|-1.378239485656207|-0.8861605932236944|-2.593961715698242|1.135823726654053|1.608165144920349|0.07890921831130981|0.1210261583328247|0.1796291172504425|XArbitraryZVertical|0.2830894920081525|0.599458353073601|-0.3283983890397291|-0.6728033945250982|-0.6207029819488525|0.774649441242218|-0.1210200414061546|0|0|0|-1|-1|3
2021-03-10 21:12:19.650 +0000|291099.868653125|-0.42730712890625|0.9002838134765625|-0.1407623291015625|291099.848690125|0.1003625769565785|-1.406825632099783|-0.92618051811396|-1.928992629051208|0.9688876271247864|1.649662733078003|0.07775592803955078|0.05967813730239868|0.09886598587036133|XArbitraryZVertical|0.3112258614746126|0.595058507610947|-0.3228074101459913|-0.6669627160194074|-0.5928316712379456|0.7993307113647461|-0.09808766841888428|0|0|0|-1|-1|3
2021-03-10 21:12:19.670 +0000|291099.888616125|-0.414581298828125|0.7421112060546875|-0.0803985595703125|291099.868653125|0.05495428316607089|-1.425287060210056|-0.9625450317259023|-1.31331479549408|0.83753502368927|1.577328085899353|0.1092483997344971|0.1314848065376282|-0.05615169554948807|XArbitraryZVertical|0.3341975395835452|0.588968694883121|-0.3209776283255496|-0.6621188640807507|-0.5653946995735168|0.8206485509872437|-0.08285576105117798|0|0|0|-1|-1|3
2021-03-10 21:12:19.690 +0000|291099.908579125|-0.36859130859375|0.84576416015625|0.14178466796875|291099.888616125|0.02293135258614704|-1.435781142977736|-0.996772838741375|-0.8917048573493958|0.7836874127388|1.548821926116943|0.1269406080245972|-0.1028454303741455|-0.02981245517730713|XArbitraryZVertical|0.353385719451518|0.5818695295206364|-0.3219974064507986|-0.6579241590670252|-0.5380734801292419|0.8397229909896851|-0.07309276610612869|0|0|0|-1|-1|3
2021-03-10 21:12:19.710 +0000|291099.928542125|-0.2942657470703125|0.9495391845703125|0.264617919921875|291099.908579125|0.0150777005855956|-1.424590686519863|-1.027866848117758|0.01267957501113415|0.9668905735015869|1.575605750083923|0.1122543811798096|-0.01493597030639648|0.1781121492385864|XArbitraryZVertical|0.3677777716768824|0.5719314666918933|-0.3262600580108412|-0.6566493449697998|-0.5111344456672668|0.8561988472938538|-0.07526781409978867|0|0|0|-1|-1|3
2021-03-10 21:12:19.730 +0000|291099.948505125|-0.24462890625|0.890899658203125|0.157379150390625|291099.928542125|0.04429323307174512|-1.377349845177065|-1.056136032805345|1.129832744598389|1.200229525566101|1.402080178260803|0.176783412694931|0.05603843927383423|0.3832492828369141|XArbitraryZVertical|0.3767771729045963|0.557426558090677|-0.3349040386344895|-0.6596620148216119|-0.4830578565597534|0.8704599738121033|-0.0946291908621788|0|0|0|-1|-1|3
2021-03-10 21:12:19.750 +0000|291099.968469125|-0.204864501953125|0.33758544921875|-0.0438690185546875|291099.948505125|0.1263940710175055|-1.277764817987717|-1.071288586617339|2.139710187911987|1.550021290779114|1.05545437335968|0.2001065611839294|0.0971265435218811|0.3436213135719299|XArbitraryZVertical|0.3765236200982371|0.5376336550786617|-0.3473380794374193|-0.6697284687745435|-0.4585751593112946|0.8778184652328491|-0.1383600383996964|0|0|0|-1|-1|3
2021-03-10 21:12:19.770 +0000|291099.988432125|-0.10748291015625|0.3352813720703125|-0.39312744140625|291099.968469125|0.2125838846117757|-1.168505651283236|-1.077148837344386|1.299092292785645|1.784690737724304|0.9730551838874817|0.2116628885269165|-0.4095257520675659|0.2008721232414246|XArbitraryZVertical|0.3751844474744034|0.5162129130835991|-0.3572805072163936|-0.6819909123525659|-0.436012864112854|0.8806104063987732|-0.1855217218399048|0|0|0|-1|-1|3
2021-03-10 21:12:19.790 +0000|291100.008395125|-0.238616943359375|0.9953765869140625|-0.518096923828125|291099.988432125|0.2627341964290875|-1.090806969392644|-1.088913606690958|0.5128723382949829|1.342093348503113|1.051198720932007|0.2871163189411163|-0.7047884464263916|-0.08918559551239014|XArbitraryZVertical|0.3808652385816091|0.4979341527457466|-0.3621731839332025|-0.6898071838981553|-0.4110787510871887|0.8861239552497864|-0.2140064984560013|0|0|0|-1|-1|3
2021-03-10 21:12:19.810 +0000|291100.028358125|-0.3253021240234375|0.449981689453125|-0.2688751220703125|291100.008395125|0.3074902651870891|-1.027987222499434|-1.098722185297416|0.7283051609992981|1.055539965629578|0.9415237903594971|0.2053505182266235|0.04102885723114014|-0.293414831161499|XArbitraryZVertical|0.3850982169700266|0.4839982552163278|-0.36741867678787|-0.6945851736871861|-0.3893714845180511|0.8906270265579224|-0.2348901033401489|0|0|0|-1|-1|3
2021-03-10 21:12:19.830 +0000|291100.048321125|-0.0876312255859375|0.1535491943359375|-0.04473876953125|291100.028358125|0.3328063120881314|-0.9790884714078593|-1.111295463471514|-0.7705029249191284|1.639625668525696|0.6996198892593384|0.04371428489685059|-0.2383149862289429|-0.02868634462356567|XArbitraryZVertical|0.3929387678593644|0.4710746647981207|-0.3688039356820612|-0.6983347544368992|-0.3681008815765381|0.8962739706039429|-0.247375562787056|0|0|0|-1|-1|3
2021-03-10 21:12:19.850 +0000|291100.068284125|-0.2150421142578125|0.7905120849609375|0.0369873046875|291100.048321125|0.2731427766755995|-1.001245157386131|-1.14188204711358|-2.74553108215332|1.299949765205383|0.585845410823822|0.1758409738540649|-0.8053528070449829|0.09493362903594971|XArbitraryZVertical|0.4147083915027451|0.4646325734460297|-0.3574687708698617|-0.6959523377183902|-0.3502336442470551|0.9094178080558777|-0.2242670506238937|0|0|0|-1|-1|3
2021-03-10 21:12:19.870 +0000|291100.088247125|-0.3536224365234375|0.735870361328125|-0.28668212890625|291100.068284125|0.1591775905876158|-1.083233979233095|-1.182096702938207|-3.021701812744141|1.108110070228577|0.6682236790657043|0.180940181016922|-0.2179441452026367|0.2452174425125122|XArbitraryZVertical|0.4419338112136485|0.4646742474277268|-0.3429247251868408|-0.6864218951649455|-0.3348250985145569|0.9254026412963867|-0.1775446981191635|0|0|0|-1|-1|3
2021-03-10 21:12:19.890 +0000|291100.108210125|-0.307830810546875|0.78411865234375|-0.25238037109375|291100.088247125|0.02590742463111302|-1.185793534076547|-1.218785722230423|-2.881189107894897|1.017774105072021|0.6099071502685547|-0.04802247881889343|-0.1565311551094055|-0.1123939007520676|XArbitraryZVertical|0.4687059749832029|0.4642957582327608|-0.3286026353517179|-0.6758434893443301|-0.3195464909076691|0.9386813640594482|-0.1294883191585541|0|0|0|-1|-1|3
2021-03-10 21:12:19.910 +0000|291100.128173125|-0.3667144775390625|1.126327514648438|-0.3379058837890625|291100.108210125|-0.1293442341462582|-1.314497205456956|-1.25015531579737|-2.965951919555664|0.792938232421875|0.6677332520484924|0.02108120918273926|-0.2849102020263672|-0.1747258007526398|XArbitraryZVertical|0.4943067229682485|0.464448182463656|-0.3152616022971038|-0.6637460058585598|-0.3048793971538544|0.9490335583686829|-0.07989750057458878|0|0|0|-1|-1|3
2021-03-10 21:12:19.930 +0000|291100.148136125|-0.4027862548828125|0.9188079833984375|-0.2761993408203125|291100.128173125|-0.2853539436100612|-1.448551529831811|-1.272132840702743|-2.134764432907104|0.6421931385993958|0.6518042683601379|-0.08217406272888184|0.2049598693847656|-0.3146140575408936|XArbitraryZVertical|0.5161909286859261|0.464334802223014|-0.3039316867976317|-0.6523540475495477|-0.2920478284358978|0.9557306170463562|-0.03588023409247398|0|0|0|-1|-1|3
2021-03-10 21:12:19.950 +0000|291100.168099125|-0.3452301025390625|1.12628173828125|-0.2080230712890625|291100.148136125|-0.4302823355243496|-1.576391258764923|-1.287486372026308|-2.233052015304565|0.4748588800430298|0.6347907781600952|-0.09208184480667114|-0.05763918161392212|-0.3116987943649292|XArbitraryZVertical|0.5345364063824547|0.4637378741288054|-0.2953699126393823|-0.641852464857396|-0.2795306444168091|0.9601354598999023|0.001563971280120313|0|0|0|-1|-1|3
2021-03-10 21:12:19.969 +0000|291100.188062125|-0.341278076171875|1.068328857421875|-0.027191162109375|291100.168099125|-0.581412335907307|-1.715387679111034|-1.29570003650717|-1.692154407501221|0.1214980185031891|0.5249817967414856|-0.1154422163963318|0.0856354832649231|-0.258027195930481|XArbitraryZVertical|0.5510808108674461|0.4646287983815329|-0.287762261965659|-0.6305733788358394|-0.2688045799732208|0.9623990654945374|0.03913995996117592|0|0|0|-1|-1|3
2021-03-10 21:12:19.989 +0000|291100.208026125|-0.3177642822265625|1.117965698242188|-0.154296875|291100.188062125|-0.6767647069076088|-1.807502091941584|-1.30119095044759|-0.8600627779960632|-0.1511993408203125|0.515142560005188|-0.08587914705276489|0.1602997779846191|-0.153081551194191|XArbitraryZVertical|0.5609839438687388|0.465324436779571|-0.2854349179773654|-0.6223318889919198|-0.2589236497879028|0.9638760685920715|0.06245963275432587|0|0|0|-1|-1|3
2021-03-10 21:12:20.010 +0000|291100.227989125|-0.331787109375|0.9048614501953125|-0.045135498046875|291100.208026125|-0.7368432421030636|-1.869358227598092|-1.307045216480397|-0.6422166228294373|-0.2672863602638245|0.4803945422172546|-0.07204204797744751|0.1328325271606445|-0.1815738677978516|XArbitraryZVertical|0.566962145644424|0.4657214550154681|-0.2863844694588042|-0.6161505364046505|-0.2491707354784012|0.965418815612793|0.0766850933432579|0|0|0|-1|-1|3
2021-03-10 21:12:20.029 +0000|291100.247952125|-0.2515716552734375|0.9397735595703125|0.039459228515625|291100.227989125|-0.8171805651619733|-1.951781067372201|-1.308575358407032|-1.032422423362732|-0.2934315800666809|0.340772807598114|-0.1250675320625305|-0.05611813068389893|-0.1404415369033813|XArbitraryZVertical|0.5740994205879559|0.4675517201318379|-0.285863740081833|-0.6083479929811444|-0.2406398802995682|0.9658166170120239|0.09638950973749161|0|0|0|-1|-1|3
2021-03-10 21:12:20.049 +0000|291100.267915125|-0.2735595703125|0.8906097412109375|0.0777435302734375|291100.247952125|-0.8912073608630127|-2.028075434480308|-1.306569687746198|-0.8074110150337219|-0.2248333990573883|0.2880542576313019|0.001237541437149048|0.03378987312316895|-0.06907175481319427|XArbitraryZVertical|0.580385319358497|0.4698998098609172|-0.2847556354659669|-0.6010502863027222|-0.2343308478593826|0.9652947783470154|0.1153059005737305|0|0|0|-1|-1|3
2021-03-10 21:12:20.069 +0000|291100.287878125|-0.307159423828125|0.918365478515625|0.099334716796875|291100.267915125|-0.9542830518705981|-2.093868649225031|-1.303389809507982|-0.7230163812637329|-0.2592701613903046|0.1861570179462433|-0.05381469428539276|-0.1161471009254456|-0.04054893553256989|XArbitraryZVertical|0.5856767604973672|0.4722077976034826|-0.2838915098278167|-0.5944813722057773|-0.2289001643657684|0.9644594192504883|0.1319949477910995|0|0|0|-1|-1|3
2021-03-10 21:12:20.089 +0000|291100.307841125|-0.2044677734375|0.6191864013671875|0.047760009765625|291100.287878125|-0.9989780881488372|-2.13928327021901|-1.299915546073216|-0.4816043078899384|0.01222340948879719|0.1396204084157944|-0.07489047944545746|0.006679117679595947|-0.03531947731971741|XArbitraryZVertical|0.5896452602266966|0.4736510369296033|-0.2826949171517671|-0.5899632849585261|-0.2254940122365952|0.9635356068611145|0.1440536826848984|0|0|0|-1|-1|3
2021-03-10 21:12:20.109 +0000|291100.327804125|-0.2698516845703125|1.046707153320312|0.0645599365234375|291100.307841125|-1.022415837980854|-2.162175475691262|-1.296850970101476|-0.3705713450908661|-0.08582858741283417|-0.1019972562789917|-0.00101238489151001|-0.2797274589538574|-0.1125545352697372|XArbitraryZVertical|0.5918591520310303|0.4744624386022827|-0.281403033349325|-0.5877079928914104|-0.2245888113975525|0.9627110362052917|0.1508237272500992|0|0|0|-1|-1|3
2021-03-10 21:12:20.129 +0000|291100.347767125|-0.3419952392578125|0.9426727294921875|0.14263916015625|291100.327804125|-1.027514597532002|-2.169434997195478|-1.292134962299706|0.4646039307117462|-0.1783649623394012|-0.1422151625156403|-0.02706784009933472|-0.1691882610321045|-0.1303327232599258|XArbitraryZVertical|0.5918994704892173|0.4766110822306887|-0.2802800716466488|-0.5864638968844329|-0.2272351384162903|0.9614245295524597|0.1550062149763107|0|0|0|-1|-1|3
2021-03-10 21:12:20.149 +0000|291100.367730125|-0.3523101806640625|0.968292236328125|0.063385009765625|291100.347767125|-0.965288495461222|-2.116379140660031|-1.299397545928048|0.7342544198036194|-0.403177410364151|-0.2236813455820084|-0.06473861634731293|0.1497623324394226|0.00136171281337738|XArbitraryZVertical|0.5848697876353802|0.4769514750244341|-0.2857178320530395|-0.59060134968022|-0.2291609197854996|0.9633968472480774|0.1391107589006424|0|0|0|-1|-1|3
2021-03-10 21:12:20.169 +0000|291100.387693125|-0.3855743408203125|0.74127197265625|0.1079254150390625|291100.367730125|-0.932289055916658|-2.092956163894354|-1.296014035240657|-0.05302205681800842|-0.4197170734405518|-0.4585466086864471|-0.1263461112976074|-0.09299266338348389|-0.09747350215911865|XArbitraryZVertical|0.5801360779622469|0.480736348115001|-0.2873740596270249|-0.5913974384729147|-0.2351803630590439|0.9624843001365662|0.1353306174278259|0|0|0|-1|-1|3
2021-03-10 21:12:20.189 +0000|291100.407656125|-0.322662353515625|0.8802337646484375|0.1690673828125|291100.387693125|-0.9372867870870136|-2.104239014100893|-1.2824883892519|-0.8071459531784058|-0.2186406999826431|-0.6567780375480652|-0.1235967874526978|-0.1214916706085205|-0.06517575681209564|XArbitraryZVertical|0.5789166952593012|0.4869771878261518|-0.2840717486162605|-0.5890773539317428|-0.2448267042636871|0.9587263464927673|0.1445826441049576|0|0|0|-1|-1|3
2021-03-10 21:12:20.209 +0000|291100.427619125|-0.2829437255859375|0.9250335693359375|0.256744384765625|291100.407656125|-0.9754106003753198|-2.145086403375798|-1.258513742074465|-1.198911905288696|-0.2253314554691315|-0.7800918221473694|-0.07324689626693726|-0.1551717519760132|0.01274155080318451|XArbitraryZVertical|0.5812544217797833|0.4955738438676198|-0.2756649883242704|-0.583574099568813|-0.2579451203346252|0.9516347646713257|0.1669002771377563|0|0|0|-1|-1|3
2021-03-10 21:12:20.229 +0000|291100.447583125|-0.30224609375|1.032608032226562|0.3636322021484375|291100.427619125|-0.9922580633233804|-2.167169007475068|-1.235269994157668|-0.3810136318206787|-0.4322037100791931|-0.8331795334815979|-0.03949221968650818|0.004249215126037598|0.03896141052246094|XArbitraryZVertical|0.5813527639772054|0.5044743889987986|-0.2683419785475802|-0.5792471174770737|-0.2724279761314392|0.9442371129989624|0.1849308907985687|0|0|0|-1|-1|3
2021-03-10 21:12:20.249 +0000|291100.467546125|-0.4459228515625|1.1591796875|0.491424560546875|291100.447583125|-0.9598766199069533|-2.148271679860376|-1.222937661774894|0.5746534466743469|-0.7149872183799744|-0.783780574798584|0.004069209098815918|0.09674531221389771|0.153353825211525|XArbitraryZVertical|0.5750211594533621|0.5122472949232311|-0.2675462710036077|-0.5791135678841337|-0.2856091856956482|0.9401048421859741|0.1860932558774948|0|0|0|-1|-1|3
2021-03-10 21:12:20.269 +0000|291100.487509125|-0.4795989990234375|1.084747314453125|0.567413330078125|291100.467546125|-0.9023843212913405|-2.107297424063711|-1.218558057608935|0.8911833763122559|-0.6475216150283813|-0.6513171195983887|-0.1112630367279053|0.08477365970611572|0.3704584836959839|XArbitraryZVertical|0.565439908578422|0.5181195762780932|-0.270873707422586|-0.5817708582507682|-0.2965281307697296|0.9386028647422791|0.1763403713703156|0|0|0|-1|-1|3
2021-03-10 21:12:20.289 +0000|291100.507472125|-0.502777099609375|1.137161254882812|0.4666595458984375|291100.487509125|-0.8342874168784938|-2.053787246792998|-1.218296444946306|0.9450864791870117|-0.4443342685699463|-0.4853934645652771|-0.1914548277854919|0.2683051824569702|0.4148682355880737|XArbitraryZVertical|0.5550256664803526|0.5216490369719848|-0.2756716334983231|-0.5863736846014433|-0.3057528734207153|0.9385125637054443|0.1603424102067947|0|0|0|-1|-1|3
2021-03-10 21:12:20.309 +0000|291100.527435125|-0.3547515869140625|1.070205688476562|0.5067596435546875|291100.507472125|-0.8028667351341481|-2.030574934238198|-1.214716706259748|0.1441816985607147|-0.1122293025255203|-0.46047642827034|-0.1929554045200348|0.2125706076622009|0.3377547264099121|XArbitraryZVertical|0.5496578609262655|0.5246164003536764|-0.2771251202113112|-0.5880948465194359|-0.3124004006385803|0.9372707009315491|0.1546922624111176|0|0|0|-1|-1|3
2021-03-10 21:12:20.329 +0000|291100.547398125|-0.072998046875|1.056732177734375|0.41754150390625|291100.547398125|-0.7894704138125702|-2.007870785204648|-1.202151963630279|0.1932282000780106|0.2759458720684052|-0.2693412601947784|0.198531299829483|0.1368855237960815|0.2998592853546143|XArbitraryZVertical|0.5478820353935024|0.5254445763675932|-0.2700771996179614|-0.5922766823493593|-0.3264762461185455|0.9328166842460632|0.1525334566831589|0|0|0|-1|-1|3
2021-03-10 21:12:20.349 +0000|291100.567361125|-0.05322265625|0.9746246337890625|0.1863555908203125||||||||||||||||||||||||3
2021-03-10 21:12:20.369 +0000|291100.587324125|0.040313720703125|0.7766571044921875|0.136871337890625|291100.567361125|-0.7590803534335927|-1.973664811972767|-1.201075683165515|0.8336235284805298|0.3089120090007782|-0.2975744903087616|0.2800262868404388|0.1044064164161682|0.1178643703460693|XArbitraryZVertical|0.5443950018194362|0.5238991099389469|-0.2693661443675361|-0.5971647058324077|-0.3324249386787415|0.9324283003807068|0.1416723877191544|0|0|0|-1|-1|3
2021-03-10 21:12:20.389 +0000|291100.6072875417|-0.02606201171875|0.749603271484375|0.100860595703125|291100.587324125|-0.697052125005469|-1.911114025687065|-1.203793651857515|1.193915009498596|0.1899526715278625|-0.2373282760381699|0.3681173920631409|-0.1460534930229187|0.009182929992675781|XArbitraryZVertical|0.5370210678597185|0.5210498367958112|-0.2721178934494369|-0.6050349846018719|-0.3382406830787659|0.9334070086479187|0.1197691187262535|0|0|0|-1|-1|3
2021-03-10 21:12:20.409 +0000|291100.6272505417|-0.0013580322265625|0.719818115234375|0.2021331787109375|291100.6072875417|-0.6332339793415026|-1.847339962379758|-1.206492652303073|1.095854997634888|0.2359645664691925|-0.2263473570346832|0.3236876130104065|-0.1678010821342468|0.008538715541362762|XArbitraryZVertical|0.5295934702078839|0.517852557557403|-0.2755382994741469|-0.6127300447543064|-0.3427610695362091|0.9343720674514771|0.09728103131055832|0|0|0|-1|-1|3
2021-03-10 21:12:20.429 +0000|291100.6472135417|-0.1068572998046875|0.843048095703125|0.21142578125|291100.6272505417|-0.5767473905179835|-1.789129350951489|-1.207388949652702|0.7785871624946594|0.3261566162109375|-0.1955427527427673|0.3575815260410309|-0.2238756418228149|0.1085989475250244|XArbitraryZVertical|0.5232241489768272|0.5145224795474397|-0.2779487047475832|-0.6198771115717071|-0.3470224738121033|0.9346910715103149|0.07699378579854965|0|0|0|-1|-1|3
2021-03-10 21:12:20.449 +0000|291100.6671765417|-0.175628662109375|0.7968902587890625|0.233612060546875|291100.6472135417|-0.5499157497639415|-1.755996179999272|-1.204693473269009|0.09932143986225128|0.4710889756679535|-0.2637570202350616|0.2530569434165955|-0.1113724112510681|0.1635881662368774|XArbitraryZVertical|0.5204228312731392|0.5119763237591446|-0.2766932473841469|-0.6248849090413791|-0.351857602596283|0.9337295293807983|0.06591936200857162|0|0|0|-1|-1|3
2021-03-10 21:12:20.469 +0000|291100.6871405417|-0.145477294921875|1.034744262695312|0.171722412109375|291100.6671765417|-0.559914100323029|-1.75314785372357|-1.197171029362419|-0.6151055693626404|0.7687034606933594|-0.3907159566879272|0.2047518491744995|-0.07142150402069092|0.1139869764447212|XArbitraryZVertical|0.5219079663356809|0.5105942791875969|-0.270152731535361|-0.6276330522812387|-0.3589419722557068|0.9310102462768555|0.06618888676166534|0|0|0|-1|-1|3
2021-03-10 21:12:20.489 +0000|291100.7071035417|-0.286651611328125|1.00421142578125|0.0345611572265625|291100.6871405417|-0.5795392649366717|-1.75380623864435|-1.187446367322047|-0.1457896679639816|1.018541216850281|-0.4225947856903076|0.2110143303871155|-0.02940666675567627|0.1096647903323174|XArbitraryZVertical|0.5249398661053941|0.5084023391120462|-0.2606916955063168|-0.630876378156362|-0.3677831292152405|0.9274168610572815|0.06806959956884384|0|0|0|-1|-1|3
2021-03-10 21:12:20.509 +0000|291100.7270665417|-0.3966522216796875|0.854736328125|-0.0831451416015625|291100.7071035417|-0.5616905723794875|-1.71529155793097|-1.178974291900821|0.6370100378990173|1.079717397689819|-0.5549607872962952|0.1322115957736969|0.1160378456115723|0.001546859741210938|XArbitraryZVertical|0.5236985347345525|0.5032229633525622|-0.2532580101078001|-0.6390358873941229|-0.3778933584690094|0.924214780330658|0.05498701333999634|0|0|0|-1|-1|3
2021-03-10 21:12:20.528 +0000|291100.7470295417|-0.2943572998046875|0.4300537109375|0.0186004638671875|291100.7270665417|-0.5397721379896943|-1.671614194956368|-1.167001673628788|-0.1363890022039413|1.274155020713806|-0.791272759437561|-0.0004114210605621338|0.09960365295410156|-0.01880860328674316|XArbitraryZVertical|0.5211445639553329|0.4981776937245858|-0.2447118708988749|-0.6483389777497617|-0.3909155130386353|0.9195766448974609|0.03954534232616425|0|0|0|-1|-1|3
2021-03-10 21:12:20.549 +0000|291100.7669925417|-0.4172210693359375|0.6331024169921875|0.3014678955078125|291100.7470295417|-0.5657567139799721|-1.671470392471143|-1.146074582398888|-1.225363612174988|1.102103352546692|-1.102046132087708|0.114921897649765|-0.414372980594635|-0.1300679445266724|XArbitraryZVertical|0.5231312537912898|0.4970321228946961|-0.2289180463227214|-0.6533677525783447|-0.4099811613559723|0.9111534357070923|0.04141448065638542|0|0|0|-1|-1|3
2021-03-10 21:12:20.568 +0000|291100.7869555417|-0.53460693359375|1.0413818359375|0.3942413330078125|291100.7669925417|-0.6361720338730631|-1.714572908714588|-1.119779268603414|-1.782487511634827|0.9859057664871216|-1.110502004623413|0.04240685701370239|-0.4164072871208191|0.1978917121887207|XArbitraryZVertical|0.530514597386686|0.499781141525526|-0.2079616332880567|-0.6523229048813745|-0.4313839972019196|0.9000042676925659|0.06245385482907295|0|0|0|-1|-1|3
2021-03-10 21:12:20.588 +0000|291100.8069185417|-0.8113555908203125|1.253952026367188|0.4667205810546875|291100.7869555417|-0.6942272577101147|-1.747384837915079|-1.094518672550225|-1.166225552558899|0.9003815054893494|-0.9055883884429932|-0.07493114471435547|0.1252083778381348|0.2757515907287598|XArbitraryZVertical|0.5368692816358603|0.5020378150138275|-0.1886571820126543|-0.6512587147040089|-0.4513445198535919|0.88870769739151|0.08054118603467941|0|0|0|-1|-1|3
2021-03-10 21:12:20.608 +0000|291100.8268815417|-1.092926025390625|1.26409912109375|0.3291015625|291100.8069185417|-0.7367749471376441|-1.768533228175645|-1.07738130667781|-1.221851110458374|0.7218050956726074|-0.3950172662734985|-0.2546176314353943|0.3335281610488892|0.3753376007080078|XArbitraryZVertical|0.5424437022085739|0.5022728029310222|-0.1742353507794744|-0.6504759488735579|-0.4644070267677307|0.8807204961776733|0.09304627776145935|0|0|0|-1|-1|3
2021-03-10 21:12:20.628 +0000|291100.8468445417|-1.451141357421875|1.296585083007812|0.321136474609375|291100.8268815417|-0.8087710814485611|-1.821710036576493|-1.07016005456036|-2.494240999221802|0.1946241110563278|0.494824230670929|-0.5543488264083862|0.3413047790527344|0.2159082889556885|XArbitraryZVertical|0.5547898468325764|0.5017923976337221|-0.1628517706246194|-0.6433443062315953|-0.4649535417556763|0.8772773146629333|0.1191747710108757|0|0|0|-1|-1|3
2021-03-10 21:12:20.648 +0000|291100.8668075417|-1.190139770507812|1.687103271484375|0.4201507568359375|291100.8468445417|-0.9477966802781066|-1.944038430737991|-1.070851213116367|-3.004268646240234|-0.08134014904499054|1.565331935882568|-0.8887566328048706|0.4329226613044739|0.2369754165410995|XArbitraryZVertical|0.5800864028589218|0.5008981227492836|-0.1537780519195512|-0.6236610579507151|-0.4463721811771393|0.8776088953018188|0.1747983247041702|0|0|0|-1|-1|3
2021-03-10 21:12:20.668 +0000|291100.8867705417|-0.8306884765625|1.4222412109375|0.1505126953125|291100.8668075417|-1.055512955581845|-2.044302864845046|-1.091897207923039|-0.4867816567420959|-0.5034176707267761|2.324479579925537|-0.8958511352539062|0.8261509537696838|0.1933728754520416|XArbitraryZVertical|0.6011732373268555|0.4936152930562018|-0.1582821032577765|-0.6081789492539739|-0.4101029336452484|0.8875027298927307|0.2101306319236755|0|0|0|-1|-1|3
2021-03-10 21:12:20.688 +0000|291100.9067335417|-0.4270477294921875|1.171493530273438|0.0666351318359375|291100.8867705417|-1.069979281145832|-2.071408695559981|-1.144699487859494|2.195804595947266|-0.8645780682563782|2.586848020553589|-0.5564051866531372|0.5627418756484985|0.0150921642780304|XArbitraryZVertical|0.6062623354888423|0.4812848981765951|-0.1822628172324764|-0.6062930266675256|-0.3626011908054352|0.9105859398841858|0.1983783394098282|0|0|0|-1|-1|3
2021-03-10 21:12:20.708 +0000|291100.9266975417|-0.09893798828125|1.019683837890625|0.1407623291015625|291100.9067335417|-1.009856833208124|-2.032131763378072|-1.214989490044583|2.766743183135986|-0.8006018996238708|2.567806005477905|-0.2191213369369507|0.300183117389679|-0.07130910456180573|XArbitraryZVertical|0.6007672184263764|0.465414936844026|-0.2154568048149318|-0.6132259567114633|-0.3119302690029144|0.937365710735321|0.1550646275281906|0|0|0|-1|-1|3
2021-03-10 21:12:20.728 +0000|291100.9466605417|0.0603485107421875|0.92694091796875|0.1545562744140625|291100.9266975417|-0.9310520321539345|-1.97550348141775|-1.279887377601112|2.166677713394165|-1.023067712783813|2.25432014465332|0.0916864275932312|0.08564132452011108|-0.01294565200805664|XArbitraryZVertical|0.594368883915276|0.4507703421786712|-0.2472049460666808|-0.6184023653484656|-0.263653039932251|0.9579835534095764|0.1129365414381027|0|0|0|-1|-1|3
2021-03-10 21:12:20.748 +0000|291100.9666235417|0.0784149169921875|0.78460693359375|0.14129638671875|291100.9466605417|-0.8445528680381279|-1.913787105631082|-1.33218513175563|1.975235819816589|-1.107596516609192|1.771500945091248|0.2599090337753296|-0.02156358957290649|0.1101953834295273|XArbitraryZVertical|0.5880856309759498|0.4403392129136883|-0.2750970040347971|-0.6201436710083515|-0.2225859612226486|0.9716671705245972|0.0794866606593132|0|0|0|-1|-1|3
2021-03-10 21:12:20.768 +0000|291100.9865865417|0.076568603515625|0.4457550048828125|-0.0025634765625|291100.9666235417|-0.712324087263975|-1.806239515504305|-1.370956598087207|1.884900212287903|-1.044617414474487|1.096206545829773|0.2786533236503601|-0.1319231986999512|0.09421038627624512|XArbitraryZVertical|0.5793155643276541|0.4330674777833543|-0.298783765516176|-0.6225547760069263|-0.193036288022995|0.9800984263420105|0.04630792513489723|0|0|0|-1|-1|3
2021-03-10 21:12:20.788 +0000|291101.0065495417|0.1065216064453125|0.154327392578125|-0.053466796875|291100.9865865417|-0.5279998385432231|-1.643164252380169|-1.39198532817696|1.747574090957642|-0.7610138058662415|0.4685647487640381|0.2528184950351715|-0.4549573659896851|0.00278019905090332|XArbitraryZVertical|0.568163714960046|0.4285091037176019|-0.3168136107829074|-0.6270559102426005|-0.1773943305015564|0.9840558767318726|0.01286011748015881|0|0|0|-1|-1|3
2021-03-10 21:12:20.808 +0000|291101.0265125417|0.1366424560546875|0.163543701171875|-0.011627197265625|291101.0065495417|-0.3723055035290055|-1.501708881843312|-1.395164704678803|0.9415425062179565|-0.4384826719760895|-0.1623191088438034|0.2678201198577881|-0.7770508527755737|-0.0387800969183445|XArbitraryZVertical|0.5582997879375309|0.4269312386590369|-0.3269880087650171|-0.6317516108360788|-0.1743143200874329|0.9846163988113403|-0.01206212863326073|0|0|0|-1|-1|3
2021-03-10 21:12:20.828 +0000|291101.0464755417|0.070526123046875|0.2494659423828125|0.0986328125|291101.0265125417|-0.320456942851954|-1.457342825939083|-1.384857244735782|0.06050165742635727|-0.2157822251319885|-0.7987551689147949|0.3207514882087708|-0.8499046564102173|-0.01396757550537586|XArbitraryZVertical|0.5519600887397434|0.4299714547539271|-0.3280406891460187|-0.63470785839903|-0.1836817860603333|0.9827630519866943|-0.02092921733856201|0|0|0|-1|-1|3
2021-03-10 21:12:20.848 +0000|291101.0664385417|-0.0531463623046875|0.5871124267578125|0.1939849853515625|291101.0464755417|-0.3653921970726412|-1.502757237500094|-1.3641506263272|-0.7048624157905579|0.07454787194728851|-1.294901728630066|0.3019173741340637|-0.7583266496658325|0.07818889617919922|XArbitraryZVertical|0.549276879325295|0.4374016696749392|-0.3201223495192152|-0.6360003253631533|-0.2047035992145538|0.9787246584892273|-0.01394937839359045|0|0|0|-1|-1|3
2021-03-10 21:12:20.868 +0000|291101.0864015417|-0.1812896728515625|0.9999237060546875|0.274078369140625|291101.0664385417|-0.4585403497296867|-1.589570839875396|-1.335301646079337|-1.162770390510559|0.3160915970802307|-1.665062189102173|0.2110510766506195|-0.5000784397125244|0.1985464096069336|XArbitraryZVertical|0.5496978945030264|0.4472386061009503|-0.3053217422060565|-0.6360727461492897|-0.233283132314682|0.9723990559577942|0.004380291793495417|0|0|0|-1|-1|3
2021-03-10 21:12:20.888 +0000|291101.1063645417|-0.315277099609375|1.039306640625|0.3330078125|291101.0864015417|-0.5529419900548111|-1.673056520116731|-1.29691154994998|-1.540302515029907|0.4796535968780518|-1.939551711082458|0.1228050589561462|-0.03621375560760498|0.2123645544052124|XArbitraryZVertical|0.5508058751896958|0.4587135655538778|-0.2855323067410021|-0.6361336916104651|-0.2690605521202087|0.962727427482605|0.02761049382388592|0|0|0|-1|-1|3
2021-03-10 21:12:20.908 +0000|291101.1263275417|-0.354705810546875|0.9925384521484375|0.2670745849609375|291101.1063645417|-0.6538404955979876|-1.759001549419482|-1.254566416770553|-1.950888276100159|0.5779789686203003|-1.784064888954163|0.0164925754070282|0.09656715393066406|0.277982234954834|XArbitraryZVertical|0.5546849477124314|0.4705493605383101|-0.2624912129949966|-0.6340396215538363|-0.3054940402507782|0.9504145979881287|0.0581841841340065|0|0|0|-1|-1|3
2021-03-10 21:12:20.928 +0000|291101.1462915417|-0.341705322265625|0.865509033203125|0.150421142578125|291101.1263275417|-0.7587145577156887|-1.846670457204799|-1.212254871353427|-2.47608757019043|0.5542243719100952|-1.522116184234619|-0.01273208856582642|0.077018141746521|0.176679253578186|XArbitraryZVertical|0.5619437234829547|0.4816751712655508|-0.2385126108686793|-0.6287448375726878|-0.3376402258872986|0.9364096522331238|0.09558343887329102|0|0|0|-1|-1|3
2021-03-10 21:12:20.948 +0000|291101.1662545417|-0.383544921875|1.179107666015625|0.022125244140625|291101.1462915417|-0.8618909345802296|-1.932486693586515|-1.171823244230422|-2.404132843017578|0.4401342570781708|-1.122037768363953|0.02219769358634949|-0.07148468494415283|0.06734026968479156|XArbitraryZVertical|0.5719282367322497|0.4915584801799819|-0.2155217824134374|-0.6203376958601092|-0.3633385300636292|0.9214603900909424|0.1374633014202118|0|0|0|-1|-1|3
2021-03-10 21:12:20.968 +0000|291101.1862175417|-0.4273834228515625|1.3515625|0.03485107421875|291101.1662545417|-0.9475303248639407|-2.004656013710413|-1.135682071400764|-2.098582983016968|0.2011339366436005|-0.8419667482376099|0.01222142577171326|0.1991046071052551|-0.1610351949930191|XArbitraryZVertical|0.5817838087919293|0.5001247660883422|-0.1962417149798701|-0.6106488300541707|-0.3824607133865356|0.9068219065666199|0.177194356918335|0|0|0|-1|-1|3
2021-03-10 21:12:20.988 +0000|291101.2061805417|-0.3990631103515625|1.325576782226562|0.050262451171875|291101.1862175417|-1.005722507356306|-2.054836378116579|-1.108866937492583|-1.289681196212769|0.02998797222971916|-0.4656325578689575|-0.02323177456855774|0.429665207862854|-0.1656968891620636|XArbitraryZVertical|0.5892248687040269|0.5064717828791775|-0.1830005059231209|-0.6023380327513763|-0.3944775462150574|0.8951942920684814|0.2073992192745209|0|0|0|-1|-1|3
2021-03-10 21:12:21.008 +0000|291101.2261435417|-0.3650360107421875|1.114273071289062|0.0680999755859375|291101.2061805417|-1.027890639640415|-2.075732604164505|-1.095831951202343|-0.272274523973465|-0.1401998549699783|-0.2173843085765839|-0.01135313510894775|0.4742926955223083|-0.1779794692993164|XArbitraryZVertical|0.5919165140834842|0.5101434454187633|-0.1775007615982662|-0.598232433499713|-0.4002374410629272|0.8893089890480042|0.2212229818105698|0|0|0|-1|-1|3
2021-03-10 21:12:21.028 +0000|291101.2461065417|-0.317718505859375|0.99609375|0.078369140625|291101.2261435417|-1.024782267695683|-2.077362014803318|-1.093324550241103|0.246601328253746|-0.3054853975772858|-0.07935728132724762|0.02758780121803284|0.2713099718093872|-0.1492253839969635|XArbitraryZVertical|0.5907796021119354|0.5123059765717938|-0.1779455489017288|-0.5973754245588736|-0.4018248021602631|0.8881595730781555|0.2229558974504471|0|0|0|-1|-1|3
2021-03-10 21:12:21.048 +0000|291101.2660695417|-0.28594970703125|1.0030517578125|0.0582427978515625|291101.2461065417|-1.011506443866156|-2.073612279500182|-1.09660331817736|0.3935321569442749|-0.5065689086914062|0.07816043496131897|0.06885159015655518|0.1389336585998535|-0.140239804983139|XArbitraryZVertical|0.5879733310815296|0.5141099750420325|-0.1820696917316561|-0.5973517621652182|-0.4001047611236572|0.8896614909172058|0.2200434058904648|0|0|0|-1|-1|3
2021-03-10 21:12:21.068 +0000|291101.2860325417|-0.2377471923828125|0.966705322265625|0.0211334228515625|291101.2660695417|-0.9989815321110476|-2.074165204066121|-1.102185607897452|0.3428232371807098|-0.6490579843521118|0.139624685049057|0.1014366745948792|0.08845525979995728|-0.1504519134759903|XArbitraryZVertical|0.5851524105088449|0.5162647791135815|-0.1881226881261609|-0.596386826187509|-0.3956261277198792|0.8921965956687927|0.2178653329610825|0|0|0|-1|-1|3
2021-03-10 21:12:21.087 +0000|291101.3059955417|-0.1707763671875|0.9254150390625|-0.0019378662109375|291101.2860325417|-0.9917305792060293|-2.081050243094998|-1.108099451199216|0.2135250866413116|-0.685884416103363|0.2089126855134964|0.1365151107311249|0.09330737590789795|-0.1936196982860565|XArbitraryZVertical|0.5831009375487048|0.5186472702673639|-0.1945735727568518|-0.5942554866804405|-0.3895058929920197|0.8948519825935364|0.2180033922195435|0|0|0|-1|-1|3
2021-03-10 21:12:21.107 +0000|291101.3259585417|-0.110382080078125|0.9072265625|0.0057830810546875|291101.3059955417|-0.9912053648133589|-2.094566356952897|-1.113561408401225|0.1037850007414818|-0.6977646350860596|0.2489721179008484|0.1958380937576294|0.02967941761016846|-0.2160695046186447|XArbitraryZVertical|0.5820628343388146|0.5211551922201184|-0.2007752464109917|-0.5910070686383343|-0.3822851777076721|0.8972766399383545|0.2207997590303421|0|0|0|-1|-1|3
2021-03-10 21:12:21.127 +0000|291101.3459215417|-0.1143798828125|0.943756103515625|0.0291595458984375|291101.3259585417|-0.993738760112867|-2.110621772554983|-1.118658125233716|0.06057534739375114|-0.6883267164230347|0.2516324520111084|0.2504806518554688|0.01042765378952026|-0.2261422872543335|XArbitraryZVertical|0.5814751067956845|0.523607130327882|-0.2066683052732124|-0.5873759652024791|-0.374763548374176|0.8995149731636047|0.2245554476976395|0|0|0|-1|-1|3
2021-03-10 21:12:21.148 +0000|291101.3658845417|-0.148162841796875|0.9531402587890625|0.095062255859375|291101.3459215417|-0.9971131659498572|-2.127607463000087|-1.123163080041554|0.1131949797272682|-0.6975049376487732|0.2169898599386215|0.2588849663734436|0.03164654970169067|-0.2045284956693649|XArbitraryZVertical|0.5809030687410492|0.5262354633566791|-0.2123583307412727|-0.5835509423843455|-0.3674511909484863|0.9014740586280823|0.2287442833185196|0|0|0|-1|-1|3
2021-03-10 21:12:21.168 +0000|291101.3858485417|-0.1289215087890625|1.0150146484375|0.14666748046875|291101.3658845417|-0.9956178844112392|-2.139019346250187|-1.130390705590094|0.1345120817422867|-0.6192764639854431|0.2309299111366272|0.2140219509601593|0.0614856481552124|-0.1563055515289307|XArbitraryZVertical|0.5797676686908119|0.5278017935939936|-0.2189003707329743|-0.5808419807673294|-0.3593161702156067|0.9045788049697876|0.2294105589389801|0|0|0|-1|-1|3
2021-03-10 21:12:21.187 +0000|291101.4058115417|-0.156005859375|1.01715087890625|0.198883056640625|291101.3858485417|-0.9886904793300419|-2.144207917165498|-1.140714912907651|0.2214381396770477|-0.6456032395362854|0.2023966312408447|0.2199769914150238|0.0847662091255188|-0.08956567943096161|XArbitraryZVertical|0.5780366858697322|0.5281761731247253|-0.2264040220828205|-0.5793485119847963|-0.3502565026283264|0.9089317917823792|0.2261929661035538|0|0|0|-1|-1|3
2021-03-10 21:12:21.207 +0000|291101.4257745417|-0.19305419921875|1.068466186523438|0.1459503173828125|291101.4058115417|-0.9816264932807619|-2.150002723177859|-1.151682652733241|0.09555638581514359|-0.6866087317466736|0.1917096376419067|0.1934819519519806|0.1157402992248535|-0.03263968229293823|XArbitraryZVertical|0.5762036405136622|0.5285488610946714|-0.2343582773111576|-0.5776693709940632|-0.3405767977237701|0.9134500026702881|0.2227490693330765|0|0|0|-1|-1|3
2021-03-10 21:12:21.227 +0000|291101.4457375417|-0.2751312255859375|1.051177978515625|0.130096435546875|291101.4257745417|-0.9822536174046888|-2.164511969086893|-1.161924570537915|0.06312204152345657|-0.7896926999092102|0.2891646325588226|0.153618186712265|0.1425802111625671|-0.03365445137023926|XArbitraryZVertical|0.5752641033631409|0.5294163894972417|-0.242310872889938|-0.5745215707857683|-0.3295367658138275|0.9175699949264526|0.2224210053682327|0|0|0|-1|-1|3
2021-03-10 21:12:21.247 +0000|291101.4657005417|-0.3347625732421875|1.041458129882812|0.1511688232421875|291101.4457375417|-0.9848387961446327|-2.182371578950301|-1.172453147818779|-0.03912023827433586|-0.8073339462280273|0.3374375402927399|0.05601799488067627|0.1296408176422119|-0.1158079206943512|XArbitraryZVertical|0.5743374687837152|0.5305581883517445|-0.2507686609126801|-0.5707534583740476|-0.3175841569900513|0.9217049479484558|0.2227110415697098|0|0|0|-1|-1|3
2021-03-10 21:12:21.267 +0000|291101.4856635417|-0.4360504150390625|1.075332641601562|0.1739959716796875|291101.4657005417|-0.9995535483043033|-2.211599994525475|-1.180406542406325|-0.1850799173116684|-0.7795009613037109|0.3101628720760345|-0.01266422867774963|0.1163464784622192|-0.07307335734367371|XArbitraryZVertical|0.5749173358153097|0.5321878115101636|-0.258055747966278|-0.565379151120093|-0.3050543367862701|0.9247608184814453|0.227507621049881|0|0|0|-1|-1|3
2021-03-10 21:12:21.287 +0000|291101.5056265417|-0.5041961669921875|1.1112060546875|0.220489501953125|291101.4856635417|-1.02022530601942|-2.245653854468963|-1.186070773436612|-0.2403836846351624|-0.6792506575584412|0.285807728767395|-0.1176230907440186|0.1419156789779663|-0.06836283206939697|XArbitraryZVertical|0.5762025220465955|0.5340724332862991|-0.2642267071962669|-0.559411876157024|-0.2930367290973663|0.9269014596939087|0.2344854176044464|0|0|0|-1|-1|3
2021-03-10 21:12:21.307 +0000|291101.5255895417|-0.515899658203125|1.060546875|0.2421417236328125|291101.5056265417|-1.037062496398315|-2.273676839231371|-1.187776121041208|-0.09771778434514999|-0.5609596371650696|0.2619807720184326|-0.2073782682418823|0.1769826412200928|-0.03868553042411804|XArbitraryZVertical|0.5770289468335369|0.5364965009722129|-0.2682748205565583|-0.5542903385771185|-0.2851449847221375|0.927540123462677|0.2415817975997925|0|0|0|-1|-1|3
2021-03-10 21:12:21.327 +0000|291101.5455525417|-0.4536895751953125|0.95654296875|0.2170867919921875|291101.5255895417|-1.046580906706108|-2.29230953465383|-1.192519637891018|0.1351790428161621|-0.4285728931427002|0.3388947546482086|-0.2423651516437531|0.1580696105957031|0.0005019307136535645|XArbitraryZVertical|0.5771713238359274|0.5374432616418752|-0.2728454934941994|-0.550984168378158|-0.2772882580757141|0.929302453994751|0.243943989276886|0|0|0|-1|-1|3
2021-03-10 21:12:21.347 +0000|291101.5655155417|-0.336395263671875|0.7358551025390625|0.15106201171875|291101.5455525417|-1.051784359321048|-2.305232068010022|-1.201457964983056|0.2495075315237045|-0.3924502432346344|0.4623428881168365|-0.2099226713180542|0.05550140142440796|-0.02115067839622498|XArbitraryZVertical|0.5769437288471146|0.5367504702984268|-0.2785751972428911|-0.5490272553064676|-0.2679368555545807|0.9325664043426514|0.2419302612543106|0|0|0|-1|-1|3
2021-03-10 21:12:21.367 +0000|291101.5854785417|-0.24664306640625|0.654571533203125|0.11566162109375|291101.5655155417|-1.062556219715872|-2.322797119058583|-1.211326373532425|0.1730051934719086|-0.3819145858287811|0.5004789233207703|-0.1113893389701843|-0.134035587310791|-0.07054615020751953|XArbitraryZVertical|0.5774769570578053|0.5354161968623535|-0.2844742066408989|-0.5467397535430534|-0.2569120526313782|0.9360834360122681|0.2403002828359604|0|0|0|-1|-1|3
2021-03-10 21:12:21.387 +0000|291101.6054415|-0.2442779541015625|0.6703948974609375|0.081207275390625|291101.5854785417|-1.080738632668568|-2.348458953466408|-1.219835079208528|-0.0191235113888979|-0.4824721217155457|0.5551980137825012|-0.01236239075660706|-0.2890029549598694|-0.1181232929229736|XArbitraryZVertical|0.5786905520975348|0.5345327662747671|-0.2901856881644505|-0.5433086385155569|-0.2449771016836166|0.9390426874160767|0.2412160634994507|0|0|0|-1|-1|3
2021-03-10 21:12:21.407 +0000|291101.6254055|-0.2359771728515625|0.6085662841796875|0.1632080078125|291101.6054415|-1.103464773230108|-2.379761379167882|-1.227182307263674|0.03862066194415092|-0.4950882494449615|0.493439108133316|-0.01630112528800964|-0.2597194910049438|-0.171271800994873|XArbitraryZVertical|0.5801362642126933|0.5341582964167035|-0.2958986007147711|-0.5390370644035183|-0.2325392216444016|0.9415432810783386|0.2437663376331329|0|0|0|-1|-1|3
2021-03-10 21:12:21.427 +0000|291101.6453685|-0.25555419921875|0.6410064697265625|0.2043609619140625|291101.6254055|-1.123726998151361|-2.408758404567826|-1.234080554752065|0.002311656484380364|-0.4921800792217255|0.467736691236496|-0.0106661319732666|-0.3248873949050903|-0.09220579266548157|XArbitraryZVertical|0.5811096276998065|0.533945292799201|-0.3014862004095972|-0.5350888387476693|-0.2210232615470886|0.9438448548316956|0.245571956038475|0|0|0|-1|-1|3
2021-03-10 21:12:21.447 +0000|291101.6653315|-0.276611328125|0.6109771728515625|0.3384246826171875|291101.6453685|-1.141490389937812|-2.434765402767248|-1.239402067038167|0.002839545020833611|-0.4380388855934143|0.3197470605373383|-0.04208974540233612|-0.3150508403778076|-0.05826537311077118|XArbitraryZVertical|0.5817707508627168|0.5340875280749107|-0.3063145001323663|-0.531474051154337|-0.2112976908683777|0.9455896019935608|0.247413381934166|0|0|0|-1|-1|3
2021-03-10 21:12:21.467 +0000|291101.6852945|-0.337860107421875|0.72906494140625|0.4249420166015625|291101.6653315|-1.154483059928547|-2.454975136309077|-1.24127031410183|-0.1416075676679611|-0.3511805832386017|0.1104674190282822|-0.06728023290634155|-0.3239880800247192|0.05284932255744934|XArbitraryZVertical|0.5820733561780574|0.5350924765571006|-0.3094529225223075|-0.5283045183444703|-0.2051349431276321|0.9461958408355713|0.2502667009830475|0|0|0|-1|-1|3
2021-03-10 21:12:21.487 +0000|291101.7052575|-0.4208526611328125|0.8372802734375|0.5641632080078125|291101.6852945|-1.161681708326604|-2.468102617558761|-1.237930810018201|-0.2045594900846481|-0.2716494798660278|-0.1440573632717133|-0.112025111913681|-0.263042151927948|0.1501575112342834|XArbitraryZVertical|0.5820912068024087|0.5374688471652503|-0.3101277629377474|-0.5254691021041524|-0.2038012593984604|0.9451099038124084|0.2554058730602264|0|0|0|-1|-1|3
2021-03-10 21:12:21.507 +0000|291101.7252205|-0.4608154296875|0.8711395263671875|0.624969482421875|291101.7052575|-1.152792537870051|-2.463625358640583|-1.232615658276752|-0.03084759600460529|-0.1195501759648323|-0.4242435693740845|-0.1960231214761734|-0.1172032952308655|0.2769701182842255|XArbitraryZVertical|0.5805816636401918|0.540485730651469|-0.3091695747631115|-0.5246086637276132|-0.2080906182527542|0.9433598518371582|0.2583997845649719|0|0|0|-1|-1|3
2021-03-10 21:12:21.527 +0000|291101.7451835|-0.4718017578125|1.007049560546875|0.66107177734375|291101.7252205|-1.129991377026679|-2.443228982462426|-1.224802288275632|-0.1484711915254593|-0.005488262046128511|-0.6409811973571777|-0.2355477213859558|-0.09085476398468018|0.3507643938064575|XArbitraryZVertical|0.5777765395927019|0.5440994197031208|-0.3063101590634765|-0.5256465138151604|-0.2180502861738205|0.9407387971878052|0.2597398161888123|0|0|0|-1|-1|3
2021-03-10 21:12:21.547 +0000|291101.7651465|-0.458343505859375|1.023696899414062|0.5880889892578125|291101.7451835|-1.110208662657927|-2.424451742747635|-1.212098450373518|-0.3459456861019135|0.0148165300488472|-0.6909610629081726|-0.2422820925712585|0.03558444976806641|0.3923962414264679|XArbitraryZVertical|0.5755059348898952|0.5487131344303094|-0.3012893783061402|-0.5262429279283974|-0.2307251691818237|0.9363547563552856|0.2645863592624664|0|0|0|-1|-1|3
2021-03-10 21:12:21.567 +0000|291101.7851095|-0.42401123046875|1.009414672851562|0.491241455078125|291101.7651465|-1.097039237815272|-2.411836908741501|-1.196452419404061|-0.5210235714912415|0.01895790547132492|-0.6928049325942993|-0.2205733060836792|0.1100388765335083|0.3462789952754974|XArbitraryZVertical|0.5739864235458211|0.553904529201879|-0.2951713739862901|-0.5259307395366151|-0.2437821179628372|0.9307477474212646|0.2725412845611572|0|0|0|-1|-1|3
2021-03-10 21:12:21.587 +0000|291101.8050725|-0.395263671875|0.95037841796875|0.460723876953125|291101.7851095|-1.091547459593524|-2.406418478572306|-1.178807348562348|-0.6254839897155762|0.01522521767765284|-0.6215168833732605|-0.1800472140312195|0.08538568019866943|0.2260749340057373|XArbitraryZVertical|0.5734100003836484|0.5593554498270991|-0.2883090540146632|-0.5245954576924051|-0.2562320530414581|0.9241510629653931|0.2833550870418549|0|0|0|-1|-1|3
2021-03-10 21:12:21.607 +0000|291101.8250355|-0.365203857421875|0.935302734375|0.4049224853515625|291101.8050725|-1.09249168256057|-2.406763259335374|-1.161993259623352|-0.6436639428138733|0.04502657800912857|-0.4716323018074036|-0.1339358687400818|0.06224590539932251|0.1759852170944214|XArbitraryZVertical|0.573724679511011|0.56418599703669|-0.2817051005879625|-0.5226628291094958|-0.2665157616138458|0.9175972938537598|0.2949316799640656|0|0|0|-1|-1|3
2021-03-10 21:12:21.626 +0000|291101.8449995|-0.341888427734375|0.99267578125|0.390228271484375|291101.8250355|-1.097169531859821|-2.409994549666376|-1.147539096772322|-0.5262482762336731|0.0553244911134243|-0.3514181077480316|-0.09987357258796692|-0.002606749534606934|0.1055493354797363|XArbitraryZVertical|0.574661603044198|0.5679601874976282|-0.2758495944621028|-0.520665337123194|-0.2743940353393555|0.9117559194564819|0.3056294620037079|0|0|0|-1|-1|3
2021-03-10 21:12:21.646 +0000|291101.8649625|-0.3168487548828125|0.9673309326171875|0.4118804931640625|291101.8449995|-1.098306775273784|-2.409382440424345|-1.138540664871953|-0.1659182012081146|0.1154019460082054|-0.2206862717866898|-0.06737291812896729|0.09492182731628418|0.08168387413024902|XArbitraryZVertical|0.5750993981041024|0.5701191854641179|-0.2719089198638061|-0.5198945926640404|-0.2800544500350952|0.9080231189727783|0.3115504086017609|0|0|0|-1|-1|3
2021-03-10 21:12:21.667 +0000|291101.8849255|-0.272308349609375|0.960296630859375|0.446075439453125|291101.8649625|-1.094486389037867|-2.402787781556881|-1.135628927295531|0.02395792864263058|0.2002628743648529|-0.09951360523700714|-0.04093167185783386|0.05671679973602295|0.09487462043762207|XArbitraryZVertical|0.5749081108183983|0.5703557844936562|-0.269883062418485|-0.5209012908827508|-0.283882200717926|0.9067994952201843|0.3116501271724701|0|0|0|-1|-1|3
2021-03-10 21:12:21.686 +0000|291101.9048885|-0.2341766357421875|0.90802001953125|0.43170166015625|291101.8849255|-1.089685355576849|-2.39384401730777|-1.136220662873882|0.1508216559886932|0.2518285512924194|-0.005819508340209723|0.001564264297485352|0.05878692865371704|0.1290693581104279|XArbitraryZVertical|0.574745154161489|0.569228127713966|-0.2687938911150479|-0.5228740852991177|-0.2862932980060577|0.907048761844635|0.3087053000926971|0|0|0|-1|-1|3
2021-03-10 21:12:21.706 +0000|291101.9248515|-0.2154693603515625|0.8716583251953125|0.3909759521484375|291101.9048885|-1.086155442754527|-2.385605240714892|-1.13937410030068|0.1655721217393875|0.2528459429740906|0.113618828356266|0.04696458578109741|0.01850807666778564|0.1359473764896393|XArbitraryZVertical|0.5748575472349877|0.5671556773828207|-0.2685695346478578|-0.5251131137517504|-0.2868633270263672|0.9083719253540039|0.3042535185813904|0|0|0|-1|-1|3
2021-03-10 21:12:21.726 +0000|291101.9448145|-0.2362060546875|0.88287353515625|0.3384246826171875|291101.9248515|-1.088136586078544|-2.382410968336647|-1.143339634026874|0.02504270151257515|0.2523480951786041|0.2346964329481125|0.06469473242759705|-0.04045498371124268|0.09140005707740784|XArbitraryZVertical|0.5758604869312379|0.5645749753035392|-0.268661288131517|-0.5267457768173429|-0.2853521406650543|0.910023033618927|0.3007203936576843|0|0|0|-1|-1|3
2021-03-10 21:12:21.747 +0000|291101.9647775|-0.26434326171875|0.926055908203125|0.3543243408203125|291101.9448145|-1.099514134653547|-2.387364491368774|-1.146617729007667|-0.09324269741773605|0.3059858381748199|0.3348853588104248|0.05349722504615784|-0.02719128131866455|0.03744828701019287|XArbitraryZVertical|0.5784044079477954|0.561627435020596|-0.268356908880664|-0.527264223429348|-0.2818144559860229|0.9113771319389343|0.2999540567398071|0|0|0|-1|-1|3
2021-03-10 21:12:21.766 +0000|291101.9847405|-0.303070068359375|0.907196044921875|0.4052581787109375|291101.9647775|-1.120140110649988|-2.399005661419765|-1.14920406880729|-0.1666157245635986|0.4545771181583405|0.4486187398433685|0.0200563371181488|-0.005990028381347656|0.05066528916358948|XArbitraryZVertical|0.5826116584854945|0.5579446632599561|-0.2672933457331009|-0.5270824251278128|-0.2767091989517212|0.9124385118484497|0.3014771938323975|0|0|0|-1|-1|3
2021-03-10 21:12:21.786 +0000|291102.0047035|-0.3596038818359375|0.98907470703125|0.5535888671875|291101.9847405|-1.146003095859861|-2.412137309053185|-1.152166407753063|-0.09694889932870865|0.6897805333137512|0.5001845359802246|-0.02300655841827393|0.004337191581726074|0.07783755660057068|XArbitraryZVertical|0.5880192816715774|0.5529621732247695|-0.2654534975598515|-0.5272575929959076|-0.2709234654903412|0.9136467576026917|0.303067684173584|0|0|0|-1|-1|3
2021-03-10 21:12:21.806 +0000|291102.0246665|-0.4620361328125|1.074813842773438|0.6915435791015625|291102.0047035|-1.170362254986454|-2.419280107717875|-1.156025279885862|-0.05569903180003166|0.8817304372787476|0.4593592882156372|-0.07578977942466736|0.04063248634338379|0.2119497060775757|XArbitraryZVertical|0.5937139255718396|0.5465141216508336|-0.2626008772879562|-0.5290245061146994|-0.2664191424846649|0.915208637714386|0.3023478090763092|0|0|0|-1|-1|3
2021-03-10 21:12:21.826 +0000|291102.0446295|-0.48779296875|0.9449615478515625|0.665802001953125|291102.0246665|-1.191079241431677|-2.419723371923093|-1.159735658119161|-0.1790160983800888|1.006896734237671|0.3874790370464325|-0.1677844226360321|0.1487473845481873|0.3682675063610077|XArbitraryZVertical|0.5992073204715619|0.5393589254049915|-0.2586436356467214|-0.5321146671796185|-0.2640392780303955|0.9166975021362305|0.2999149262905121|0|0|0|-1|-1|3
2021-03-10 21:12:21.846 +0000|291102.0645925|-0.36981201171875|0.7744598388671875|0.5393829345703125|291102.0446295|-1.216478226673206|-2.421916893522205|-1.158493146859494|-0.6538479328155518|1.104384422302246|0.3088971674442291|-0.2348461747169495|0.08048856258392334|0.3805044889450073|XArbitraryZVertical|0.6057635537444931|0.5326588555574358|-0.2520621050671843|-0.534593153792139|-0.264131486415863|0.9162003397941589|0.3013498783111572|0|0|0|-1|-1|3
2021-03-10 21:12:21.866 +0000|291102.0845565|-0.2253875732421875|0.7725677490234375|0.344451904296875|291102.0645925|-1.259003871178296|-2.438393435165508|-1.147328194965698|-1.29570996761322|1.060448884963989|0.2696299254894257|-0.1439996063709259|-0.106127142906189|0.2622546255588531|XArbitraryZVertical|0.6153271001135415|0.5273469089866706|-0.2415446499628844|-0.5337922185260687|-0.2657294273376465|0.9116693139076233|0.3134444057941437|0|0|0|-1|-1|3
2021-03-10 21:12:21.886 +0000|291102.1045195|-0.1356658935546875|0.825653076171875|0.30255126953125|291102.0845565|-1.309990371264693|-2.466091277582395|-1.128679180561615|-1.385724902153015|0.793501615524292|0.1883441954851151|0.01254287362098694|-0.1502618789672852|0.05967524647712708|XArbitraryZVertical|0.6261768690787668|0.5242613411247441|-0.2296506386997982|-0.5294462229003304|-0.2675325274467468|0.903847873210907|0.3338948488235474|0|0|0|-1|-1|3
2021-03-10 21:12:21.906 +0000|291102.1244825|-0.1528472900390625|0.79168701171875|0.3146209716796875|291102.1045195|-1.351381294024321|-2.490817465361214|-1.110316664412297|-1.150280356407166|0.4757558703422546|0.07393372803926468|0.1294503509998322|-0.07400107383728027|-0.0501171350479126|XArbitraryZVertical|0.6350884794690685|0.5229142945798267|-0.2197754817312407|-0.5243300648539299|-0.269205629825592|0.8958394527435303|0.3535534739494324|0|0|0|-1|-1|3
2021-03-10 21:12:21.926 +0000|291102.1444455|-0.1829681396484375|0.8580474853515625|0.3130950927734375|291102.1244825|-1.378114904809337|-2.507094368369196|-1.094474553921283|-0.8322358727455139|0.3065247237682343|-0.02589983120560646|0.1218771040439606|-0.1062778234481812|-0.0564521849155426|XArbitraryZVertical|0.6411497024657929|0.5230328811026819|-0.2121941708995385|-0.5199397174557954|-0.2717946767807007|0.8886874318122864|0.3692726790904999|0|0|0|-1|-1|3
2021-03-10 21:12:21.946 +0000|291102.1644085|-0.207275390625|0.803314208984375|0.2689056396484375|291102.1444455|-1.39209167750849|-2.51425082934072|-1.084526901986497|-0.3117868304252625|0.2293976992368698|-0.03466518223285675|0.1013931334018707|-0.02865946292877197|-0.06078100204467773|XArbitraryZVertical|0.6446035569481381|0.5231249872464643|-0.2072463049278833|-0.5175669382936131|-0.2743209898471832|0.8840824365615845|0.3783470094203949|0|0|0|-1|-1|3
2021-03-10 21:12:21.966 +0000|291102.1843715|-0.245941162109375|0.76324462890625|0.27130126953125|291102.1644085|-1.394569842193387|-2.512278779373298|-1.082983757468649|0.06605982780456543|0.2044137269258499|0.03009499423205853|0.07663530111312866|-0.04409623146057129|-0.08999788761138916|XArbitraryZVertical|0.6455408122902768|0.5222365298496039|-0.2054075339596858|-0.5180288838161509|-0.2758693099021912|0.8833602070808411|0.3789078593254089|0|0|0|-1|-1|3
2021-03-10 21:12:21.986 +0000|291102.2043345|-0.2880096435546875|0.8701629638671875|0.2930145263671875|291102.1843715|-1.395842390339946|-2.509211261597098|-1.084266189057081|-0.05390499532222748|0.2175709158182144|0.1003115400671959|0.04232105612754822|-0.1500890851020813|-0.11686110496521|XArbitraryZVertical|0.6461156699192425|0.5206797025134052|-0.2045531863598393|-0.5192159837016677|-0.276360422372818|0.8839605450630188|0.3771456182003021|0|0|0|-1|-1|3
2021-03-10 21:12:22.006 +0000|291102.2242975|-0.3041839599609375|0.9630889892578125|0.3260955810546875|291102.2043345|-1.403615340120207|-2.511213251410357|-1.084443331364102|-0.08422879874706268|0.2733120024204254|0.1926354467868805|-0.006073027849197388|-0.02135705947875977|-0.09032505750656128|XArbitraryZVertical|0.6479212440674949|0.518636698496644|-0.2032465826479751|-0.5195238578246123|-0.2755127251148224|0.8840433359146118|0.3775719404220581|0|0|0|-1|-1|3
2021-03-10 21:12:22.026 +0000|291102.2442605|-0.31817626953125|0.96722412109375|0.3847808837890625|291102.2242975|-1.40909023940594|-2.510312723271161|-1.088035121304209|0.2732997238636017|0.3007183074951172|0.2183422148227692|-0.0234476625919342|0.05305004119873047|-0.05958724021911621|XArbitraryZVertical|0.6492215529220505|0.5156454338353591|-0.2028314459482765|-0.5210380454412692|-0.2739766836166382|0.8857164978981018|0.3747576773166656|0|0|0|-1|-1|3
2021-03-10 21:12:22.046 +0000|291102.2642235|-0.37164306640625|1.013153076171875|0.432403564453125|291102.2442605|-1.401967427510864|-2.498084527951605|-1.098599897540665|0.7452223896980286|0.2700055241584778|0.1504344493150711|-0.04491665959358215|0.07134270668029785|0.006396889686584473|XArbitraryZVertical|0.6480307305415871|0.5118521792148442|-0.2045554762585181|-0.5255669530957845|-0.2729087173938751|0.8905714154243469|0.3638729751110077|0|0|0|-1|-1|3
2021-03-10 21:12:22.066 +0000|291102.2841865|-0.39630126953125|0.92822265625|0.4587860107421875|291102.2642235|-1.382862698765773|-2.47605380763663|-1.114332162817088|0.9186585545539856|0.244248241186142|0.1486898064613342|-0.08213675022125244|0.1237913966178894|0.06985685229301453|XArbitraryZVertical|0.6445744755260804|0.5078167300363501|-0.2082035461595593|-0.5322566737834364|-0.2721723020076752|0.8976166248321533|0.3467081785202026|0|0|0|-1|-1|3
2021-03-10 21:12:22.086 +0000|291102.3041505|-0.3897857666015625|1.045455932617188|0.3880157470703125|291102.2841865|-1.365067991472276|-2.454400763519891|-1.128423439935972|0.5534746050834656|0.2692647874355316|0.1496261805295944|-0.1279723346233368|0.02741378545761108|0.133722722530365|XArbitraryZVertical|0.6416332148126569|0.50375404988357|-0.2111449223837912|-0.538476013544523|-0.2715637683868408|0.9037384390830994|0.3309226632118225|0|0|0|-1|-1|3
2021-03-10 21:12:22.106 +0000|291102.3241135|-0.36822509765625|1.072494506835938|0.2576446533203125|291102.3041505|-1.359633330826569|-2.444598068043915|-1.135554408465649|0.122335709631443|0.1974088698625565|0.1557238548994064|-0.1198670566082001|0.1087959408760071|0.0916217565536499|XArbitraryZVertical|0.6409658408814789|0.5008098002839247|-0.212076777317303|-0.5416418220679992|-0.2706511318683624|0.9067680835723877|0.3232953250408173|0|0|0|-1|-1|3
2021-03-10 21:12:22.126 +0000|291102.3440765|-0.2911834716796875|0.9952545166015625|0.16455078125|291102.3241135|-1.365656596989854|-2.446399853624524|-1.136659945514209|-0.1420049518346786|0.1640554964542389|0.1475567221641541|-0.1109300553798676|0.1689839959144592|-0.03356829285621643|XArbitraryZVertical|0.6422280492387232|0.4990483819812663|-0.211427118559202|-0.5420262474940982|-0.2694257795810699|0.9072336554527283|0.3230123221874237|0|0|0|-1|-1|3
2021-03-10 21:12:22.146 +0000|291102.3640395|-0.2235107421875|0.89947509765625|0.1001129150390625|291102.3440765|-1.376456768465034|-2.453456182292048|-1.135288238906216|-0.2711442708969116|0.1114078313112259|0.1276047676801682|-0.04081645607948303|0.1204590201377869|-0.1437220871448517|XArbitraryZVertical|0.6442439267497548|0.4978784034489822|-0.210271703779236|-0.5411586376244899|-0.2679298520088196|0.9066557884216309|0.3258662819862366|0|0|0|-1|-1|3
2021-03-10 21:12:22.165 +0000|291102.3840025|-0.151580810546875|0.8973846435546875|0.0529327392578125|291102.3640395|-1.388920412741394|-2.463115428551895|-1.131902717571418|-0.2834498584270477|0.04730166122317314|0.06521125882863998|0.02288985252380371|0.00522381067276001|-0.2165384590625763|XArbitraryZVertical|0.6465106810275922|0.4974307967735483|-0.2087908395500679|-0.5394376287831906|-0.2666947543621063|0.9052223563194275|0.3308269083499908|0|0|0|-1|-1|3
2021-03-10 21:12:22.185 +0000|291102.4039655|-0.117279052734375|0.8994293212890625|0.0282440185546875|291102.3840025|-1.395792769203076|-2.469240040205368|-1.12961752990775|-0.05056174471974373|-0.03686759620904922|0.01746424287557602|0.1008514761924744|-0.00469738245010376|-0.2715260684490204|XArbitraryZVertical|0.6477068722164878|0.4975056032470503|-0.2080923835399334|-0.5382023218484114|-0.2659516036510468|0.9042489528656006|0.3340720236301422|0|0|0|-1|-1|3
2021-03-10 21:12:22.205 +0000|291102.4239285|-0.1201629638671875|0.9375762939453125|0.0397491455078125|291102.4039655|-1.391984355811392|-2.4674342339037|-1.131165858824272|0.2902020812034607|-0.1345971822738647|-0.04882796108722687|0.142953634262085|-0.01516878604888916|-0.2993547022342682|XArbitraryZVertical|0.646861949527278|0.4978133698448827|-0.2090942061982073|-0.5385455253795877|-0.2656801640987396|0.9049090147018433|0.3324970602989197|0|0|0|-1|-1|3
2021-03-10 21:12:22.225 +0000|291102.4438915|-0.133056640625|0.9608612060546875|0.0251007080078125|291102.4239285|-1.376900405499667|-2.456861179818838|-1.137154069899805|0.5387383699417114|-0.1778062433004379|-0.06737430393695831|0.1489119231700897|0.02636611461639404|-0.2849690616130829|XArbitraryZVertical|0.6438991028562489|0.4981234073131416|-0.2119274062082465|-0.5406975773397991|-0.2657485008239746|0.9074413776397705|0.325465977191925|0|0|0|-1|-1|3
2021-03-10 21:12:22.245 +0000|291102.4638545|-0.1625213623046875|0.9967193603515625|0.0168609619140625|291102.4438915|-1.355768354291417|-2.441832330147987|-1.145259567276649|0.6355466246604919|-0.241459995508194|-0.08295769989490509|0.1401311755180359|0.04036974906921387|-0.2876301109790802|XArbitraryZVertical|0.6398383433657668|0.4985036036787442|-0.2157899883072149|-0.5436319331404039|-0.2658635377883911|0.9108172655105591|0.3157978951931|0|0|0|-1|-1|3
