loggingTime(txt)|accelerometerTimestamp_sinceReboot(s)|accelerometerAccelerationX(G)|accelerometerAccelerationY(G)|accelerometerAccelerationZ(G)|motionTimestamp_sinceReboot(s)|motionYaw(rad)|motionRoll(rad)|motionPitch(rad)|motionRotationRateX(rad/s)|motionRotationRateY(rad/s)|motionRotationRateZ(rad/s)|motionUserAccelerationX(G)|motionUserAccelerationY(G)|motionUserAccelerationZ(G)|motionAttitudeReferenceFrame(txt)|motionQuaternionX(R)|motionQuaternionY(R)|motionQuaternionZ(R)|motionQuaternionW(R)|motionGravityX(G)|motionGravityY(G)|motionGravityZ(G)|motionMagneticFieldX(µT)|motionMagneticFieldY(µT)|motionMagneticFieldZ(µT)|motionHeading(°)|motionMagneticFieldCalibrationAccuracy(Z)|label
2021-03-10 21:06:48.167 +0000|290890.6516940417|-0.035858154296875|0.022491455078125|-0.9915771484375|290890.6317300417|-2.848484873100035|-0.1412743552013821|-0.04395338775158467|-0.005608301609754562|0.2514099478721619|-0.04039985686540604|-0.06779664754867554|0.0268157422542572|-0.007226169109344482|XArbitraryZVertical|-0.07300599145275845|0.0113810727053446|-0.9863484090042739|0.1471648457828802|-0.1406688988208771|0.04393923655152321|-0.9890812039375305|0|0|0|-1|-1|3
2021-03-10 21:06:48.175 +0000|290890.6716580417|-0.15252685546875|0.02093505859375|-0.981201171875|290890.6516940417|-2.848451683429068|-0.1391944950546665|-0.04185293671978495|0.03918307274580002|-0.04614850133657455|0.003551977919414639|0.1423318535089493|-0.06492729485034943|-0.01856529712677002|XArbitraryZVertical|-0.07182898332181176|0.0104964726160191|-0.9864542746889232|0.1471003591191827|-0.1386239528656006|0.04184071719646454|-0.989460825920105|0|0|0|-1|-1|3
2021-03-10 21:06:48.183 +0000|290890.6916210417|-0.1350250244140625|0.007781982421875|-0.978179931640625|290890.6716580417|-2.848368938113949|-0.138440223274552|-0.04205461813311392|0.01690316572785378|0.06365394592285156|0.0009970297105610371|-0.05336196720600128|-0.01874207332730293|0.01789230108261108|XArbitraryZVertical|-0.07147193442003234|0.01064851112671992|-0.9864721199299085|0.1471438017840626|-0.13787642121315|0.04204222187399864|-0.9895567297935486|0|0|0|-1|-1|3
2021-03-10 21:06:48.203 +0000|290890.7115850417|-0.1353759765625|0.0379791259765625|-0.985260009765625|290890.6916210417|-2.848292217400217|-0.1382930610258297|-0.04266475695554033|-0.009503474459052086|-0.00680775148794055|0.001365611329674721|0.02900838851928711|-0.03262681514024734|0.006198763847351074|XArbitraryZVertical|-0.07144377922640685|0.01095767127919192|-0.9864622521347621|0.1472007537976688|-0.1377272307872772|0.04265181347727776|-0.9895514249801636|0|0|0|-1|-1|3
2021-03-10 21:06:48.223 +0000|290890.7315490417|-0.1244659423828125|0.048431396484375|-0.988128662109375|290890.7115850417|-2.848333788038922|-0.1386923836659456|-0.04392616284561158|-0.01479906961321831|0.01044745557010174|0.01297628320753574|-0.002922132611274719|-0.01952851936221123|0.006211698055267334|XArbitraryZVertical|-0.07173147827007581|0.01155219730000445|-0.9864311769091151|0.1472236707079467|-0.1381148248910904|0.04391203820705414|-0.9894422888755798|0|0|0|-1|-1|3
2021-03-10 21:06:48.243 +0000|290890.7515120417|-0.13262939453125|0.067962646484375|-0.9936370849609375|290890.7315490417|-2.848701236521058|-0.1382421351738|-0.04385265092453156|-0.03738575428724289|-0.009670755825936794|-0.01562002953141928|0.01611825823783875|-0.02249157428741455|-0.002237439155578613|XArbitraryZVertical|-0.07150198820377028|0.01156220589263628|-0.9864754226675619|0.1470374023000645|-0.1376697570085526|0.04383859783411026|-0.9895075559616089|0|0|0|-1|-1|3
2021-03-10 21:06:48.263 +0000|290890.7714760417|-0.131011962890625|0.048614501953125|-0.9914703369140625|290890.7515120417|-2.848918326985169|-0.1385192319144875|-0.04385628454867769|-0.003261574078351259|0.005661061964929104|0.001713509089313447|0.002766326069831848|0.02228933945298195|-0.001940071582794189|XArbitraryZVertical|-0.07163767257318639|0.01155140407028519|-0.9864813721611269|0.1469320303025972|-0.1379439234733582|0.04384222626686096|-0.9894692301750183|0|0|0|-1|-1|3
2021-03-10 21:06:48.283 +0000|290890.7914400417|-0.141693115234375|0.0403594970703125|-0.9859466552734375|290890.7914400417|-2.848456856955085|-0.1381359021230669|-0.04242142913648216|0.008101386018097401|0.003709071315824986|0.01525009050965309|-0.002884000539779663|0.004878252744674683|0.001179993152618408|XArbitraryZVertical|-0.0713478175975539|0.01085504286671912|-0.9864837193919596|0.1471107415956038|-0.1375731378793716|0.04240870848298073|-0.9895833134651184|0|0|0|-1|-1|3
2021-03-10 21:06:48.302 +0000|290890.8114040417|-0.14453125|0.034088134765625|-0.979034423828125||||||||||||||||||||||||3
2021-03-10 21:06:48.322 +0000|290890.8313670417|-0.1475830078125|0.0345916748046875|-0.9878692626953125|290890.8114040417|-2.84820910978326|-0.1380530346057148|-0.0421943971300343|-0.003259609919041395|-0.0008127633482217789|0.01090176962316036|-0.003636062145233154|-0.005743913352489471|0.01031041145324707|XArbitraryZVertical|-0.07129189859218729|0.01074027423728679|-0.9864720274446039|0.1472251279712516|-0.137492448091507|0.04218187928199768|-0.9896042346954346|0|0|0|-1|-1|3
2021-03-10 21:06:48.342 +0000|290890.8513310417|-0.1443634033203125|0.0472869873046875|-0.9938201904296875|290890.8313670417|-2.848141350712551|-0.1379446925839999|-0.04292489357326185|-0.0132983960211277|0.006582568399608135|-0.002512040082365274|-0.009820550680160522|-0.01044103503227234|0.003672182559967041|XArbitraryZVertical|-0.07129156051428562|0.01110629995288029|-0.9864594683019615|0.1472816928925482|-0.1373809576034546|0.04291171208024025|-0.9895883202552795|0|0|0|-1|-1|3
2021-03-10 21:06:48.362 +0000|290890.8712950417|-0.1388092041015625|0.04833984375|-0.994842529296875|290890.8513310417|-2.848306884432551|-0.137678569909882|-0.0435845242798459|-0.01208079792559147|0.01357043720781803|-0.01270768605172634|-0.008455127477645874|-0.0001442357897758484|-0.00436091423034668|XArbitraryZVertical|-0.07120695814150485|0.01145728426062675|-0.9864708104808655|0.1472199783429007|-0.1371136903762817|0.04357072710990906|-0.9895966053009033|0|0|0|-1|-1|3
2021-03-10 21:06:48.382 +0000|290890.8912580417|-0.1429595947265625|0.0366058349609375|-0.987945556640625|290890.8712950417|-2.848519957866225|-0.1374049017841781|-0.04384701755768288|-0.007073789369314909|0.01026039384305477|-0.01172284875065088|-0.004485592246055603|0.006215840578079224|-0.002091765403747559|XArbitraryZVertical|-0.07108967412070409|0.01161453380377758|-0.9864920264661482|0.1471217826584225|-0.1368412971496582|0.04383296892046928|-0.9896227121353149|0|0|0|-1|-1|3
2021-03-10 21:06:48.402 +0000|290890.9112220417|-0.1414794921875|0.03082275390625|-0.98614501953125|290890.8912580417|-2.848870853901749|-0.1370503007040867|-0.04388360928959777|-0.01675149984657764|0.0269921813160181|-0.01599287241697311|-0.008590385317802429|0.002120435237884521|0.002273380756378174|XArbitraryZVertical|-0.07091535808267133|0.01167111745789285|-0.9865298346303777|0.1469478198586679|-0.136490136384964|0.04386952519416809|-0.9896696209907532|0|0|0|-1|-1|3
2021-03-10 21:06:48.422 +0000|290890.9311860417|-0.1442718505859375|0.03857421875|-0.9827117919921875|290890.9112220417|-2.849401648749307|-0.1366878818106668|-0.04416159585050167|-0.04511987417936325|0.02129632048308849|-0.02794034406542778|-0.002282664179801941|-0.01138664036989212|0.005057215690612793|XArbitraryZVertical|-0.07075345271780326|0.01185370533383698|-0.9865772887582008|0.1466928409815691|-0.1361297965049744|0.04414724186062813|-0.9897068738937378|0|0|0|-1|-1|3
2021-03-10 21:06:48.442 +0000|290890.9511490417|-0.146575927734375|0.01513671875|-0.976226806640625|290890.9311860417|-2.85014138308504|-0.1362536669002779|-0.04501458988042337|-0.05401554703712463|0.037760891020298|-0.029395941644907|-0.01176604628562927|-0.008210472762584686|0.006711244583129883|XArbitraryZVertical|-0.07059599239960472|0.01233263096568395|-0.9866331708667808|0.1463526671384002|-0.1356948614120483|0.0449993908405304|-0.9897282123565674|0|0|0|-1|-1|3
2021-03-10 21:06:48.462 +0000|290890.9711130417|-0.1508941650390625|0.0355682373046875|-0.9782257080078125|290890.9511490417|-2.850625216438672|-0.1354260742156832|-0.04600291814894101|-0.06892059743404388|0.04842093586921692|-0.01168183609843254|-0.02481353282928467|0.002551492303609848|0.02278512716293335|XArbitraryZVertical|-0.07025542429380557|0.01289797615716859|-0.9866817405054231|0.1461403100927426|-0.1348696649074554|0.04598669335246086|-0.9897956252098083|0|0|0|-1|-1|3
2021-03-10 21:06:48.482 +0000|290890.9910770417|-0.1584625244140625|0.0340423583984375|-0.96087646484375|290890.9711130417|-2.851285651789359|-0.1348182804343742|-0.04773098422601141|-0.1053586974740028|0.0321916863322258|-0.01572637818753719|-0.01404297351837158|0.001939207315444946|0.01624071598052979|XArbitraryZVertical|-0.07007460870062054|0.01381845738277176|-0.9867227764039409|0.1458651683780189|-0.1342571675777435|0.04771286249160767|-0.9897971749305725|0|0|0|-1|-1|3
2021-03-10 21:06:48.502 +0000|290891.0110410417|-0.1739654541015625|0.04058837890625|-0.946990966796875|290890.9910770417|-2.852096221261073|-0.1341546213159219|-0.0498706781256506|-0.1501470655202866|0.04808740317821503|-0.02377098985016346|-0.02245005965232849|-0.01240496337413788|0.02350461483001709|XArbitraryZVertical|-0.06989374207374588|0.01495133737616105|-0.9867690047087316|0.1455278783935024|-0.1335862874984741|0.04985000938177109|-0.9897826313972473|0|0|0|-1|-1|3
2021-03-10 21:06:48.522 +0000|290891.0310040417|-0.128631591796875|0.0213775634765625|-0.9561920166015625|290891.0110410417|-2.853482182898901|-0.1332277301840157|-0.05268523974051882|-0.2916394770145416|0.07497254759073257|-0.1411490142345428|-0.02190658450126648|-0.02083106711506844|0.03207570314407349|XArbitraryZVertical|-0.06962513729865878|0.01645640101032684|-0.9868527405361818|0.1449245320035061|-0.1326496452093124|0.05266087129712105|-0.989763081073761|0|0|0|-1|-1|3
2021-03-10 21:06:48.542 +0000|290891.0509680417|-0.186431884765625|0.016998291015625|-0.9224700927734375|290891.0310040417|-2.856159427485835|-0.1303960964350477|-0.0577041659891649|-0.3215294480323792|0.1240618377923965|-0.1126781329512596|-0.03100189566612244|-0.0600677989423275|0.0363079309463501|XArbitraryZVertical|-0.06855706656613161|0.01923125623597997|-0.9870517959731597|0.1437317601727234|-0.1298104673624039|0.05767214670777321|-0.9898601770401001|0|0|0|-1|-1|3
2021-03-10 21:06:48.562 +0000|290891.0709320417|-0.1531829833984375|0.107696533203125|-0.93182373046875|290891.0509680417|-2.859412512869339|-0.1286119837009741|-0.06379731428831353|-0.3752670288085938|0.1236055865883827|-0.1531727463006973|-0.04654847085475922|-0.06175516545772552|0.0631791353225708|XArbitraryZVertical|-0.06806640176133265|0.02247903161258395|-0.9872260798825138|0.1422895378397805|-0.1279967874288559|0.06375404447317123|-0.9897233247756958|0|0|0|-1|-1|3
2021-03-10 21:06:48.593 +0000|290891.0908950417|-0.196075439453125|0.15911865234375|-0.9039764404296875|290891.0709320417|-2.864179104783554|-0.1274393817732657|-0.06804673614415109|-0.1480133682489395|0.02979414910078049|-0.259615033864975|-0.02575676143169403|0.003889888525009155|0.05384987592697144|XArbitraryZVertical|-0.06772220432290028|0.02482273595180498|-0.9875142918190868|0.140047285818377|-0.1268005818128586|0.06799423694610596|-0.9895950555801392|0|0|0|-1|-1|3
2021-03-10 21:06:48.602 +0000|290891.1108590417|-0.1571197509765625|0.0502471923828125|-0.916015625|290891.0908950417|-2.870324285115253|-0.1267915312277176|-0.06594146717617481|0.161151796579361|0.1189954578876495|-0.3607465326786041|-0.05376960337162018|0.09572737663984299|0.07876032590866089|XArbitraryZVertical|-0.06718584254803039|0.02403449703035366|-0.988005551514368|0.1369429574067407|-0.1261772662401199|0.06589368730783463|-0.9898167848587036|0|0|0|-1|-1|3
2021-03-10 21:06:48.622 +0000|290891.1308230417|-0.1519622802734375|0.0136566162109375|-0.9212646484375|290891.1108590417|-2.8770888101277|-0.1248003928892539|-0.05980134702594222|0.1269972622394562|0.1717643886804581|-0.3398043215274811|-0.04366877675056458|0.02400502189993858|0.08076566457748413|XArbitraryZVertical|-0.06572215936507875|0.02135797293859465|-0.9886501760068043|0.133399317301961|-0.1242541745305061|0.05976571142673492|-0.9904488921165466|0|0|0|-1|-1|3
2021-03-10 21:06:48.642 +0000|290891.1507860417|-0.1574554443359375|-0.0068359375|-0.9285430908203125|290891.1308230417|-2.883312385362554|-0.1219794826109329|-0.05666817063564414|-0.0181451141834259|0.181475818157196|-0.3093090951442719|-0.03431030362844467|-0.05189238488674164|0.06316578388214111|XArbitraryZVertical|-0.06406175907928784|0.0201958193920627|-0.9892095597623706|0.1302028772693867|-0.1214819028973579|0.05663784593343735|-0.9909764528274536|0|0|0|-1|-1|3
2021-03-10 21:06:48.662 +0000|290891.1707500417|-0.1603851318359375|-0.00714111328125|-0.9346466064453125|290891.1507860417|-2.889443197505978|-0.119783648395442|-0.05853704582207708|-0.2430797666311264|0.1949928998947144|-0.2725292146205902|-0.02833602577447891|-0.0531172901391983|0.06248408555984497|XArbitraryZVertical|-0.06302865005186262|0.02145688798028147|-0.9896399982703872|0.1271995513226644|-0.1192927360534668|0.05850362032651901|-0.991133987903595|0|0|0|-1|-1|3
2021-03-10 21:06:48.682 +0000|290891.1907140417|-0.143310546875|0.012542724609375|-0.957305908203125|290891.1707500417|-2.89601461024959|-0.1163990574217478|-0.06685237349285673|-0.4002424776554108|0.256207287311554|-0.3134260475635529|-0.04844490438699722|-0.08953820168972015|0.05467426776885986|XArbitraryZVertical|-0.06178286014058378|0.02599186751966858|-0.9899989460013745|0.1241343079433949|-0.1158769652247429|0.06680259108543396|-0.9910145998001099|0|0|0|-1|-1|3
2021-03-10 21:06:48.702 +0000|290891.2106770417|-0.1251220703125|0.0784454345703125|-0.9543914794921875|290891.1907140417|-2.90384897256817|-0.1129307055088406|-0.07707993124856613|-0.4609803259372711|0.2387320697307587|-0.3746186792850494|-0.02932160347700119|-0.07654589414596558|0.03030693531036377|XArbitraryZVertical|-0.06055760259954373|0.03150972955386777|-0.9903664966953035|0.1204742783491604|-0.1123562157154083|0.07700362801551819|-0.9906798005104065|0|0|0|-1|-1|3
2021-03-10 21:06:48.722 +0000|290891.2306410417|-0.1376495361328125|0.0328826904296875|-0.9706878662109375|290891.2106770417|-2.912683546417185|-0.108952356523734|-0.0835208752570091|-0.4658645689487457|0.2709585726261139|-0.4156861305236816|-0.01885460317134857|-0.008213259279727936|0.04538446664810181|XArbitraryZVertical|-0.05880661607518467|0.03520068298369133|-0.9908589509634667|0.1161942578221258|-0.1083578914403915|0.08342380821704865|-0.9906054139137268|0|0|0|-1|-1|3
2021-03-10 21:06:48.742 +0000|290891.2506050417|-0.108489990234375|0.033966064453125|-1.001617431640625|290891.2306410417|-2.921688691357562|-0.1040140696112561|-0.0911192225216851|-0.5979337096214294|0.3331863582134247|-0.3759326040744781|-0.02969123423099518|-0.05098465830087662|0.01911008358001709|XArbitraryZVertical|-0.0566068608577683|0.03950934865340298|-0.9913277538821272|0.111821760590015|-0.1033958941698074|0.09099318832159042|-0.9904693365097046|0|0|0|-1|-1|3
2021-03-10 21:06:48.762 +0000|290891.2705690417|-0.0906829833984375|0.060791015625|-0.9748687744140625|290891.2506050417|-2.929969566357888|-0.09838481641104997|-0.1015346587327575|-0.7664509415626526|0.321524977684021|-0.3186764121055603|-0.01543886214494705|-0.07879255712032318|-0.006985723972320557|XArbitraryZVertical|-0.05418751954396724|0.04521403454083069|-0.9916611621964293|0.1078318986897876|-0.09772028774023056|0.1013602912425995|-0.9900388121604919|0|0|0|-1|-1|3
2021-03-10 21:06:48.782 +0000|290891.2905320417|-0.0748291015625|0.2453765869140625|-0.961669921875|290891.2705690417|-2.937292593633765|-0.09315083288790227|-0.1159680566319193|-0.9858580827713013|0.2980125248432159|-0.2431093901395798|-0.003845743834972382|-0.05047699064016342|0.02279043197631836|XArbitraryZVertical|-0.05214109316829456|0.05284721944731328|-0.9917633031795657|0.1043747875123019|-0.09239140897989273|0.1157082989811897|-0.9889769554138184|0|0|0|-1|-1|3
2021-03-10 21:06:48.802 +0000|290891.3104960417|-0.0732269287109375|0.251129150390625|-1.017257690429688|290891.2905320417|-2.943852536529326|-0.08764697438624794|-0.1325508455183969|-0.8567043542861938|0.3303491473197937|-0.2508400082588196|-0.00506041944026947|0.03771305084228516|0.0261957049369812|XArbitraryZVertical|-0.05003072077451879|0.06152531501123451|-0.9916919400572655|0.1012849821874596|-0.08676694333553314|0.1321630328893661|-0.9874231219291687|0|0|0|-1|-1|3
2021-03-10 21:06:48.822 +0000|290891.3304600417|-0.041290283203125|0.1868743896484375|-1.068954467773438|290891.3104960417|-2.950067303633895|-0.08176783848671555|-0.1465918049184104|-0.7641178965568542|0.3614861071109772|-0.2481640726327896|0.01090025901794434|0.145558625459671|-0.01038378477096558|XArbitraryZVertical|-0.04757218916025649|0.06893626505912574|-0.9916298768584936|0.09825936596874169|-0.08080074191093445|0.146067351102829|-0.9859693646430969|0|0|0|-1|-1|3
2021-03-10 21:06:48.842 +0000|290891.350423375|-0.0692901611328125|0.168670654296875|-1.079391479492188|290891.3304600417|-2.956072170295118|-0.0760917671027649|-0.1579921608459089|-0.7118754386901855|0.3016003668308258|-0.2465860545635223|0.02610614150762558|0.02399973571300507|-0.07868212461471558|XArbitraryZVertical|-0.04505936311713231|0.07500556959812418|-0.9915993933471704|0.09526031880282521|-0.07507156580686569|0.1573356986045837|-0.9846876263618469|0|0|0|-1|-1|3
2021-03-10 21:06:48.862 +0000|290891.370387375|-0.0614166259765625|0.2313690185546875|-1.0457763671875|290891.350423375|-2.961690486956444|-0.07153676334984642|-0.1698766710688417|-0.7529939413070679|0.2648316323757172|-0.2232808172702789|0.01324174553155899|0.006171122193336487|-0.09354484081268311|XArbitraryZVertical|-0.04310372820723421|0.08123840723557969|-0.991459416004328|0.09247029672997403|-0.0704469159245491|0.1690607964992523|-0.9830847978591919|0|0|0|-1|-1|3
2021-03-10 21:06:48.882 +0000|290891.390351375|-0.0260467529296875|0.3835296630859375|-1.02239990234375|290891.370387375|-2.967419848126197|-0.06736764055804777|-0.182998491004264|-0.6966215372085571|0.2567302584648132|-0.2428692579269409|0.004547193646430969|0.02715814113616943|-0.07910865545272827|XArbitraryZVertical|-0.04135214688407102|0.0880568389794384|-0.9912127079770221|0.08962890155119507|-0.06619267165660858|0.1819788068532944|-0.9810720086097717|0|0|0|-1|-1|3
2021-03-10 21:06:48.902 +0000|290891.410314375|-0.076080322265625|0.3583831787109375|-1.0272216796875|290891.410314375|-2.980445354434059|-0.05950451214174455|-0.1987755749741553|0.01981353387236595|0.2880192995071411|-0.3400795161724091|0.0004981346428394318|0.1712594628334045|-0.05353039503097534|XArbitraryZVertical|-0.03748770731848383|0.09647607766264414|-0.991160246760267|0.08299598302768074|-0.05829839780926704|0.1974691599607468|-0.9785740971565247|0|0|0|-1|-1|3
2021-03-10 21:06:48.922 +0000|290891.430278375|-0.0256195068359375|0.2584991455078125|-1.043655395507812||||||||||||||||||||||||3
2021-03-10 21:06:48.942 +0000|290891.450242375|-0.0540313720703125|0.197662353515625|-1.031951904296875|290891.430278375|-2.986572065488179|-0.05555705781621445|-0.194955597019943|0.2618151009082794|0.2174595445394516|-0.2848853170871735|0.02118191868066788|0.06914016604423523|-0.06443321704864502|XArbitraryZVertical|-0.03509322190366274|0.09485338118603989|-0.9916724956302309|0.07973042297488842|-0.05447656661272049|0.1937229782342911|-0.97954261302948|0|0|0|-1|-1|3
2021-03-10 21:06:48.962 +0000|290891.470206375|-0.072906494140625|0.1694488525390625|-0.9831695556640625|290891.450242375|-2.991688028837443|-0.05311071520014915|-0.1890615584175638|0.2696608603000641|0.1583723127841949|-0.2593007683753967|0.01010188832879066|0.01854464411735535|-0.05480259656906128|XArbitraryZVertical|-0.03342511168489763|0.09211244571787698|-0.9922025252163775|0.07702077258936396|-0.05213981866836548|0.1879372596740723|-0.9807960987091064|0|0|0|-1|-1|3
2021-03-10 21:06:48.982 +0000|290891.490169375|-0.05963134765625|0.1428070068359375|-0.9640045166015625|290891.470206375|-2.996197596510714|-0.05069681723005586|-0.1835164098418556|0.2770800590515137|0.200365737080574|-0.231496661901474|-0.01768068224191666|-0.02155362069606781|-0.02527254819869995|XArbitraryZVertical|-0.03182563747924571|0.08952490744960716|-0.9926753301630279|0.07462101837060309|-0.04982417076826096|0.1824880540370941|-0.9819448590278625|0|0|0|-1|-1|3
2021-03-10 21:06:49.001 +0000|290891.510133375|-0.089324951171875|0.1486663818359375|-0.96417236328125|290891.490169375|-3.000762269492268|-0.04701915651791772|-0.178622869860886|0.192407637834549|0.2303445041179657|-0.2433374226093292|-0.01468957215547562|-0.01858639717102051|0.0200347900390625|XArbitraryZVertical|-0.02962929941723147|0.08729980635544377|-0.9931241371371243|0.07214874558353634|-0.046254001557827|0.1776745170354843|-0.983001708984375|0|0|0|-1|-1|3
2021-03-10 21:06:49.021 +0000|290891.530097375|-0.09552001953125|0.1187896728515625|-0.9378814697265625|290891.510133375|-3.006517995106021|-0.04314610550450463|-0.1765657814048486|0.2122544646263123|0.2912831604480743|-0.3284637033939362|-0.04016418382525444|-0.04176919162273407|0.02011185884475708|XArbitraryZVertical|-0.02738712296952843|0.08649668387634241|-0.9934751332997176|0.0691051220543934|-0.04246212169528008|0.1756497919559479|-0.9835365414619446|0|0|0|-1|-1|3
2021-03-10 21:06:49.041 +0000|290891.550060375|-0.0730133056640625|0.08819580078125|-0.9626617431640625|290891.530097375|-3.013858181389809|-0.03739207729267818|-0.1729776973877321|0.1705827414989471|0.4147154092788696|-0.4094404876232147|-0.0620514415204525|-0.03606900572776794|0.04270714521408081|XArbitraryZVertical|-0.02409930391619482|0.08500115603508721|-0.9939541609615682|0.06518575036615737|-0.03682547807693481|0.1721163690090179|-0.9843880534172058|0|0|0|-1|-1|3
2021-03-10 21:06:49.061 +0000|290891.570024375|-0.1194610595703125|0.101531982421875|-0.9572296142578125|290891.550060375|-3.023064846771518|-0.03174081090005586|-0.1706428916613607|0.07218088954687119|0.3501266837120056|-0.4980496168136597|-0.03769513964653015|-0.07934661209583282|0.03185445070266724|XArbitraryZVertical|-0.02083100882305607|0.08412111061852819|-0.9944077657068604|0.06035634166033937|-0.03127454966306686|0.1698159426450729|-0.9849793910980225|0|0|0|-1|-1|3
2021-03-10 21:06:49.093 +0000|290891.589988375|-0.08392333984375|0.0908355712890625|-0.929931640625|290891.570024375|-3.034881952924437|-0.02650864996106117|-0.168990668719373|0.06245089322328568|0.4291826784610748|-0.6346514821052551|-0.09096793830394745|-0.05530296266078949|0.0262717604637146|XArbitraryZVertical|-0.01768824153489848|0.08356300801738617|-0.9948674484885887|0.05425209655142638|-0.02612797543406487|0.1681874841451645|-0.9854087233543396|0|0|0|-1|-1|3
2021-03-10 21:06:49.102 +0000|290891.609951375|-0.1184844970703125|0.1183319091796875|-0.9527130126953125|290891.589988375|-3.048471969219995|-0.02027324506693135|-0.166294355316224|0.0838778018951416|0.4509282112121582|-0.7220646142959595|-0.07810651510953903|-0.08555766940116882|0.05419379472732544|XArbitraryZVertical|-0.01395578902115445|0.0824869792630491|-0.995374966604488|0.04722127947024196|-0.01999220438301563|0.1655289679765701|-0.9860022664070129|0|0|0|-1|-1|3
2021-03-10 21:06:49.122 +0000|290891.629915375|-0.1086883544921875|0.0923004150390625|-0.96124267578125|290891.609951375|-3.065387911066507|-0.01561512670510258|-0.1639596047453099|0.0913342759013176|0.4682406485080719|-0.9059346318244934|-0.09134536981582642|-0.04674038290977478|0.03767693042755127|XArbitraryZVertical|-0.0108948922331592|0.08152966116435131|-0.995863500614965|0.03860294091169947|-0.0154050812125206|0.1632259786128998|-0.9864684343338013|0|0|0|-1|-1|3
2021-03-10 21:06:49.141 +0000|290891.649879375|-0.089111328125|0.024688720703125|-0.941864013671875|290891.629915375|-3.085231014206399|-0.009649828580561357|-0.1612060006535159|-0.03594245389103889|0.4860447645187378|-1.040905952453613|-0.1082732528448105|-0.05829006433486938|0.02550166845321655|XArbitraryZVertical|-0.00707599417251608|0.08034732849586546|-0.9963351113066663|0.0284736141177761|-0.009524565190076828|0.1605086922645569|-0.9869884848594666|0|0|0|-1|-1|3
2021-03-10 21:06:49.161 +0000|290891.669843375|-0.1178436279296875|0.066680908203125|-0.91778564453125|290891.649879375|-3.107757172562437|-0.00562556830057365|-0.1614154873866245|-0.1618151813745499|0.3883908689022064|-1.105304002761841|-0.07611259818077087|-0.1159614324569702|0.03886502981185913|XArbitraryZVertical|-0.004167063738475359|0.08056086942923754|-0.9965944845135841|0.01708853487527839|-0.005552411079406738|0.1607154607772827|-0.9869851469993591|0|0|0|-1|-1|3
2021-03-10 21:06:49.181 +0000|290891.689806375|-0.0706329345703125|0.140899658203125|-0.8662261962890625|290891.669843375|-3.130332711125075|-0.001477735562916517|-0.1630092554390583|-0.274418979883194|0.4953377842903137|-1.133364200592041|-0.1190099567174911|-0.1149708032608032|0.06767493486404419|XArbitraryZVertical|-0.001194761537034118|0.0814089596681727|-0.9966639332532453|0.005671404035339112|-0.001458145212382078|0.1622882932424545|-0.9867423176765442|0|0|0|-1|-1|3
2021-03-10 21:06:49.201 +0000|290891.709770375|-0.074493408203125|0.1274261474609375|-0.8342437744140625|290891.689806375|3.129190284020384|0.002112136599933913|-0.1678299086505849|-0.3519885241985321|0.4059587121009827|-1.176218867301941|-0.07370717823505402|-0.04822297394275665|0.1010139584541321|XArbitraryZVertical|0.001572089794275332|0.08380832032449735|-0.9964609453900493|-0.006267835346199291|0.002082458697259426|0.167043149471283|-0.9859473705291748|0|0|0|-1|-1|3
2021-03-10 21:06:49.221 +0000|290891.729734375|-0.033721923828125|0.1092529296875|-0.8215484619140625|290891.709770375|3.103470194996331|0.004501786245004026|-0.1742952377061664|-0.3269413411617279|0.3880769610404968|-1.309653639793396|-0.0869225412607193|-0.04067790508270264|0.1407228112220764|XArbitraryZVertical|0.003900876042251162|0.08697857270137309|-0.9960179007140932|-0.01918357542434351|0.004433564841747284|0.1734140962362289|-0.9848390221595764|0|0|0|-1|-1|3
2021-03-10 21:06:49.241 +0000|290891.749697375|-0.0056304931640625|0.0860137939453125|-0.644683837890625|290891.729734375|3.075398173060777|0.006898030607957132|-0.1811064327986402|-0.3184617757797241|0.3296461701393127|-1.489866971969604|-0.05587264895439148|-0.04689353704452515|0.1631870269775391|XArbitraryZVertical|0.006425399330945429|0.09026578306407214|-0.9953412303087796|-0.03326714723631669|0.006785159464925528|0.1801180243492126|-0.9836215972900391|0|0|0|-1|-1|3
2021-03-10 21:06:49.261 +0000|290891.769661375|0.07525634765625|0.1553192138671875|-0.4365692138671875|290891.749697375|3.04305089262808|0.007604909539363242|-0.1874056383925264|-0.2815203964710236|0.3456791937351227|-1.709992527961731|-0.009546838700771332|-0.1017616540193558|0.2764383554458618|XArbitraryZVertical|0.00838933930663413|0.09326508253394263|-0.9943801378676992|-0.04938987949036575|0.007471682503819466|0.1863105893135071|-0.982462465763092|0|0|0|-1|-1|3
2021-03-10 21:06:49.281 +0000|290891.789625375|0.0661773681640625|0.05828857421875|-0.5092926025390625|290891.769661375|3.006232796846021|0.006914878116056663|-0.1898997310046595|0.07483953982591629|0.2037214785814285|-1.897514939308167|0.03504912182688713|-0.0655762255191803|0.5174306035041809|XArbitraryZVertical|0.009845591567026694|0.09435687711574044|-0.9931884197953749|-0.06765028192174685|0.006790516432374716|0.1887604296207428|-0.9819996953010559|0|0|0|-1|-1|3
2021-03-10 21:06:49.301 +0000|290891.809588375|0.0793609619140625|-0.216400146484375|-0.5972137451171875|290891.789625375|2.966188224049052|0.0008686716831467887|-0.1844949289872834|0.4482908248901367|-0.05240176245570183|-2.028050422668457|0.08009397983551025|-0.05910620093345642|0.5041163563728333|XArbitraryZVertical|0.008499311292398698|0.09172475722533888|-0.9919176108591243|-0.08725726951969051|0.0008539293776266277|0.1834500581026077|-0.9830286502838135|0|0|0|-1|-1|3
2021-03-10 21:06:49.321 +0000|290891.829552375|0.1229248046875|-0.176513671875|-0.4531707763671875|290891.809588375|2.925445418288906|-0.01126212249497082|-0.1789871671177351|-0.08172700554132462|-0.426890641450882|-2.014660120010376|0.0775340348482132|-0.3430110514163971|0.3816519379615784|XArbitraryZVertical|0.004064271787935076|0.08945627039092481|-0.9902258891901342|-0.1069297021115397|-0.01108197029680014|0.1780330091714859|-0.9839621186256409|0|0|0|-1|-1|3
2021-03-10 21:06:49.341 +0000|290891.849516375|0.0562744140625|-0.044952392578125|-0.2124481201171875|290891.829552375|2.883021472992291|-0.03294332381857132|-0.1894989195734084|-1.058885455131531|-0.99172443151474|-2.119798183441162|0.155333623290062|-0.394589364528656|0.4933456778526306|XArbitraryZVertical|-0.004064475008739455|0.09591945857445348|-0.9872732704120218|-0.1267847553665952|-0.03234774619340897|0.1883668154478073|-0.9815658926963806|0|0|0|-1|-1|3
2021-03-10 21:06:49.361 +0000|290891.869480375|0.05523681640625|0.3300933837890625|-0.193084716796875|290891.849516375|2.837788054985247|-0.06674231532831421|-0.2176329833022889|-1.975748658180237|-1.413610577583313|-2.095488309860229|0.1277874708175659|-0.2932963967323303|0.6302127242088318|XArbitraryZVertical|-0.01636134327217233|0.1123104383165947|-0.982639620044958|-0.1467582598117588|-0.06511957943439484|0.2159190475940704|-0.974237322807312|0|0|0|-1|-1|3
2021-03-10 21:06:49.381 +0000|290891.889443375|-0.4557647705078125|1.78143310546875|-2.52960205078125|290891.869480375|2.801080369395842|-0.1004077062126266|-0.2593223693241294|-2.499864101409912|-0.9057759046554565|-1.091068983078003|0.1738833636045456|-0.07087874412536621|0.8394423127174377|XArbitraryZVertical|-0.02716202892670807|0.1356994843631309|-0.9771366262047598|-0.161406116892197|-0.09688747674226761|0.2564256489276886|-0.9616957306861877|0|0|0|-1|-1|3
2021-03-10 21:06:49.401 +0000|290891.909407375|-0.64324951171875|2.597152709960938|-2.739608764648438|290891.889443375|2.782845955354905|-0.1100113580616569|-0.313165966535932|-2.798803091049194|0.345231294631958|-0.176549881696701|-0.1209835484623909|0.8488339781761169|-0.7991238236427307|XArbitraryZVertical|-0.02565370336588572|0.162898603722206|-0.9719775705599383|-0.1675278476772145|-0.1044497564435005|0.3080721497535706|-0.9456118941307068|0|0|0|-1|-1|3
2021-03-10 21:06:49.421 +0000|290891.929371375|0.3856658935546875|1.029052734375|-1.990982055664062|290891.909407375|2.783014257240459|-0.08093160241354104|-0.3488076434561763|-0.9453527331352234|2.261689424514771|0.33355712890625|-0.7382645010948181|2.409717798233032|-1.744661092758179|XArbitraryZVertical|-0.008283722950423338|0.1777046865101141|-0.9695026751049169|-0.1685740305950656|-0.0759749710559845|0.341777503490448|-0.9367048740386963|0|0|0|-1|-1|3
2021-03-10 21:06:49.441 +0000|290891.949334375|0.162139892578125|0.656341552734375|-1.220550537109375|290891.929371375|2.784491642564548|-0.04057723351377764|-0.3790288320893892|-2.447128057479858|1.38727343082428|0.1623143702745438|0.275037407875061|0.9047771692276001|-1.275277256965637|XArbitraryZVertical|0.01384313697369802|0.1888875686789367|-0.9669624984103351|-0.1706265961639595|-0.03768689557909966|0.3700183928012848|-0.9282597303390503|0|0|0|-1|-1|3
2021-03-10 21:06:49.461 +0000|290891.969298375|0.2310028076171875|0.4765625|-0.8486785888671875|290891.949334375|2.788507561635487|-0.01876732116628375|-0.4375907990157768|-3.01307201385498|0.7707560658454895|0.3178178668022156|0.215255469083786|0.2953729629516602|-0.4643183350563049|XArbitraryZVertical|0.02910138799186597|0.2152794746746478|-0.9613024257473779|-0.1694273141594131|-0.01699797622859478|0.4237585067749023|-0.9056156873703003|0|0|0|-1|-1|3
2021-03-10 21:06:49.481 +0000|290891.989262375|0.1116943359375|0.2911376953125|-0.715911865234375|290891.969298375|2.793901848535793|-0.005425865138913253|-0.4890048498021465|-2.054312944412231|0.2727760076522827|0.2536470293998718|0.2230211794376373|0.05443760752677917|-0.01993739604949951|XArbitraryZVertical|0.03927900830173414|0.2388791804395659|-0.955743274258981|-0.1671791371250523|-0.004789934493601322|0.4697476029396057|-0.8827877640724182|0|0|0|-1|-1|3
2021-03-10 21:06:49.501 +0000|290892.009225375|0.06182861328125|0.315948486328125|-0.6497955322265625|290891.989262375|2.799864179155861|-0.001761202882192148|-0.5218570890307863|-1.274903297424316|-0.1378245651721954|0.2807628214359283|0.1499490588903427|-0.1602340638637543|0.1298178434371948|XArbitraryZVertical|0.04302658652763983|0.2543657299231923|-0.9521201589467554|-0.1640546033396598|-0.001526777050457895|0.4984908998012543|-0.8668935894966125|0|0|0|-1|-1|3
2021-03-10 21:06:49.521 +0000|290892.029189375|-0.034820556640625|0.2109222412109375|-0.621490478515625|290892.009225375|2.80614674393961|-0.003453698546330572|-0.5412297974007925|-0.6435179710388184|-0.2594687044620514|0.2593178749084473|0.08145132660865784|-0.2178576588630676|0.1872097849845886|XArbitraryZVertical|0.04298573313102719|0.2638501645827351|-0.9501604753988527|-0.1604068823738394|-0.002960075391456485|0.5151904225349426|-0.8570706248283386|0|0|0|-1|-1|3
2021-03-10 21:06:49.541 +0000|290892.049153375|-0.0333251953125|0.3011016845703125|-0.79119873046875|290892.029189375|2.812526167586678|-0.004320282035578263|-0.5516572658420136|-0.5389127135276794|-0.1324343830347061|0.281904935836792|-0.008497089147567749|-0.2836666703224182|0.2299603819847107|XArbitraryZVertical|0.04255727955318864|0.2690060973254018|-0.9492994769420597|-0.1570198499026617|-0.00367938750423491|0.5240993499755859|-0.8516492247581482|0|0|0|-1|-1|3
2021-03-10 21:06:49.561 +0000|290892.069117375|-0.1050872802734375|0.5657806396484375|-0.955718994140625|290892.049153375|2.816101123731313|-0.005413880257883664|-0.5645835138226337|-0.7012715935707092|-0.1749553680419922|0.04514851421117783|-0.02927026152610779|-0.2822411060333252|0.1027184724807739|XArbitraryZVertical|0.04256858021822334|0.2752968205285814|-0.9478474405330043|-0.1548705240993838|-0.004573686048388481|0.5350639820098877|-0.8447991609573364|0|0|0|-1|-1|3
2021-03-10 21:06:49.595 +0000|290892.089080375|-0.1116790771484375|0.65484619140625|-0.95587158203125|290892.089080375|2.809186684266202|-0.01174986324293653|-0.5860861324906357|-0.3255396783351898|0.1258394122123718|-0.2257995456457138|-0.1208112090826035|0.1153830289840698|-0.1414481997489929|XArbitraryZVertical|0.04224204665325847|0.2858118866345115|-0.9444413025143809|-0.1567097039651502|-0.009788725525140762|0.5531045794487|-0.8330543637275696|0|0|0|-1|-1|3
2021-03-10 21:06:49.601 +0000|290892.109044375|-0.0049591064453125|0.60089111328125|-0.8685455322265625||||||||||||||||||||||||3
2021-03-10 21:06:49.621 +0000|290892.129008375|0.0184478759765625|0.6607818603515625|-0.780487060546875|290892.109044375|2.803805431712397|-0.0117349334636815|-0.5926957094559985|-0.3775468468666077|0.1406776309013367|-0.2210124284029007|-0.01614569127559662|0.03495264053344727|-0.06083220243453979|XArbitraryZVertical|0.0435550520223929|0.2888123504402896|-0.9430727767988261|-0.1590727378426791|-0.009733174927532673|0.5585989952087402|-0.8293807506561279|0|0|0|-1|-1|3
2021-03-10 21:06:49.641 +0000|290892.148971375|0.0401153564453125|0.5782012939453125|-0.7316131591796875|290892.129008375|2.799477502077631|-0.01276672057495181|-0.5988925133550463|-0.1780036240816116|0.03060593269765377|-0.1405979096889496|0.0343635305762291|0.08266478776931763|0.02140402793884277|XArbitraryZVertical|0.04420347823995428|0.2917181761380551|-0.9418560558604422|-0.160790712653119|-0.01054451987147331|0.5637280941009521|-0.8258931040763855|0|0|0|-1|-1|3
2021-03-10 21:06:49.660 +0000|290892.168935375|0.038116455078125|0.592864990234375|-0.730621337890625|290892.148971375|2.796456961275957|-0.01447128651771275|-0.5993059495941696|0.102836586534977|-0.03950023651123047|-0.1238783225417137|0.04292429983615875|0.04301667213439941|0.08481144905090332|XArbitraryZVertical|0.04387581768823434|0.2919837082319282|-0.9415900614735|-0.1619525071987302|-0.01194891985505819|0.5640695095062256|-0.825640857219696|0|0|0|-1|-1|3
2021-03-10 21:06:49.680 +0000|290892.188899375|0.01568603515625|0.5698394775390625|-0.72686767578125|290892.168935375|2.79397454131508|-0.01835142493005766|-0.5949415545921539|0.3789958357810974|-0.1796320974826813|-0.1069376915693283|0.06152317672967911|0.01610827445983887|0.09879374504089355|XArbitraryZVertical|0.04204528433683368|0.2901918258570827|-0.9421012106291684|-0.1626842506974246|-0.0151974530890584|0.5604603290557861|-0.8280417919158936|0|0|0|-1|-1|3
2021-03-10 21:06:49.700 +0000|290892.208862375|0.0027008056640625|0.4843292236328125|-0.728271484375|290892.188899375|2.791915373335616|-0.02350556026751825|-0.5838009595929059|0.6709627509117126|-0.1909328103065491|-0.09111149609088898|0.04324651509523392|0.03397524356842041|0.1055970191955566|XArbitraryZVertical|0.03897064027618661|0.2853238993564085|-0.9436214370313506|-0.1632489894015364|-0.01961061358451843|0.5511993169784546|-0.8341431021690369|0|0|0|-1|-1|3
2021-03-10 21:06:49.720 +0000|290892.228826375|-0.0532989501953125|0.5489044189453125|-0.8263702392578125|290892.208862375|2.790858909775054|-0.02685533327802987|-0.5758586992139165|0.06220792606472969|-0.04524537175893784|-0.01193545758724213|0.03308065235614777|-0.0426325798034668|0.1228616833686829|XArbitraryZVertical|0.03686210509386786|0.2818331020356346|-0.9447080359396932|-0.1635176729444698|-0.02252153307199478|0.5445551872253418|-0.8384225964546204|0|0|0|-1|-1|3
2021-03-10 21:06:49.740 +0000|290892.248790375|-0.067291259765625|0.5823822021484375|-0.9223785400390625|290892.228826375|2.79069560342355|-0.02644717932300664|-0.5873736129891699|-0.9810816049575806|0.1978408843278885|0.08297783136367798|-0.01131311058998108|-0.0243152379989624|0.02781718969345093|XArbitraryZVertical|0.03806208097325683|0.2872234553446177|-0.943074512080516|-0.163292368946386|-0.02201204001903534|0.5541767477989197|-0.8321079015731812|0|0|0|-1|-1|3
2021-03-10 21:06:49.760 +0000|290892.268754375|-0.04095458984375|0.49957275390625|-0.9134368896484375|290892.248790375|2.790887789163207|-0.01746584380979615|-0.6141539465683461|-1.596561789512634|0.6404279470443726|-0.0527057908475399|-0.07598226517438889|0.0155600905418396|-0.09088331460952759|XArbitraryZVertical|0.0445345428523909|0.2990791737162286|-0.939028387748767|-0.1636888171870179|-0.01427343208342791|0.5762673020362854|-0.8171366453170776|0|0|0|-1|-1|3
2021-03-10 21:06:49.780 +0000|290892.288717375|-0.054168701171875|0.601806640625|-0.852996826171875|290892.268754375|2.789295928005657|-0.001468157433278845|-0.6523622924682062|-2.341445684432983|1.09766685962677|-0.04123768582940102|-0.03913174569606781|-0.1021214127540588|-0.1154745817184448|XArbitraryZVertical|0.0554667912409384|0.3155912836530083|-0.9326558601021855|-0.1657674578475065|-0.001166673842817545|0.6070653200149536|-0.7946511507034302|0|0|0|-1|-1|3
2021-03-10 21:06:49.800 +0000|290892.308681375|-0.01446533203125|0.7053070068359375|-0.7798004150390625|290892.288717375|2.788971342922813|0.02560792770319483|-0.7087339692842531|-3.379789590835571|1.632432460784912|-0.06015855818986893|-0.08282403647899628|-0.08562660217285156|-0.1157266497612|XArbitraryZVertical|0.07267968837832561|0.3394832210613239|-0.92247212972646|-0.1688609302601661|0.01943906955420971|0.6508731245994568|-0.7589375972747803|0|0|0|-1|-1|3
2021-03-10 21:06:49.820 +0000|290892.328645375|0.1628875732421875|0.849945068359375|-0.7873687744140625|290892.308681375|2.792070178206685|0.06413618779091274|-0.7869488550780469|-4.318284511566162|1.868146419525146|-0.1091212183237076|-0.07694217562675476|-0.03518301248550415|-0.09352260828018188|XArbitraryZVertical|0.09578997851820049|0.3722168263284307|-0.9069095673156102|-0.1726090446265674|0.04524971544742584|0.7082024216651917|-0.7045578360557556|0|0|0|-1|-1|3
2021-03-10 21:06:49.840 +0000|290892.348608625|0.0289459228515625|0.886749267578125|-0.7772979736328125|290892.328645375|2.80062423913816|0.1035745465428016|-0.8797414384411938|-4.956069946289062|1.447680711746216|-0.09088496118783951|0.08136729896068573|0.05227136611938477|-0.1309119462966919|XArbitraryZVertical|0.1183055295310884|0.4111403475298882|-0.8867543725741591|-0.1750260899926442|0.06589531898498535|0.7705740928649902|-0.6339348554611206|0|0|0|-1|-1|3
2021-03-10 21:06:49.860 +0000|290892.368572625|0.079986572265625|0.9528045654296875|-0.6515655517578125|290892.348608625|2.819381526901923|0.1489340483904589|-0.9804996970705867|-5.108510494232178|1.534944295883179|-0.08728471398353577|-0.03977548331022263|0.04434651136398315|-0.2378079891204834|XArbitraryZVertical|0.1401042320136598|0.4529325818035527|-0.8627586010496624|-0.1757000746085624|0.08259168267250061|0.8307756185531616|-0.5504457354545593|0|0|0|-1|-1|3
2021-03-10 21:06:49.880 +0000|290892.388536625|0.017547607421875|0.9612884521484375|-0.5400543212890625|290892.368572625|2.853077715023098|0.2089543410330047|-1.080047920612403|-5.021536827087402|1.555529236793518|0.0281365942209959|-0.02452000975608826|0.05536705255508423|-0.2220704853534698|XArbitraryZVertical|0.1620285653859614|0.4931828141501587|-0.8364509243817653|-0.1756910903651903|0.09776223450899124|0.8819804191589355|-0.4610349237918854|0|0|0|-1|-1|3
2021-03-10 21:06:49.900 +0000|290892.408499625|0.0813751220703125|0.974609375|-0.3995361328125|290892.388536625|2.917888167837381|0.2997082390986461|-1.178158839205874|-5.173126220703125|1.691046237945557|0.1430466771125793|-0.07794831693172455|0.04257339239120483|-0.2014921307563782|XArbitraryZVertical|0.1846752096509079|0.532080758456424|-0.8077384974298808|-0.1741946773251168|0.1129672825336456|0.9239031076431274|-0.3655702769756317|0|0|0|-1|-1|3
2021-03-10 21:06:49.920 +0000|290892.428463625|0.0951385498046875|0.9203338623046875|-0.2518463134765625|290892.408499625|3.048791163437421|0.4561300402517841|-1.276961397673321|-5.555551052093506|1.652804851531982|0.2574704587459564|-0.06513425707817078|0.001203298568725586|-0.1644691824913025|XArbitraryZVertical|0.2082857867144395|0.5714976125268458|-0.7751171530342174|-0.1708830490733436|0.1275732666254044|0.9571402072906494|-0.2600150108337402|0|0|0|-1|-1|3
2021-03-10 21:06:49.942 +0000|290892.448427625|0.0690460205078125|1.01458740234375|-0.0584716796875|290892.428463625|-2.942296362218468|0.7725622365628264|-1.368305773965242|-5.909593105316162|1.641794085502625|0.3750517666339874|-0.03905095160007477|-0.04010027647018433|-0.1553269028663635|XArbitraryZVertical|0.2322705074258545|0.6115884522739623|-0.7379805098505072|-0.1655139679208112|0.1403693556785583|0.9795687198638916|-0.1440199464559555|0|0|0|-1|-1|3
2021-03-10 21:06:49.960 +0000|290892.468391625|0.085540771484375|1.100692749023438|0.23016357421875|290892.448427625|-2.280398113289439|1.458398199714279|-1.416551639043675|-6.518670082092285|1.750903844833374|0.5914487838745117|-0.07274003326892853|-0.02760219573974609|-0.09557622671127319|XArbitraryZVertical|0.2573436908168427|0.6520415987126364|-0.695574102712447|-0.157457433570303|0.1526656150817871|0.9881278276443481|-0.01723195612430573|0|0|0|-1|-1|3
2021-03-10 21:06:49.980 +0000|290892.488354625|0.1581573486328125|1.065353393554688|0.343719482421875|290892.468391625|-1.564303857796641|2.19889756988927|-1.363629757080679|-6.918429374694824|1.696938633918762|1.010121941566467|-0.1028941869735718|0.1258136630058289|0.05639685690402985|XArbitraryZVertical|0.2845552463729639|0.6924309318867445|-0.6468080111319623|-0.145627075603957|0.1664318442344666|0.9786176681518555|0.1208645701408386|0|0|0|-1|-1|3
2021-03-10 21:06:49.999 +0000|290892.508318625|0.157379150390625|1.15350341796875|0.380157470703125|290892.488354625|-1.256099033606433|2.529940333759045|-1.24404075490679|-7.180354595184326|1.581631302833557|1.460384845733643|-0.03503219783306122|0.1349425911903381|0.06513142585754395|XArbitraryZVertical|0.3134039497231855|0.7301835300079045|-0.5933826170531981|-0.1284799840118263|0.1843089759349823|0.9470887184143066|0.2627800405025482|0|0|0|-1|-1|3
2021-03-10 21:06:50.020 +0000|290892.528282625|0.2734222412109375|1.25921630859375|0.504852294921875|290892.528282625|-1.107409843590332|2.714892569632774|-0.9843096206332764|-5.079261302947998|0.7966120839118958|2.022074460983276|0.02957022190093994|0.4311937093734741|-0.0221409797668457|XArbitraryZVertical|0.367824999226581|0.7852466946934923|-0.4909346434679389|-0.08411689598753003|0.2290510386228561|0.8328902125358582|0.5038151741027832|0|0|0|-1|-1|3
2021-03-10 21:06:50.040 +0000|290892.548245625|0.276885986328125|1.1651611328125|0.671600341796875||||||||||||||||||||||||3
2021-03-10 21:06:50.059 +0000|290892.568209625|0.3091278076171875|0.99847412109375|0.6988983154296875|290892.548245625|-1.115199129186326|2.720697840050087|-0.8909590149460594|-3.307372331619263|0.4382654428482056|2.198217153549194|0.02347555756568909|0.4132887721061707|0.06414055824279785|XArbitraryZVertical|0.3905952986410493|0.7964513876292979|-0.457306327661487|-0.06301981530605077|0.2568589746952057|0.7776750326156616|0.5737990140914917|0|0|0|-1|-1|3
2021-03-10 21:06:50.079 +0000|290892.588173625|0.3871307373046875|0.9106292724609375|0.6557159423828125|290892.568209625|-1.145285742041296|2.702696857123284|-0.8261212954848157|-1.844110012054443|0.05677878856658936|2.279951333999634|0.008329778909683228|0.2899603247642517|0.0807003378868103|XArbitraryZVertical|0.4109373408003724|0.7986736828366235|-0.437322785019769|-0.04471701756569914|0.2879959046840668|0.7353081703186035|0.6134982705116272|0|0|0|-1|-1|3
2021-03-10 21:06:50.099 +0000|290892.608136625|0.4043731689453125|0.785247802734375|0.576416015625|290892.588173625|-1.186717052827376|2.670636188126005|-0.7831337657272217|-0.8804988861083984|-0.3010407686233521|2.17220401763916|0.05327984690666199|0.2276628613471985|0.05040830373764038|XArbitraryZVertical|0.428745529672831|0.7949552087096486|-0.4282512545493305|-0.0287147808885355|0.3215676844120026|0.7055038213729858|0.631553053855896|0|0|0|-1|-1|3
2021-03-10 21:06:50.119 +0000|290892.628100625|0.4045867919921875|0.6489105224609375|0.6926422119140625|290892.608136625|-1.230861471491643|2.631031894009141|-0.7522272708744107|-0.4569439291954041|-0.5636414885520935|2.087106466293335|0.05461353063583374|0.1331395506858826|-0.05369222164154053|XArbitraryZVertical|0.4438204497592475|0.7883837771751431|-0.4257873436330284|-0.0134052732152149|0.3568092584609985|0.6832667589187622|0.6370511651039124|0|0|0|-1|-1|3
2021-03-10 21:06:50.139 +0000|290892.648064625|0.4204864501953125|0.64599609375|0.8245391845703125|290892.628100625|-1.272118162433663|2.58935695467544|-0.7239873297448735|-0.4112095236778259|-0.8542436361312866|1.965343117713928|0.003033101558685303|0.01625740528106689|0.0497366189956665|XArbitraryZVertical|0.4568232658212149|0.7811639169523308|-0.4255444902795105|0.002695661805602309|0.3930087685585022|0.6623771190643311|0.6378090977668762|0|0|0|-1|-1|3
2021-03-10 21:06:50.159 +0000|290892.668027625|0.387847900390625|0.6973114013671875|0.71270751953125|290892.648064625|-1.311037730398179|2.544530098513901|-0.6990660960071552|-0.01562501676380634|-1.057584524154663|1.902577638626099|-0.0142524242401123|-0.03550142049789429|0.1617088317871094|XArbitraryZVertical|0.4675339378779176|0.773252470458189|-0.4279146860489859|0.01953768224317042|0.4303444027900696|0.6435031294822693|0.6330147385597229|0|0|0|-1|-1|3
2021-03-10 21:06:50.179 +0000|290892.687991625|0.326446533203125|0.4505157470703125|0.670257568359375|290892.668027625|-1.353284576025245|2.494414819942373|-0.6809256004202413|0.4187358319759369|-1.193385004997253|1.767837047576904|-0.05523794889450073|0.1101877689361572|0.1113577485084534|XArbitraryZVertical|0.4768182157665452|0.7632702029078121|-0.4345191208288369|0.03544172362863254|0.4684764742851257|0.6295124888420105|0.6198740005493164|0|0|0|-1|-1|3
2021-03-10 21:06:50.199 +0000|290892.707955625|0.3947906494140625|0.3105010986328125|0.586639404296875|290892.687991625|-1.396647609537697|2.446664006244496|-0.6697737532627948|0.8077048659324646|-0.7943580150604248|1.575823545455933|-0.1688956022262573|-0.1351062655448914|0.0907866358757019|XArbitraryZVertical|0.4852127188400825|0.7520963829492848|-0.4434525304119495|0.04763833718678427|0.5019948482513428|0.6208086609840393|0.6021606922149658|0|0|0|-1|-1|3
2021-03-10 21:06:50.219 +0000|290892.727919625|0.3914794921875|0.21923828125|0.463592529296875|290892.707955625|-1.43827139589218|2.408701402049926|-0.6621702608279476|0.6658791899681091|-0.4828376770019531|1.357780933380127|-0.1463740468025208|-0.2487868666648865|0.03652995824813843|XArbitraryZVertical|0.4939678443027123|0.74099848092285|-0.4515418754327162|0.05501754035388345|0.5276301503181458|0.6148298978805542|0.5861659646034241|0|0|0|-1|-1|3
2021-03-10 21:06:50.239 +0000|290892.747882625|0.4170684814453125|0.3786773681640625|0.4228515625|290892.727919625|-1.467920686059367|2.38303797951256|-0.6517484479707006|0.2332183718681335|-0.2712471783161163|1.083162307739258|-0.1622323393821716|-0.3991647362709045|-0.0810663104057312|XArbitraryZVertical|0.5014548781471837|0.732850372032826|-0.4557639493053072|0.06125792290786214|0.5468758940696716|0.6065773963928223|0.5770533084869385|0|0|0|-1|-1|3
2021-03-10 21:06:50.259 +0000|290892.767846625|0.3759613037109375|0.2913360595703125|0.4127197265625|290892.747882625|-1.490746922531109|2.365272482632672|-0.6421635349552219|0.4019585251808167|-0.1803774684667587|0.9008814096450806|-0.1480791568756104|-0.2437962293624878|-0.1481517553329468|XArbitraryZVertical|0.5079317725568937|0.7264228545884048|-0.4582441171659273|0.06578501136683113|0.5610889792442322|0.5989294052124023|0.5713697075843811|0|0|0|-1|-1|3
2021-03-10 21:06:50.279 +0000|290892.787810625|0.3759307861328125|0.3138580322265625|0.5218048095703125|290892.767846625|-1.51318824153464|2.348675357149844|-0.6373366224379423|0.4514325857162476|-0.08947978168725967|0.7229076623916626|-0.1791449189186096|-0.2611337900161743|-0.1573236584663391|XArbitraryZVertical|0.5133480946560005|0.7200515530511956|-0.461884402885569|0.0682812715847731|0.5725470185279846|0.5950570702552795|0.5640010237693787|0|0|0|-1|-1|3
2021-03-10 21:06:50.299 +0000|290892.807773625|0.40777587890625|0.2682952880859375|0.523223876953125|290892.787810625|-1.529680929575964|2.339066131639723|-0.6328810119604653|0.111927404999733|0.08883935213088989|0.5621906518936157|-0.2156595587730408|-0.2985319495201111|-0.06270581483840942|XArbitraryZVertical|0.518080356339965|0.7153655905012307|-0.4637037695010623|0.06945369986717306|0.5798411965370178|0.5914702415466309|0.5603103637695312|0|0|0|-1|-1|3
2021-03-10 21:06:50.319 +0000|290892.827737625|0.4408416748046875|0.38916015625|0.5977630615234375|290892.807773625|-1.534414581829304|2.338962116764804|-0.6230289118229767|-0.5337526202201843|0.1849902868270874|0.4158064723014832|-0.1860057711601257|-0.3266007900238037|-0.06327956914901733|XArbitraryZVertical|0.5220375674657902|0.7138714485995408|-0.4612016488618194|0.0718144875574224|0.5840618014335632|0.5834976434707642|0.5642713308334351|0|0|0|-1|-1|3
2021-03-10 21:06:50.339 +0000|290892.847701625|0.5063629150390625|0.4834136962890625|0.56500244140625|290892.827737625|-1.527874282587502|2.346252284254751|-0.6072461009576853|-0.7847126126289368|0.1528207361698151|0.3752643764019012|-0.1596941351890564|-0.2328699827194214|0.01704412698745728|XArbitraryZVertical|0.5250040882112985|0.715413050617737|-0.4546997249671151|0.07617861816886018|0.5864368081092834|0.5706080794334412|0.5748902559280396|0|0|0|-1|-1|3
2021-03-10 21:06:50.359 +0000|290892.867664625|0.531036376953125|0.5201416015625|0.5934906005859375|290892.847701625|-1.523935457600808|2.349693391715836|-0.5948464722762462|-0.2881962060928345|-0.05317029729485512|0.2667518258094788|-0.08698856830596924|-0.07608300447463989|-0.01270824670791626|XArbitraryZVertical|0.5271968301466465|0.7162253652035286|-0.4501829723284956|0.08012502974059602|0.5894452333450317|0.5603815913200378|0.5818305611610413|0|0|0|-1|-1|3
2021-03-10 21:06:50.379 +0000|290892.887628625|0.57513427734375|0.43890380859375|0.6417083740234375|290892.867664625|-1.527013505600003|2.34491165721068|-0.5922575452657086|0.2515157461166382|-0.3228232860565186|0.08473764359951019|-0.07648670673370361|0.007468879222869873|0.0211024284362793|XArbitraryZVertical|0.5278084774403544|0.7151412984272734|-0.4508448621481899|0.08203740006752835|0.5932561755180359|0.5582354664802551|0.5800177454948425|0|0|0|-1|-1|3
2021-03-10 21:06:50.399 +0000|290892.907592625|0.54150390625|0.59197998046875|0.606781005859375|290892.887628625|-1.53446028104783|2.330085500503823|-0.5982333146261551|0.6052544116973877|-0.7142618894577026|-0.08546808362007141|-0.02672785520553589|-0.1386687159538269|0.06115299463272095|XArbitraryZVertical|0.5257381809302453|0.7127589868992237|-0.4567163774436913|0.08357194088398731|0.5993597507476807|0.5631834864616394|0.5688520073890686|0|0|0|-1|-1|3
2021-03-10 21:06:50.419 +0000|290892.927556625|0.4248199462890625|0.5724639892578125|0.597869873046875|290892.907592625|-1.543498416596108|2.308429285935724|-0.6096376874801688|0.7059415578842163|-0.8364269137382507|-0.2859554588794708|-0.03035891056060791|-0.007995247840881348|0.0697706937789917|XArbitraryZVertical|0.5213131740185799|0.7098764949335733|-0.465879589391196|0.08523042445217657|0.6067444682121277|0.5725704431533813|0.5513841509819031|0|0|0|-1|-1|3
2021-03-10 21:06:50.439 +0000|290892.947519625|0.5494537353515625|0.2494049072265625|0.3150482177734375|290892.927556625|-1.551114871668503|2.293502183581237|-0.6276813129352815|1.033108711242676|-0.1535604447126389|-0.6729893088340759|-0.1777070760726929|-0.01068568229675293|0.08637446165084839|XArbitraryZVertical|0.5162414598252805|0.7079316920636297|-0.4749002709161642|0.08244619848349113|0.6070589423179626|0.5872696042060852|0.5353450775146484|0|0|0|-1|-1|3
2021-03-10 21:06:50.459 +0000|290892.967483625|0.6072845458984375|0.2255096435546875|0.2220001220703125|290892.947519625|-1.560119524175518|2.291330711128394|-0.6553380205071994|1.247025728225708|0.4474420845508575|-0.9267328381538391|-0.07429933547973633|-0.209067165851593|-0.1282699108123779|XArbitraryZVertical|0.5122663210458601|0.7064958458918671|-0.483063958435893|0.07138677859416453|0.5957837104797363|0.609427273273468|0.5231063365936279|0|0|0|-1|-1|3
2021-03-10 21:06:50.479 +0000|290892.987447625|0.5147552490234375|0.4307098388671875|0.3546142578125|290892.967483625|-1.563325630848512|2.300259730291539|-0.6845044843428328|0.7769303321838379|0.5898284912109375|-1.063085436820984|0.03016954660415649|-0.4946396350860596|-0.3218319416046143|XArbitraryZVertical|0.508475697913057|0.7068382985966819|-0.4884246059912067|0.05721535771015837|0.5775880813598633|0.6322891712188721|0.5163358449935913|0|0|0|-1|-1|3
2021-03-10 21:06:50.499 +0000|290893.007410625|0.45599365234375|0.64617919921875|0.466888427734375|290892.987447625|-1.55142247221199|2.319785689721463|-0.7068981673439892|0.1439723074436188|0.6196943521499634|-1.22126317024231|-0.01417583227157593|-0.2487519979476929|-0.1910208463668823|XArbitraryZVertical|0.5035490595118854|0.7108511577628974|-0.4889509773826781|0.0453425624201341|0.5568852424621582|0.6494783163070679|0.5177420377731323|0|0|0|-1|-1|3
2021-03-10 21:06:50.519 +0000|290893.027374625|0.43994140625|0.4543304443359375|0.501220703125|290893.007410625|-1.529071291627571|2.348756675997468|-0.7270137680494022|0.1049033254384995|0.7918736338615417|-1.375556230545044|-0.0727202296257019|-0.06497091054916382|-0.07497769594192505|XArbitraryZVertical|0.4977185127058436|0.7172629418209757|-0.4865111618689962|0.03342396581635146|0.532238781452179|0.6646413803100586|0.5243796706199646|0|0|0|-1|-1|3
2021-03-10 21:06:50.539 +0000|290893.047338625|0.4102325439453125|0.5677642822265625|0.5362091064453125|290893.027374625|-1.507369176857656|2.380574781409473|-0.7502507172987987|0.3718724846839905|0.9044685363769531|-1.392614364624023|-0.0550197958946228|-0.1820204854011536|-0.04839414358139038|XArbitraryZVertical|0.4919786571404575|0.7230600030977964|-0.48453430983455|0.01918027663542771|0.5044980645179749|0.6818221807479858|0.5297175049781799|0|0|0|-1|-1|3
2021-03-10 21:06:50.559 +0000|290893.067302625|0.3929901123046875|0.538299560546875|0.62225341796875|290893.047338625|-1.487159305254455|2.412694553059884|-0.7746334104909675|0.4049434959888458|0.9120953679084778|-1.336337685585022|-0.06466323137283325|-0.1703402996063232|-0.003207504749298096|XArbitraryZVertical|0.4865248539258998|0.727898187392219|-0.4831579894858717|0.004034244530691899|0.4760097861289978|0.699454128742218|0.5330843925476074|0|0|0|-1|-1|3
2021-03-10 21:06:50.579 +0000|290893.087265625|0.374725341796875|0.81866455078125|0.6229095458984375|290893.067302625|-1.46460230431516|2.446603372172021|-0.7964661699358259|0.1943324655294418|0.8659167885780334|-1.330420732498169|-0.04677474498748779|-0.170074462890625|0.06662672758102417|XArbitraryZVertical|0.481225227630929|0.7327692074699574|-0.4810037418808185|-0.01034870132503199|0.4477758407592773|0.7148895859718323|0.5370568633079529|0|0|0|-1|-1|3
2021-03-10 21:06:50.598 +0000|290893.107229625|0.34735107421875|0.9943695068359375|0.6160736083984375|290893.087265625|-1.437690059552443|2.481544870902368|-0.8164682662914766|0.2859493792057037|0.6816228032112122|-1.359762191772461|-0.0433618426322937|0.001263856887817383|0.08530056476593018|XArbitraryZVertical|0.4749663502357406|0.7381666182832483|-0.4785038084771834|-0.02347616307261489|0.4198877811431885|0.7287318706512451|0.5409659743309021|0|0|0|-1|-1|3
2021-03-10 21:06:50.618 +0000|290893.127193625|0.3602142333984375|0.8499298095703125|0.5976409912109375|290893.107229625|-1.415803525647669|2.510047826204663|-0.8421308249613485|0.9058650732040405|0.5811420083045959|-1.355172634124756|-0.04100021719932556|0.2176661491394043|0.07228761911392212|XArbitraryZVertical|0.4676692405686845|0.7416230071760348|-0.4794673618084325|-0.03730801430752133|0.3931273221969604|0.7460636496543884|0.5374383926391602|0|0|0|-1|-1|3
2021-03-10 21:06:50.639 +0000|290893.147156625|0.3553314208984375|0.77117919921875|0.58770751953125|290893.127193625|-1.403539156896892|2.529545504781876|-0.8756982749421987|1.285588383674622|0.4545814394950867|-1.268300414085388|-0.01102429628372192|0.18287593126297|0.08711248636245728|XArbitraryZVertical|0.4599542748266305|0.7419853877178647|-0.4849026688272884|-0.05262427191164332|0.3679732382297516|0.7679908871650696|0.5242004990577698|0|0|0|-1|-1|3
2021-03-10 21:06:50.658 +0000|290893.167120625|0.3511199951171875|1.067413330078125|0.5055389404296875|290893.147156625|-1.393734892256442|2.544044364261447|-0.9105153580761212|1.205395102500916|0.2343691885471344|-1.217183113098145|0.01272833347320557|-0.08793085813522339|0.08714985847473145|XArbitraryZVertical|0.4516610270599331|0.7413037713752085|-0.4919209974557958|-0.06696853256239639|0.3450750410556793|0.7898199558258057|0.5070579051971436|0|0|0|-1|-1|3
2021-03-10 21:06:50.678 +0000|290893.187084625|0.355560302734375|1.094146728515625|0.5004425048828125|290893.167120625|-1.385554158202649|2.552782973126401|-0.943375369283078|1.23927915096283|0.01522250194102526|-1.028100967407227|0.0301654040813446|0.1987106800079346|0.02123039960861206|XArbitraryZVertical|0.4430005777471311|0.7401690727305034|-0.4996867986224652|-0.07882475038893652|0.3260357975959778|0.8095442652702332|0.4881995320320129|0|0|0|-1|-1|3
2021-03-10 21:06:50.698 +0000|290893.207047625|0.3456268310546875|1.074508666992188|0.46875|290893.187084625|-1.380030453376085|2.556519332029972|-0.973752615327392|1.100176215171814|-0.09192872047424316|-0.9063929319381714|0.04442334175109863|0.2690985202789307|0.03146246075630188|XArbitraryZVertical|0.434621347729961|0.7385454207802881|-0.5077446729358815|-0.08860154492936183|0.3104808032512665|0.8270012736320496|0.4686900973320007|0|0|0|-1|-1|3
2021-03-10 21:06:50.718 +0000|290893.227011625|0.345245361328125|0.926910400390625|0.4778900146484375|290893.207047625|-1.373849663941836|2.559547027747943|-0.9980209623273363|0.7212768793106079|-0.09453883022069931|-0.7155219912528992|0.0512906014919281|0.2749715447425842|0.03573817014694214|XArbitraryZVertical|0.4272456022829881|0.7374444315518206|-0.5142336962013875|-0.095919661948536|0.2979373335838318|0.8404000401496887|0.4527261853218079|0|0|0|-1|-1|3
2021-03-10 21:06:50.738 +0000|290893.246975625|0.35614013671875|1.184860229492188|0.43389892578125|290893.227011625|-1.365763840430721|2.565160754177635|-1.013811916652861|0.3494127690792084|-0.05130358040332794|-0.4633675217628479|0.04925012588500977|0.06832218170166016|0.03022527694702148|XArbitraryZVertical|0.4218755839476857|0.7373097175177503|-0.5178869007279169|-0.1009385351983707|0.28812175989151|0.8488531112670898|0.4432092607021332|0|0|0|-1|-1|3
2021-03-10 21:06:50.758 +0000|290893.266939625|0.3787689208984375|1.185958862304688|0.361541748046875|290893.246975625|-1.361595951687651|2.567615950410318|-1.021534665715213|0.260166198015213|-0.05452493950724602|-0.1696382761001587|0.06919652223587036|0.2633616924285889|0.01289695501327515|XArbitraryZVertical|0.4190965527728384|0.7372629085765289|-0.5197578246836358|-0.1032147344550163|0.283464640378952|0.8529102206230164|0.4383970201015472|0|0|0|-1|-1|3
2021-03-10 21:06:50.778 +0000|290893.286902625|0.3624114990234375|1.10699462890625|0.335845947265625|290893.266939625|-1.36564162511203|2.56281334971834|-1.028892520608486|0.4675662517547607|-0.08255492150783539|-0.06303006410598755|0.09304150938987732|0.3582222461700439|-0.05273711681365967|XArbitraryZVertical|0.4175372992091896|0.7358976225038397|-0.5226153746064197|-0.1048355310448475|0.282126396894455|0.8567283153533936|0.4317654073238373|0|0|0|-1|-1|3
2021-03-10 21:06:50.798 +0000|290893.306866625|0.362396240234375|1.064208984375|0.3393096923828125|290893.286902625|-1.376300189083681|2.552308632631939|-1.036984328386451|0.4909073114395142|-0.04300511628389359|0.07945775240659714|0.08373203873634338|0.2582210898399353|-0.08686485886573792|XArbitraryZVertical|0.4167019982349126|0.7333892574556954|-0.5264875994786584|-0.1063505996160209|0.282784104347229|0.8608736991882324|0.4230007231235504|0|0|0|-1|-1|3
2021-03-10 21:06:50.818 +0000|290893.326830625|0.339691162109375|0.9848785400390625|0.3814544677734375|290893.306866625|-1.392234216439121|2.538203047810895|-1.043971258497344|0.5504541993141174|0.001876655966043472|0.1924883425235748|0.07683438062667847|0.2131984829902649|-0.07709300518035889|XArbitraryZVertical|0.417059602083046|0.7301129249091217|-0.5304806236078382|-0.1076419691035284|0.2853024899959564|0.8644077777862549|0.4140071868896484|0|0|0|-1|-1|3
2021-03-10 21:06:50.838 +0000|290893.346793375|0.3313140869140625|0.9303741455078125|0.420562744140625|290893.326830625|-1.412580515277454|2.521417196661038|-1.049817257052394|0.500697135925293|0.0788014829158783|0.3011730909347534|0.06012642383575439|0.1388779282569885|-0.0362507700920105|XArbitraryZVertical|0.4185169709741137|0.7261981716015026|-0.534446701481457|-0.1088412835806531|0.289269357919693|0.8673322796821594|0.4050404727458954|0|0|0|-1|-1|3
2021-03-10 21:06:50.858 +0000|290893.366757375|0.3356781005859375|0.892364501953125|0.4312744140625|290893.346793375|-1.434163346038145|2.505218406858681|-1.053373519324449|0.4172695279121399|0.1640452742576599|0.3545924723148346|0.0338166356086731|0.06980681419372559|0.01439768075942993|XArbitraryZVertical|0.4210765612575633|0.7222214535481349|-0.537594060429438|-0.1099241006039384|0.2939574420452118|0.8690968751907349|0.3978185951709747|0|0|0|-1|-1|3
2021-03-10 21:06:50.878 +0000|290893.386721375|0.31219482421875|0.8552703857421875|0.4157257080078125|290893.366757375|-1.455383622285079|2.490310105550812|-1.055213847447265|0.3695612549781799|0.1853106170892715|0.3690142035484314|0.03779980540275574|0.03496259450912476|0.04132163524627686|XArbitraryZVertical|0.4242235968676937|0.7183969415942431|-0.5400424200193573|-0.1108802507072116|0.2988854050636292|0.8700056672096252|0.3921196460723877|0|0|0|-1|-1|3
2021-03-10 21:06:50.898 +0000|290893.406684375|0.293243408203125|0.8573150634765625|0.40069580078125|290893.386721375|-1.475904411379472|2.476327504239712|-1.056285136842793|0.3312408030033112|0.2026318162679672|0.3695160150527954|0.01378712058067322|-0.01170754432678223|0.03530117869377136|XArbitraryZVertical|0.4275107949719652|0.7147160783677915|-0.5421447436379407|-0.1117799190834977|0.3037636578083038|0.8705333471298218|0.3871690928936005|0|0|0|-1|-1|3
2021-03-10 21:06:50.918 +0000|290893.426648375|0.2859649658203125|0.809539794921875|0.4209747314453125|290893.406684375|-1.496022344568522|2.463000226125768|-1.056793631038079|0.3385086953639984|0.2143470644950867|0.373482882976532|-0.0128723680973053|-0.008173525333404541|0.01684039831161499|XArbitraryZVertical|0.4309280247483525|0.7111060514759615|-0.5440002008428348|-0.1126636251121679|0.3086183071136475|0.8707835078239441|0.3827415704727173|0|0|0|-1|-1|3
2021-03-10 21:06:50.938 +0000|290893.446612375|0.28302001953125|0.815460205078125|0.448486328125|290893.426648375|-1.516204230722408|2.449791407345243|-1.057154728873201|0.3092094659805298|0.2198916524648666|0.3739942908287048|-0.02642810344696045|-0.05072486400604248|0.03610032796859741|XArbitraryZVertical|0.4343898362028487|0.7074603456042909|-0.5458023091324599|-0.1136007230973065|0.3134459257125854|0.8709609508514404|0.3783893287181854|0|0|0|-1|-1|3
2021-03-10 21:06:50.958 +0000|290893.466576375|0.28900146484375|0.8217315673828125|0.4262237548828125|290893.446612375|-1.534817425837714|2.437985841576613|-1.056574637113216|0.2709141373634338|0.2015402913093567|0.3730945289134979|-0.03684580326080322|-0.06153291463851929|0.06889146566390991|XArbitraryZVertical|0.4378893863427129|0.7041141720846918|-0.5471805495143393|-0.1143218442095297|0.3182178437709808|0.870675802230835|0.3750477731227875|0|0|0|-1|-1|3
2021-03-10 21:06:50.978 +0000|290893.486539375|0.2934722900390625|0.7733306884765625|0.4178619384765625|290893.466576375|-1.551528763868449|2.427274850254325|-1.055780350871595|0.310334712266922|0.1416588872671127|0.3257945775985718|-0.03627759218215942|-0.0417478084564209|0.05808103084564209|XArbitraryZVertical|0.4410426773958497|0.7011074383175672|-0.5483945132298569|-0.1148617967883266|0.3226698338985443|0.8702848553657532|0.3721405565738678|0|0|0|-1|-1|3
2021-03-10 21:06:50.998 +0000|290893.506503375|0.302001953125|0.7833404541015625|0.391082763671875|290893.486539375|-1.567912140306273|2.415783208690655|-1.056369297790375|0.3206520080566406|0.09853837639093399|0.2883407473564148|-0.03363117575645447|-0.08448779582977295|0.05241617560386658|XArbitraryZVertical|0.443456370119983|0.6981108498674669|-0.5501244283589053|-0.1155458914165282|0.3265846967697144|0.8705747723579407|0.368024617433548|0|0|0|-1|-1|3
2021-03-10 21:06:51.018 +0000|290893.526467375|0.3138885498046875|0.82568359375|0.365264892578125|290893.506503375|-1.58202057262706|2.405606062516976|-1.057094670315917|0.3180743753910065|0.04982884228229523|0.2352515161037445|-0.02956578135490417|-0.09857720136642456|0.03867915272712708|XArbitraryZVertical|0.4453684206358787|0.6955242431986144|-0.5517288611712982|-0.11613965651459|0.329889327287674|0.8709314465522766|0.3642140030860901|0|0|0|-1|-1|3
2021-03-10 21:06:51.038 +0000|290893.546430375|0.338836669921875|0.8140716552734375|0.402130126953125|290893.526467375|-1.594896460422438|2.395857675415332|-1.059198127971755|0.4434838593006134|0.01065161172300577|0.1752395927906036|-0.02132835984230042|-0.0489497184753418|0.005127102136611938|XArbitraryZVertical|0.4465612195332986|0.6931091565055247|-0.5536080565601645|-0.1170517705865005|0.3321804702281952|0.8719632029533386|0.3596344590187073|0|0|0|-1|-1|3
2021-03-10 21:06:51.058 +0000|290893.566394375|0.34747314453125|0.814697265625|0.399566650390625|290893.546430375|-1.609704409942969|2.383870309850761|-1.063736299301093|0.533566951751709|-0.01785699464380741|0.1349143385887146|-0.001453399658203125|-0.05769342184066772|0.04112696647644043|XArbitraryZVertical|0.4470889889416089|0.6902793053747858|-0.556377673790112|-0.1186161768147837|0.333744078874588|0.8741759657859802|0.3527481555938721|0|0|0|-1|-1|3
2021-03-10 21:06:51.078 +0000|290893.586358375|0.3620147705078125|0.800079345703125|0.3782806396484375|290893.566394375|-1.624957732465432|2.370827716169876|-1.069443425287276|0.5431020855903625|-0.04268229007720947|0.08148618787527084|0.009448826313018799|-0.05836015939712524|0.06230843067169189|XArbitraryZVertical|0.4470973361936158|0.6873823182314392|-0.5595649535774166|-0.1204022309218333|0.3348352611064911|0.8769331574440002|0.3447809517383575|0|0|0|-1|-1|3
2021-03-10 21:06:51.098 +0000|290893.606322375|0.3758392333984375|0.8042449951171875|0.3599853515625|290893.586358375|-1.637219808882369|2.360129795218611|-1.074672880936087|0.4360810220241547|-0.05339698493480682|0.040945865213871|0.02148059010505676|-0.07242751121520996|0.04545798897743225|XArbitraryZVertical|0.4468211462612037|0.6850623758867666|-0.5622710208399478|-0.1220320930915024|0.3352699875831604|0.8794344663619995|0.3379192054271698|0|0|0|-1|-1|3
2021-03-10 21:06:51.118 +0000|290893.626285375|0.3686370849609375|0.8343048095703125|0.3373870849609375|290893.606322375|-1.647249020803811|2.350311708518005|-1.079183739418616|0.3466712236404419|-0.1021793261170387|0.01373563893139362|0.03734663128852844|-0.08019661903381348|0.03446835279464722|XArbitraryZVertical|0.4461982528816486|0.6832397256090923|-0.564742605341523|-0.1231107699447206|0.3357459902763367|0.8815727829933167|0.3318188190460205|0|0|0|-1|-1|3
2021-03-10 21:06:51.138 +0000|290893.646249375|0.358428955078125|0.8668365478515625|0.332244873046875|290893.626285375|-1.65473864857404|2.341712476514285|-1.082911509070655|0.3129182159900665|-0.157139465212822|0.007733673322945833|0.03626975417137146|-0.06104534864425659|0.01463523507118225|XArbitraryZVertical|0.4452518120591877|0.6819565099998868|-0.5669233427305088|-0.1236291601237932|0.3362278640270233|0.8833263516426086|0.3266277015209198|0|0|0|-1|-1|3
2021-03-10 21:06:51.157 +0000|290893.666213375|0.3415679931640625|0.8443450927734375|0.3500518798828125|290893.646249375|-1.661078339193654|2.333873057003669|-1.086329143918065|0.3168891668319702|-0.152484729886055|-0.01856903731822968|0.02549713850021362|-0.01799529790878296|0.01082485914230347|XArbitraryZVertical|0.4442005942667702|0.6809055648159864|-0.5689297916328588|-0.1239848691261385|0.3365939259529114|0.8849232196807861|0.3218931257724762|0|0|0|-1|-1|3
2021-03-10 21:06:51.178 +0000|290893.686176375|0.346893310546875|0.8449249267578125|0.3636932373046875|290893.666213375|-1.666460366034142|2.326835795038477|-1.089286536152345|0.2450427263975143|-0.1333337873220444|-0.0283222422003746|0.008086264133453369|-0.03554296493530273|0.0251605212688446|XArbitraryZVertical|0.443170724239599|0.6800438461095877|-0.5707169174391371|-0.1241865279646334|0.336945503950119|0.8862967491149902|0.3177198469638824|0|0|0|-1|-1|3
2021-03-10 21:06:51.197 +0000|290893.706140375|0.352813720703125|0.87701416015625|0.355316162109375|290893.686176375|-1.670000949913463|2.321683839484689|-1.090506393346533|0.1307059824466705|-0.1124531105160713|-0.02229737304151058|0.006435662508010864|-0.04616272449493408|0.04346168041229248|XArbitraryZVertical|0.4425483270045782|0.6795380577326408|-0.5718666686939414|-0.1238855317349625|0.3377874195575714|0.8868610262870789|0.3152419924736023|0|0|0|-1|-1|3
2021-03-10 21:06:51.217 +0000|290893.726104375|0.353973388671875|0.8975677490234375|0.33367919921875|290893.706140375|-1.671783173158808|2.318039856905042|-1.090677131536928|0.07636822760105133|-0.1015020906925201|-0.04361011832952499|0.01357915997505188|-0.02362817525863647|0.04353126883506775|XArbitraryZVertical|0.4420615743012756|0.6793633159535841|-0.5725941790422647|-0.1232191628767022|0.338822603225708|0.8869398832321167|0.3139058947563171|0|0|0|-1|-1|3
2021-03-10 21:06:51.238 +0000|290893.746067375|0.348388671875|0.900787353515625|0.3281707763671875|290893.726104375|-1.672897579865924|2.315031275063449|-1.092110534458887|0.1359265446662903|-0.1012338548898697|-0.07854537665843964|0.01583001017570496|0.006258904933929443|0.03013944625854492|XArbitraryZVertical|0.4411605480759381|0.6792563692772868|-0.5734554309936727|-0.1230328990528626|0.3388300538063049|0.8876010179519653|0.3120236992835999|0|0|0|-1|-1|3
2021-03-10 21:06:51.257 +0000|290893.766031375|0.338714599609375|0.86651611328125|0.313507080078125|290893.746067375|-1.674152357435645|2.312134464527062|-1.094532902432051|0.1266921758651733|-0.1035729125142097|-0.07069633156061172|0.01167756319046021|0.01585721969604492|0.0162484347820282|XArbitraryZVertical|0.4400485693104933|0.6790811182649769|-0.5744627744837223|-0.1232824743095293|0.3381454348564148|0.8887141942977905|0.3095878064632416|0|0|0|-1|-1|3
2021-03-10 21:06:51.277 +0000|290893.785995375|0.3440399169921875|0.8777618408203125|0.309844970703125|290893.766031375|-1.673343548335336|2.311350462479492|-1.096216127029458|0.07044412195682526|-0.08467980474233627|-0.0744437575340271|0.001217454671859741|-0.006428062915802002|0.005896180868148804|XArbitraryZVertical|0.4390568002928141|0.6792537078866636|-0.574994200283022|-0.1233903550298127|0.3372835218906403|0.8894846439361572|0.3083129525184631|0|0|0|-1|-1|3
2021-03-10 21:06:51.297 +0000|290893.805959375|0.345062255859375|0.924102783203125|0.291748046875|290893.785995375|-1.669874402138127|2.313169753798695|-1.096117953968307|-0.05055307224392891|-0.09229478985071182|-0.03660263121128082|0.008046835660934448|-0.02994269132614136|0.006475090980529785|XArbitraryZVertical|0.4384296143193845|0.6799059532773195|-0.5747907377913708|-0.1229758158992547|0.3367865979671478|0.8894397616386414|0.3089852631092072|0|0|0|-1|-1|3
2021-03-10 21:06:51.317 +0000|290893.825922375|0.33746337890625|0.9244232177734375|0.284820556640625|290893.805959375|-1.66593514133535|2.31497147740737|-1.095680022872352|-0.02811595611274242|-0.1019819900393486|-0.05750951170921326|0.008409351110458374|0.03556501865386963|-0.01662686467170715|XArbitraryZVertical|0.4377352881079937|0.6806727520516612|-0.5745565598803428|-0.1222994108722682|0.3365156054496765|0.8892395496368408|0.3098551630973816|0|0|0|-1|-1|3
2021-03-10 21:06:51.337 +0000|290893.845886375|0.337554931640625|0.9131622314453125|0.2670135498046875|290893.825922375|-1.663572558399006|2.314893988488884|-1.096101361626351|0.0001584743149578571|-0.1130508333444595|-0.05936191976070404|0.002115160226821899|0.03540283441543579|-0.02731806039810181|XArbitraryZVertical|0.4367857466192769|0.6811796812084419|-0.5747958580311985|-0.1217458062223994|0.3362637460231781|0.8894321918487549|0.309575080871582|0|0|0|-1|-1|3
2021-03-10 21:06:51.357 +0000|290893.865850375|0.3308258056640625|0.9292755126953125|0.2664031982421875|290893.845886375|-1.661885387678981|2.314189635648717|-1.096827253861845|0.01720144040882587|-0.1215059459209442|-0.05197315663099289|0.001441717147827148|0.02472585439682007|-0.03373950719833374|XArbitraryZVertical|0.4357965770339267|0.6815658050088105|-0.5751870112775087|-0.1212815111172961|0.3360064029693604|0.8897637128829956|0.3089012205600739|0|0|0|-1|-1|3
2021-03-10 21:06:51.377 +0000|290893.885813375|0.3193511962890625|0.924041748046875|0.2684173583984375|290893.865850375|-1.661389600460902|2.31225628624636|-1.097226819841204|0.0355638861656189|-0.1256376802921295|-0.02738339081406593|-0.002585738897323608|0.03540819883346558|-0.04287451505661011|XArbitraryZVertical|0.43495451826219|0.6817772991031106|-0.5757122461087414|-0.1206228998129276|0.336341381072998|0.8899460434913635|0.3080114424228668|0|0|0|-1|-1|3
2021-03-10 21:06:51.397 +0000|290893.905777375|0.319671630859375|0.9067840576171875|0.27410888671875|290893.885813375|-1.66285484328561|2.30830919229459|-1.098279229482688|0.05707292258739471|-0.1216887980699539|-0.007747903931885958|-0.01718908548355103|0.04132193326950073|-0.03806102275848389|XArbitraryZVertical|0.4340091739684234|0.6816609315341062|-0.5766764373174312|-0.120078004682442|0.3368607461452484|0.8904255032539368|0.3060511648654938|0|0|0|-1|-1|3
2021-03-10 21:06:51.417 +0000|290893.925741375|0.322479248046875|0.9102935791015625|0.2580108642578125|290893.905777375|-1.66540774247758|2.303420598114502|-1.09925686187294|0.02597843669354916|-0.1207610070705414|0.01449037902057171|-0.01835450530052185|0.01711958646774292|-0.03050312399864197|XArbitraryZVertical|0.4331817733972296|0.6813683528954783|-0.5777633850181826|-0.1195002465080275|0.3377057611942291|0.8908700346946716|0.303818553686142|0|0|0|-1|-1|3
2021-03-10 21:06:51.437 +0000|290893.945704375|0.3283843994140625|0.9299468994140625|0.2661590576171875|290893.925741375|-1.6672257791055|2.299352294352397|-1.099518813017621|-0.005730623845010996|-0.1027349233627319|0.02026340365409851|-0.01749107241630554|0.01637500524520874|-0.04055270552635193|XArbitraryZVertical|0.4325480968631741|0.6812089060219489|-0.5785835621794888|-0.1187341271655602|0.3387649357318878|0.8909890055656433|0.3022868633270264|0|0|0|-1|-1|3
2021-03-10 21:06:51.457 +0000|290893.965668375|0.3294525146484375|0.9377288818359375|0.2865447998046875|290893.945704375|-1.669087407264674|2.295266115332288|-1.099720162476145|-0.001249389140866697|-0.1082218289375305|0.02312505804002285|-0.01155468821525574|0.03332757949829102|-0.0397336483001709|XArbitraryZVertical|0.4319400266814786|0.6810421051408601|-0.5793931393175217|-0.1179540434418162|0.3398628234863281|0.891080379486084|0.3007810711860657|0|0|0|-1|-1|3
2021-03-10 21:06:51.477 +0000|290893.985632375|0.3365631103515625|0.9629364013671875|0.2950286865234375|290893.965668375|-1.670853331195151|2.291496617444211|-1.100439281170876|0.02864198014140129|-0.08821265399456024|0.007522040978074074|-0.01406601071357727|0.04371309280395508|-0.01344549655914307|XArbitraryZVertical|0.4312368493567569|0.680861359796664|-0.5802328169459495|-0.1174416344118978|0.340512603521347|0.8914065361022949|0.2990748286247253|0|0|0|-1|-1|3
2021-03-10 21:06:51.497 +0000|290894.005596375|0.3290863037109375|0.994049072265625|0.2723388671875|290893.985632375|-1.673014207071038|2.287551569050121|-1.101604197133223|0.04541536793112755|-0.09682275354862213|0.0095645971596241|-0.004312843084335327|0.06297636032104492|-0.005054503679275513|XArbitraryZVertical|0.4304835236454135|0.6805933050187208|-0.5811655786590291|-0.1171462566902604|0.3409065008163452|0.8919338583946228|0.2970466315746307|0|0|0|-1|-1|3
2021-03-10 21:06:51.517 +0000|290894.025559375|0.3483123779296875|0.995025634765625|0.2657318115234375|290894.005596375|-1.676449112015659|2.282295430507042|-1.102800689838901|0.08951950073242188|-0.09253394603729248|0.02974088117480278|-0.01253786683082581|0.09499830007553101|-0.01470747590065002|XArbitraryZVertical|0.4297697399529121|0.680128535606211|-0.5823088222543924|-0.1167887624042452|0.3416546881198883|0.8924742341041565|0.2945536971092224|0|0|0|-1|-1|3
2021-03-10 21:06:51.537 +0000|290894.045523375|0.3540802001953125|1.02001953125|0.262847900390625|290894.025559375|-1.682050092326465|2.275104465105627|-1.103508643847485|0.04959321767091751|-0.1134315580129623|0.1067224815487862|0.0006510019302368164|0.103101909160614|-0.02620747685432434|XArbitraryZVertical|0.4293676493308793|0.679325669966756|-0.5836521165190485|-0.1162333123999657|0.3432821333408356|0.8927933573722839|0.2916798889636993|0|0|0|-1|-1|3
2021-03-10 21:06:51.557 +0000|290894.065487375|0.3717498779296875|1.027496337890625|0.2482452392578125|290894.045523375|-1.687177667010707|2.26796541011451|-1.102189900388424|0.001999284373596311|-0.1377207636833191|0.1883126795291901|0.008188098669052124|0.1203747987747192|-0.02229282259941101|XArbitraryZVertical|0.4294145576216842|0.6786692989368761|-0.5846582700346326|-0.1148299637156515|0.3462584018707275|0.8921985626220703|0.2899777591228485|0|0|0|-1|-1|3
2021-03-10 21:06:51.577 +0000|290894.085450375|0.396026611328125|1.029403686523438|0.2539215087890625|290894.065487375|-1.693320938773284|2.259721445930642|-1.09951480026226|0.00864450354129076|-0.1464313715696335|0.261067658662796|0.01403912901878357|0.1325875520706177|-0.03971272706985474|XArbitraryZVertical|0.4298813108390529|0.6778766645189249|-0.5856170646441113|-0.1128624146574517|0.3504780828952789|0.8909871578216553|0.288629412651062|0|0|0|-1|-1|3
2021-03-10 21:06:51.597 +0000|290894.105414375|0.421661376953125|1.014328002929688|0.2572784423828125|290894.085450375|-1.702451217439218|2.24866575286885|-1.09525766553947|0.0432722233235836|-0.145853191614151|0.3363359868526459|0.03222551941871643|0.1491008400917053|-0.03734228014945984|XArbitraryZVertical|0.4310003997799365|0.6766057649291463|-0.5867611366479326|-0.1102485134352195|0.3565990030765533|0.8890462517738342|0.2871133983135223|0|0|0|-1|-1|3
2021-03-10 21:06:51.617 +0000|290894.125378375|0.421661376953125|1.011550903320312|0.24383544921875|290894.105414375|-1.7148778508802|2.234336524487171|-1.089990598288612|0.08056529611349106|-0.1818500757217407|0.4293821156024933|0.05637019872665405|0.1244858503341675|-0.02238810062408447|XArbitraryZVertical|0.4325612104010215|0.6747725976379307|-0.5882975887510397|-0.1071390357437404|0.3643604516983032|0.8866225481033325|0.284854531288147|0|0|0|-1|-1|3
2021-03-10 21:06:51.637 +0000|290894.145341375|0.4259185791015625|0.94000244140625|0.2680816650390625|290894.125378375|-1.730715653440485|2.216567438922453|-1.083991064171021|0.1450699269771576|-0.174726814031601|0.4966193735599518|0.04852861166000366|0.1321135759353638|-0.03760480880737305|XArbitraryZVertical|0.4344544980087407|0.6723207437483971|-0.5903351422704358|-0.1036273718679495|0.3736058473587036|0.8838318586349487|0.2815317809581757|0|0|0|-1|-1|3
2021-03-10 21:06:51.657 +0000|290894.165305375|0.465362548828125|0.9081878662109375|0.2934112548828125|290894.145341375|-1.749291540998309|2.197154570732368|-1.077220304578761|0.1349695920944214|-0.1326746493577957|0.575162947177887|0.03621929883956909|0.07548677921295166|-0.02293670177459717|XArbitraryZVertical|0.4369758185502889|0.6692653942714129|-0.5925466632848537|-0.1001225877888619|0.3838399648666382|0.8806442618370056|0.2777280807495117|0|0|0|-1|-1|3
2021-03-10 21:06:51.677 +0000|290894.185269375|0.4572601318359375|0.911041259765625|0.268463134765625|290894.165305375|-1.767623363899866|2.178110212606751|-1.068424019279381|0.07647611200809479|-0.1804731786251068|0.6544515490531921|0.06071063876152039|0.03841322660446167|0.01866376399993896|XArbitraryZVertical|0.4400893640117302|0.6661159174124749|-0.5944768245813131|-0.09595982638474909|0.395405113697052|0.8764427304267883|0.2747781276702881|0|0|0|-1|-1|3
2021-03-10 21:06:51.697 +0000|290894.205233375|0.4467010498046875|0.888641357421875|0.2358551025390625|290894.185269375|-1.785633372902503|2.158119602169396|-1.057879563077656|0.08000732958316803|-0.2390758842229843|0.7116274833679199|0.05180740356445312|0.04227256774902344|0.008637785911560059|XArbitraryZVertical|0.4432952241608608|0.6629118503189551|-0.5964874703862045|-0.09077435283140775|0.408489316701889|0.8713169097900391|0.2719255685806274|0|0|0|-1|-1|3
2021-03-10 21:06:51.717 +0000|290894.225196375|0.440460205078125|0.8105621337890625|0.2391357421875|290894.205233375|-1.805904723558012|2.135434628483969|-1.047303187630676|0.1863388270139694|-0.2693700790405273|0.7277133464813232|0.02521127462387085|0.03351885080337524|-0.02884343266487122|XArbitraryZVertical|0.4464003287742013|0.6591508396714276|-0.5991270199580361|-0.08540323080449036|0.422313779592514|0.8660781979560852|0.2675061523914337|0|0|0|-1|-1|3
2021-03-10 21:06:51.736 +0000|290894.245160375|0.4515838623046875|0.733184814453125|0.2401123046875|290894.225196375|-1.827432750266959|2.111172293698587|-1.036689604537871|0.1700862199068069|-0.3009976148605347|0.7413071393966675|0.005601376295089722|-0.03262937068939209|-0.0245155394077301|XArbitraryZVertical|0.4493848691792675|0.6549820612675883|-0.6022140704478016|-0.07993692511535749|0.4365372657775879|0.8607237339019775|0.2618965208530426|0|0|0|-1|-1|3
2021-03-10 21:06:51.756 +0000|290894.265124375|0.4615020751953125|0.6949920654296875|0.2555084228515625|290894.245160375|-1.846453133584373|2.088570296935691|-1.025864986882508|0.1346016973257065|-0.3375306129455566|0.6893056631088257|-0.0002649128437042236|-0.1047051548957825|-0.01914897561073303|XArbitraryZVertical|0.4520353529115891|0.6511100461180603|-0.6051506556588443|-0.07424589729015217|0.4504144787788391|0.8551628589630127|0.2565605044364929|0|0|0|-1|-1|3
2021-03-10 21:06:51.776 +0000|290894.285087375|0.4691162109375|0.6624298095703125|0.2695465087890625|290894.265124375|-1.860525351679079|2.069940720541263|-1.015151600989774|0.004140998236835003|-0.343612939119339|0.6235997080802917|-0.002333372831344604|-0.1513028740882874|-0.0004977583885192871|XArbitraryZVertical|0.4541836053739072|0.6480475783733903|-0.6075092354109476|-0.06844231196325078|0.4631337225437164|0.849560558795929|0.2524968087673187|0|0|0|-1|-1|3
2021-03-10 21:06:51.796 +0000|290894.305051375|0.480499267578125|0.6490631103515625|0.2792510986328125|290894.285087375|-1.8682945373155|2.056365189350622|-1.004335569782045|-0.1561648398637772|-0.3436583280563354|0.5223913192749023|-0.006233721971511841|-0.1798804402351379|0.01205191016197205|XArbitraryZVertical|0.4558196808875796|0.6461103312314314|-0.6090009635101555|-0.06235136510460346|0.4746175408363342|0.8438056111335754|0.250460296869278|0|0|0|-1|-1|3
2021-03-10 21:06:51.816 +0000|290894.325015375|0.487060546875|0.6994476318359375|0.29180908203125|290894.305051375|-1.868491637500761|2.049326230770737|-0.9939326362813935|-0.3264367878437042|-0.3480516374111176|0.4149176776409149|-0.006992578506469727|-0.1861845254898071|0.02574408054351807|XArbitraryZVertical|0.4568590642529597|0.6456398246384263|-0.609317016038447|-0.05623029848591168|0.4841349720954895|0.8381773233413696|0.2511419653892517|0|0|0|-1|-1|3
2021-03-10 21:06:51.836 +0000|290894.344979125|0.4940338134765625|0.7281036376953125|0.2921142578125|290894.325015375|-1.862483802748955|2.04769837555926|-0.9839291992558011|-0.4093838930130005|-0.3248531520366669|0.3136528432369232|-0.007577478885650635|-0.1485823392868042|0.03523907065391541|XArbitraryZVertical|0.4574146145196453|0.6464261083597788|-0.6085993907032264|-0.05011922855477174|0.4919677674770355|0.8326796293258667|0.2541896998882294|0|0|0|-1|-1|3
2021-03-10 21:06:51.856 +0000|290894.364943125|0.4809722900390625|0.761749267578125|0.26849365234375|290894.344979125|-1.85389004661497|2.048317529493247|-0.9754279817720943|-0.395296722650528|-0.3198418617248535|0.2203796207904816|-0.003877639770507812|-0.1141511201858521|0.03654277324676514|XArbitraryZVertical|0.4573579880484906|0.6478370238458701|-0.6075763667831106|-0.04451770023253862|0.498079389333725|0.8279419541358948|0.2577382922172546|0|0|0|-1|-1|3
2021-03-10 21:06:51.876 +0000|290894.384907125|0.4729156494140625|0.7979888916015625|0.2689208984375|290894.364943125|-1.846300254218629|2.048280380719267|-0.9690276360382571|-0.2700889408588409|-0.3064462840557098|0.1563607901334763|-0.01833409070968628|-0.07232129573822021|0.01421859860420227|XArbitraryZVertical|0.4567908403823844|0.6491664224751432|-0.6069110202310003|-0.03980282859162307|0.5027854442596436|0.8243356347084045|0.2601498365402222|0|0|0|-1|-1|3
2021-03-10 21:06:51.896 +0000|290894.404871125|0.474700927734375|0.779266357421875|0.270660400390625|290894.384907125|-1.841687041464289|2.046301700501366|-0.9642512855012454|-0.1637280583381653|-0.2680169343948364|0.141801729798317|-0.03001749515533447|-0.03310930728912354|0.01097318530082703|XArbitraryZVertical|0.4561122041680578|0.6499527203544458|-0.606818789218181|-0.03597284773366693|0.5067936182022095|0.821622371673584|0.2609537541866302|0|0|0|-1|-1|3
2021-03-10 21:06:51.916 +0000|290894.424834125|0.4709625244140625|0.790191650390625|0.268341064453125|290894.404871125|-1.83970358108326|2.04279743256893|-0.9606381040535363|-0.1316830813884735|-0.2487953007221222|0.132558599114418|-0.0356450080871582|-0.0324479341506958|0.006519675254821777|XArbitraryZVertical|0.4554773729954179|0.6502327143039485|-0.6071711420470818|-0.03288010472242334|0.510345995426178|0.8195573687553406|0.2605244517326355|0|0|0|-1|-1|3
2021-03-10 21:06:51.936 +0000|290894.444798125|0.470916748046875|0.80487060546875|0.249114990234375|290894.424834125|-1.837013363293811|2.040361357320935|-0.9569931680481816|-0.165835052728653|-0.2181361317634583|0.1191790625452995|-0.04392826557159424|-0.03064393997192383|0.01109814643859863|XArbitraryZVertical|0.4549452402806722|0.6506458599864977|-0.6072811415675953|-0.02990850973351619|0.5136396288871765|0.8174633979797363|0.2606303989887238|0|0|0|-1|-1|3
2021-03-10 21:06:51.956 +0000|290894.464762125|0.469146728515625|0.816802978515625|0.2352142333984375|290894.444798125|-1.833179361688581|2.039191461115576|-0.9534616004293208|-0.1733859330415726|-0.2029475420713425|0.08584533631801605|-0.04245686531066895|-0.01680952310562134|-0.005074828863143921|XArbitraryZVertical|0.4543902241962565|0.6513025808528798|-0.6071270198249851|-0.02704436694883772|0.5165170431137085|0.8154242038726807|0.2613310515880585|0|0|0|-1|-1|3
2021-03-10 21:06:51.976 +0000|290894.484725125|0.4710540771484375|0.8137359619140625|0.2377471923828125|290894.464762125|-1.829625278941387|2.038285946951209|-0.9508867286564496|-0.1224363818764687|-0.1732342690229416|0.04876144602894783|-0.05016565322875977|0.001742720603942871|-0.02757063508033752|XArbitraryZVertical|0.4537212331288023|0.6519518601108285|-0.6070298255459594|-0.02470959098320183|0.5186257362365723|0.8139309883117676|0.2618083655834198|0|0|0|-1|-1|3
2021-03-10 21:06:51.996 +0000|290894.504689125|0.469970703125|0.8249359130859375|0.230194091796875|290894.484725125|-1.826185399960515|2.038220532633304|-0.9498596844392867|-0.06312140822410583|-0.1522075086832047|-0.009020893834531307|-0.04792296886444092|-0.0001776218414306641|-0.0249684751033783|XArbitraryZVertical|0.4528839757517855|0.6526650538195479|-0.6069460352446902|-0.02326086283058468|0.5193891525268555|0.8133338689804077|0.2621511220932007|0|0|0|-1|-1|3
2021-03-10 21:06:52.016 +0000|290894.524653125|0.4689788818359375|0.8461456298828125|0.2067108154296875|290894.504689125|-1.823471068624904|2.038052981440039|-0.9502797786055688|0.003550309455022216|-0.1297472566366196|-0.06797635555267334|-0.04888230562210083|0.004277527332305908|-0.02297261357307434|XArbitraryZVertical|0.4518223496276242|0.6533081825273858|-0.6070724361127394|-0.0225392077811486|0.5191276669502258|0.813578188419342|0.2619100213050842|0|0|0|-1|-1|3
2021-03-10 21:06:52.036 +0000|290894.544616125|0.4580535888671875|0.820770263671875|0.2031707763671875|290894.524653125|-1.823039714005002|2.036348944386179|-0.9527842802548967|0.105782188475132|-0.1034310162067413|-0.1112276017665863|-0.04736840724945068|0.03166306018829346|-0.052406907081604|XArbitraryZVertical|0.4504201777989082|0.6535873922068909|-0.6078043635008579|-0.02278470386053785|0.5177510976791382|0.8150319457054138|0.2601096332073212|0|0|0|-1|-1|3
2021-03-10 21:06:52.056 +0000|290894.564580125|0.475860595703125|0.8106231689453125|0.2233428955078125|290894.544616125|-1.82508470157481|2.033014828451277|-0.956789892571571|0.1153814047574997|-0.05075822025537491|-0.1159759312868118|-0.05659794807434082|0.01169425249099731|-0.05477547645568848|XArbitraryZVertical|0.4488826658000004|0.6534266448039121|-0.6090740319551219|-0.02381010590726201|0.5156892538070679|0.8173462748527527|0.2569240629673004|0|0|0|-1|-1|3
2021-03-10 21:06:52.076 +0000|290894.584544125|0.4922943115234375|0.857421875|0.2317352294921875|290894.564580125|-1.825324693428405|2.032387770681842|-0.9600435172433535|0.001903643598780036|0.007809807546436787|-0.1081606149673462|-0.0424731969833374|-0.01390349864959717|-0.03759545087814331|XArbitraryZVertical|0.447800708227605|0.6535915350176932|-0.609649934772866|-0.02489104164114178|0.5134661793708801|0.8192165493965149|0.2554147243499756|0|0|0|-1|-1|3
2021-03-10 21:06:52.096 +0000|290894.604507125|0.504974365234375|0.863128662109375|0.237030029296875|290894.584544125|-1.823116955231344|2.034738742906175|-0.9626692865634131|-0.01735237613320351|0.04925882071256638|-0.1133074387907982|-0.02306973934173584|0.03268927335739136|-0.02811872959136963|XArbitraryZVertical|0.4470122784635082|0.6542239220734889|-0.6095055189904415|-0.02596500819997141|0.5109390616416931|0.8207195401191711|0.255657821893692|0|0|0|-1|-1|3
2021-03-10 21:06:52.116 +0000|290894.624471125|0.52203369140625|0.8399505615234375|0.2415771484375|290894.604507125|-1.822323883514301|2.036283971655854|-0.9652298643253099|-0.006430202629417181|0.08662557601928711|-0.08368963003158569|-0.007000446319580078|0.03536415100097656|-0.01957154273986816|XArbitraryZVertical|0.4464595232219253|0.6545420836910963|-0.6095159464751925|-0.02718287633821179|0.5086637139320374|0.8221797943115234|0.2555028796195984|0|0|0|-1|-1|3
2021-03-10 21:06:52.136 +0000|290894.644435125|0.521881103515625|0.8477325439453125|0.2410430908203125|290894.624471125|-1.822668132069544|2.037391575763285|-0.9675094531569708|0.006009123288094997|0.09819802641868591|-0.06186493486166|0.01247513294219971|0.02585947513580322|-0.01478958129882812|XArbitraryZVertical|0.4462289850476913|0.6545921429625439|-0.6095708757899229|-0.02849953794218216|0.5067052245140076|0.8234752416610718|0.255222350358963|0|0|0|-1|-1|3
2021-03-10 21:06:52.156 +0000|290894.664399125|0.5296478271484375|0.854095458984375|0.2427215576171875|290894.644435125|-1.822698383545744|2.039025975331971|-0.9690001101068328|-0.01177959516644478|0.1058436408638954|-0.04580944776535034|0.01765120029449463|0.02190172672271729|-0.01301828026771545|XArbitraryZVertical|0.4462916803249175|0.654653819789105|-0.6094062009791641|-0.02959932977601792|0.5051912069320679|0.8243200778961182|0.2554957866668701|0|0|0|-1|-1|3
2021-03-10 21:06:52.176 +0000|290894.684362125|0.524932861328125|0.861236572265625|0.230072021484375|290894.664399125|-1.822388268390564|2.040982315328363|-0.9700854363995688|-0.0161669198423624|0.09022047370672226|-0.03373076766729355|0.02467161417007446|0.02285969257354736|-0.01642367243766785|XArbitraryZVertical|0.4464617801640063|0.6547602984200207|-0.6091204270891439|-0.03054938123166767|0.5038929581642151|0.8249340057373047|0.2560783326625824|0|0|0|-1|-1|3
2021-03-10 21:06:52.196 +0000|290894.704326125|0.5296478271484375|0.837646484375|0.243804931640625|290894.684362125|-1.82274824427497|2.042043966392658|-0.9712880831241371|0.0373145155608654|0.07711803913116455|-0.0438309833407402|0.01996892690658569|0.04065871238708496|-0.01962059736251831|XArbitraryZVertical|0.4465436596997775|0.6547365472455272|-0.6090396896188016|-0.03145503689529963|0.5027360916137695|0.8256132006645203|0.2561623752117157|0|0|0|-1|-1|3
2021-03-10 21:06:52.216 +0000|290894.724290125|0.5207672119140625|0.8372650146484375|0.23077392578125|290894.724290125|-1.826050805332862|2.040890996560909|-0.9732971861360229|0.02850985527038574|0.02522054128348827|-0.005298682954162359|0.02066546678543091|0.01457864046096802|-0.02185943722724915|XArbitraryZVertical|0.4466724918384767|0.6541399298792304|-0.6095134426933813|-0.03283273886795579|0.5015513896942139|0.8267451524734497|0.2548307180404663|0|0|0|-1|-1|3
2021-03-10 21:06:52.236 +0000|290894.744253125|0.516448974609375|0.8392333984375|0.2159576416015625||||||||||||||||||||||||3
2021-03-10 21:06:52.256 +0000|290894.764217125|0.5046844482421875|0.8349151611328125|0.227447509765625|290894.744253125|-1.827243760233528|2.039877373933821|-0.9734542656782242|0.005448576994240284|0.000275670550763607|0.008908659219741821|0.01510614156723022|0.009683966636657715|-0.0348878800868988|XArbitraryZVertical|0.4467065905053735|0.6538998871333003|-0.6097412486219388|-0.03292319421380285|0.5016939043998718|0.8268334865570068|0.2542636692523956|0|0|0|-1|-1|3
2021-03-10 21:06:52.276 +0000|290894.784181125|0.523681640625|0.8097991943359375|0.2534942626953125|290894.764217125|-1.828097789271675|2.039517467968577|-0.9733554663790999|-0.00726021034643054|0.0762542188167572|0.01389427483081818|0.004535257816314697|0.009907424449920654|-0.03292843699455261|XArbitraryZVertical|0.4469055909209765|0.6537089544719599|-0.6097944314998939|-0.03302906662936525|0.5018582940101624|0.8267779350280762|0.2541200220584869|0|0|0|-1|-1|3
2021-03-10 21:06:52.295 +0000|290894.804144125|0.5103912353515625|0.83795166015625|0.263671875|290894.784181125|-1.828606110053219|2.040878102099867|-0.973048108280876|-0.03588918969035149|0.1111222952604294|0.01553620211780071|0.01420718431472778|-0.005026042461395264|-0.006031304597854614|XArbitraryZVertical|0.447578420760391|0.6535536077878776|-0.6094407379724625|-0.03351433559169836|0.5017381906509399|0.826604962348938|0.2549175322055817|0|0|0|-1|-1|3
2021-03-10 21:06:52.316 +0000|290894.824108125|0.518707275390625|0.873779296875|0.24993896484375|290894.804144125|-1.82700806060124|2.044582134472543|-0.9715253647738545|-0.1558482497930527|0.1857414543628693|0.06630013138055801|0.01830762624740601|-0.002520084381103516|0.005285978317260742|XArbitraryZVertical|0.4486387470043205|0.6537564176106251|-0.6084342729824939|-0.03367009675159172|0.5019102692604065|0.825747013092041|0.257348358631134|0|0|0|-1|-1|3
2021-03-10 21:06:52.335 +0000|290894.844072125|0.5556640625|0.952606201171875|0.302490234375|290894.824108125|-1.822564249365513|2.053023708272764|-0.9678804295297825|-0.288206547498703|0.3295271098613739|0.1345335245132446|0.007291018962860107|0.03822219371795654|-0.01321402192115784|XArbitraryZVertical|0.4508353442194549|0.654394757686509|-0.6061170245553594|-0.03372191496722746|0.5023830533027649|0.8236856460571289|0.2629700005054474|0|0|0|-1|-1|3
2021-03-10 21:06:52.355 +0000|290894.864036125|0.5619964599609375|1.046096801757812|0.4002532958984375|290894.844072125|-1.81615275495017|2.065116628153442|-0.962657184210019|-0.3792946934700012|0.4037192761898041|0.1625208556652069|0.04717832803726196|0.1097989082336426|0.01091909408569336|XArbitraryZVertical|0.4539425062892288|0.6553380126962897|-0.6027654608992846|-0.03379545184308233|0.5029468536376953|0.8207126259803772|0.2710634171962738|0|0|0|-1|-1|3
2021-03-10 21:06:52.375 +0000|290894.883999125|0.5506591796875|1.108596801757812|0.4556732177734375|290894.864036125|-1.808743794723879|2.079513509535792|-0.9558424418662517|-0.3579743206501007|0.4684140384197235|0.2395814657211304|0.05599474906921387|0.2026243805885315|0.08569049835205078|XArbitraryZVertical|0.4578518705143743|0.6564057042728066|-0.5986353084069441|-0.03374976938085283|0.5038654804229736|0.816800057888031|0.2809935808181763|0|0|0|-1|-1|3
2021-03-10 21:06:52.395 +0000|290894.903963125|0.502166748046875|0.787353515625|0.332763671875|290894.883999125|-1.804906735823104|2.092062769504855|-0.947623042699141|-0.1910677254199982|0.4508841335773468|0.3289771378040314|0.05317568778991699|0.318279504776001|0.1885133981704712|XArbitraryZVertical|0.4627522561306722|0.6566386541387497|-0.5946034041901922|-0.03365884638830804|0.5061047077178955|0.812030553817749|0.2906279563903809|0|0|0|-1|-1|3
2021-03-10 21:06:52.415 +0000|290894.923927125|0.5033721923828125|1.020431518554688|0.2397613525390625|290894.903963125|-1.802259764079901|2.100914360722383|-0.9348572821136411|-0.8206121325492859|0.1763043850660324|0.8260195851325989|0.01164859533309937|0.04373717308044434|0.0801033079624176|XArbitraryZVertical|0.4682345543241411|0.6564398281841507|-0.590661681553502|-0.03101716397395046|0.5124146342277527|0.8045143485069275|0.3003136813640594|0|0|0|-1|-1|3
2021-03-10 21:06:52.435 +0000|290894.943890125|0.664886474609375|1.188949584960938|0.240203857421875|290894.923927125|-1.787549274484932|2.111436806947478|-0.8992149960354717|-1.589805126190186|-0.3309203684329987|1.717146754264832|-0.06334400177001953|0.1390210390090942|-0.06870865821838379|XArbitraryZVertical|0.4767779653598843|0.6578812348806425|-0.5827439422005044|-0.01686958560739488|0.533482551574707|0.7828387022018433|0.3202498853206635|0|0|0|-1|-1|3
2021-03-10 21:06:52.455 +0000|290894.963854125|0.6415252685546875|0.8726959228515625|0.3040008544921875|290894.943890125|-1.769409300215171|2.108067415960395|-0.8496595023652805|-2.019690990447998|-1.401546597480774|1.864402770996094|0.09408384561538696|0.4573030471801758|-0.1079407334327698|XArbitraryZVertical|0.4838919836308839|0.6593947908185187|-0.5753123729696822|0.007915325139844442|0.5672167539596558|0.7510556578636169|0.3379058837890625|0|0|0|-1|-1|3
2021-03-10 21:06:52.475 +0000|290894.983818125|0.795318603515625|0.8357086181640625|0.54791259765625|290894.963854125|-1.743172829840212|2.092369405029722|-0.7958527354280533|-2.105113983154297|-2.043681383132935|1.898809313774109|0.02023231983184814|0.2479419112205505|-0.07649967074394226|XArbitraryZVertical|0.4857465898826485|0.6620839645120187|-0.5692590817791935|0.04048830940890827|0.6066446304321289|0.7144604921340942|0.3486098647117615|0|0|0|-1|-1|3
2021-03-10 21:06:52.495 +0000|290895.003781125|0.7476043701171875|0.90789794921875|0.5264739990234375|290894.983818125|-1.72597288423618|2.062136750868321|-0.7473552575476007|-1.283689260482788|-2.189290523529053|1.696017265319824|0.1149089336395264|0.1100631356239319|0.1426423788070679|XArbitraryZVertical|0.4848344337918203|0.661792019347325|-0.5671134051990483|0.07313940239966052|0.6467183828353882|0.6797012686729431|0.3460662066936493|0|0|0|-1|-1|3
2021-03-10 21:06:52.515 +0000|290895.023745125|0.6256256103515625|0.658203125|0.2879638671875|290895.003781125|-1.72978691471286|2.017418664890448|-0.7149329702226042|0.1304504722356796|-1.981104254722595|1.360739827156067|0.09099757671356201|0.243801474571228|0.243191123008728|XArbitraryZVertical|0.4822580628235493|0.6561304987173315|-0.5720178608604561|0.09856748334501569|0.6810666918754578|0.6555668115615845|0.3261601328849792|0|0|0|-1|-1|3
2021-03-10 21:06:52.535 +0000|290895.043709125|0.5198516845703125|0.3789215087890625|0.1210784912109375|290895.023745125|-1.760298074232661|1.963011837306757|-0.6999282791309146|1.233130574226379|-1.503158807754517|0.9164019823074341|-0.05560678243637085|0.1065084934234619|0.0566459596157074|XArbitraryZVertical|0.4805881439990598|0.6443750521291847|-0.5840170265724219|0.112871254528515|0.7068061828613281|0.6441628336906433|0.2923683524131775|0|0|0|-1|-1|3
2021-03-10 21:06:52.555 +0000|290895.063672125|0.5533905029296875|0.1840667724609375|-0.02667236328125|290895.043709125|-1.801054423547222|1.912316852198636|-0.6981222531981747|1.561537146568298|-0.9087238311767578|0.3587433397769928|-0.1865606904029846|-0.1988259553909302|-0.09268632531166077|XArbitraryZVertical|0.479104957756862|0.6314596883013083|-0.5982272519706892|0.1176489764128238|0.7218084335327148|0.6427803635597229|0.2565658092498779|0|0|0|-1|-1|3
2021-03-10 21:06:52.575 +0000|290895.083636125|0.534332275390625|0.1606597900390625|-0.045257568359375|290895.063672125|-1.841268670625958|1.874093724695594|-0.705768339921507|1.545433878898621|-0.3412283957004547|-0.08530909568071365|-0.1793768405914307|-0.4300519227981567|-0.22181236743927|XArbitraryZVertical|0.4780091102359599|0.6206188043038375|-0.6108903175990832|0.1146852851071944|0.7263739705085754|0.6486188173294067|0.2273208200931549|0|0|0|-1|-1|3
2021-03-10 21:06:52.595 +0000|290895.103600125|0.5275115966796875|0.2539520263671875|0.062835693359375|290895.083636125|-1.875453970872556|1.849707484120577|-0.7189410752835733|1.302482008934021|0.115256056189537|-0.4277359545230865|-0.1840865015983582|-0.5054357647895813|-0.260164737701416|XArbitraryZVertical|0.4773622920429594|0.612952502671249|-0.6204741902690518|0.1068938838248789|0.7234237194061279|0.658588171005249|0.2071710526943207|0|0|0|-1|-1|3
2021-03-10 21:06:52.615 +0000|290895.123564125|0.55322265625|0.42022705078125|0.1994781494140625|290895.103600125|-1.901540878996724|1.83866837561402|-0.7355252824504126|1.039069533348083|0.518899142742157|-0.6331918835639954|-0.1877519488334656|-0.4533711075782776|-0.1665608584880829|XArbitraryZVertical|0.4772378319020096|0.6085813998597279|-0.6266104408610733|0.09608436152812233|0.7150347232818604|0.6709767580032349|0.1962545365095139|0|0|0|-1|-1|3
2021-03-10 21:06:52.635 +0000|290895.143527125|0.5476531982421875|0.5109100341796875|0.3202362060546875|290895.123564125|-1.920973941934118|1.838291090022373|-0.7539444861079561|0.8605987429618835|0.7522103190422058|-0.7676962614059448|-0.1533401608467102|-0.3093670010566711|-0.02648618817329407|XArbitraryZVertical|0.4778452263284145|0.6066353363642188|-0.6298492258280209|0.08335126440838234|0.7030685544013977|0.6845195889472961|0.1926849782466888|0|0|0|-1|-1|3
2021-03-10 21:06:52.655 +0000|290895.163491125|0.5343475341796875|0.4742889404296875|0.304107666015625|290895.143527125|-1.936901374483336|1.844457344953186|-0.7735740890753202|0.7777455449104309|0.9602988362312317|-0.821144700050354|-0.1415393352508545|-0.1930967569351196|0.1088833510875702|XArbitraryZVertical|0.4790837360693865|0.605931095796248|-0.6312938335823859|0.06924099078450732|0.6887957453727722|0.6986966729164124|0.1933474391698837|0|0|0|-1|-1|3
2021-03-10 21:06:52.675 +0000|290895.183455125|0.5104217529296875|0.4637451171875|0.2073516845703125|290895.163491125|-1.949799912203794|1.8563429495633|-0.7936322010732851|0.6299082636833191|1.111819863319397|-0.8542971014976501|-0.133054792881012|-0.2236320376396179|0.117012232542038|XArbitraryZVertical|0.4810721891528619|0.6060823209022053|-0.6311109096125476|0.05415532445668295|0.6728649735450745|0.7129051089286804|0.1975324600934982|0|0|0|-1|-1|3
2021-03-10 21:06:52.695 +0000|290895.203418125|0.516448974609375|0.56268310546875|0.1725311279296875|290895.183455125|-1.956154803832534|1.874393024612143|-0.8117712506816007|0.281969279050827|1.155773758888245|-0.7379947900772095|-0.1393455862998962|-0.2758156061172485|0.02315245568752289|XArbitraryZVertical|0.4835436014786545|0.6075013901858143|-0.6289137613079243|0.0399391661345391|0.656740665435791|0.7255073189735413|0.2057447135448456|0|0|0|-1|-1|3
2021-03-10 21:06:52.715 +0000|290895.223382125|0.5522003173828125|0.709381103515625|0.224761962890625|290895.203418125|-1.952081328231145|1.900402154789093|-0.8241654959675607|-0.1892924159765244|1.113637447357178|-0.5381990671157837|-0.1347213387489319|-0.196261465549469|-0.05800744891166687|XArbitraryZVertical|0.4869285977812744|0.6105850004753535|-0.6239108062269577|0.02866939007147448|0.6426102519035339|0.7339812517166138|0.2198270112276077|0|0|0|-1|-1|3
2021-03-10 21:06:52.735 +0000|290895.243346125|0.56243896484375|0.7606353759765625|0.270294189453125|290895.223382125|-1.936285770725663|1.932155173010498|-0.8305539142573535|-0.5660609602928162|0.8976145386695862|-0.4663057923316956|-0.08214110136032104|-0.07322019338607788|-0.02698323130607605|XArbitraryZVertical|0.4901188638262926|0.6156386790651841|-0.6166952057027187|0.02144149512564328|0.6309083104133606|0.7383050918579102|0.2384549677371979|0|0|0|-1|-1|3
2021-03-10 21:06:52.755 +0000|290895.263309125|0.602294921875|0.831085205078125|0.3150787353515625|290895.243346125|-1.913416549697656|1.965236930026786|-0.8347669646861563|-0.6836623549461365|0.7283912897109985|-0.4886663258075714|-0.06294435262680054|0.01804566383361816|0.00116083025932312|XArbitraryZVertical|0.4919816555525608|0.6220540910245148|-0.6088729065256544|0.01663037752839586|0.6197986006736755|0.7411400675773621|0.2579944729804993|0|0|0|-1|-1|3
2021-03-10 21:06:52.775 +0000|290895.283273125|0.6421051025390625|0.8675079345703125|0.3209075927734375|290895.263309125|-1.889714444084257|1.995787403239887|-0.8386395284090729|-0.5756032466888428|0.5550647377967834|-0.5067960619926453|-0.01562553644180298|0.06179231405258179|0.0351855456829071|XArbitraryZVertical|0.492717821364402|0.6285217190861312|-0.6016858143187229|0.01279722111619822|0.609009325504303|0.7437343597412109|0.2756208181381226|0|0|0|-1|-1|3
2021-03-10 21:06:52.795 +0000|290895.303237125|0.666290283203125|0.8732147216796875|0.334136962890625|290895.283273125|-1.870731582205647|2.019326607165097|-0.844628849083697|-0.3371083438396454|0.380793422460556|-0.5660985112190247|0.03311043977737427|0.1199052333831787|0.03021916747093201|XArbitraryZVertical|0.4920792137472823|0.6338998424307084|-0.5966167414254961|0.008805290216333944|0.598328709602356|0.747724711894989|0.2879419326782227|0|0|0|-1|-1|3
2021-03-10 21:06:52.815 +0000|290895.323201125|0.6883544921875|0.8952789306640625|0.33135986328125|290895.303237125|-1.855724181479633|2.036518300042473|-0.8526337515100847|-0.2131418138742447|0.2239850908517838|-0.593779981136322|0.07490319013595581|0.1128897070884705|0.0312335193157196|XArbitraryZVertical|0.4901481452847926|0.6383562136866684|-0.5934923116530951|0.004797509515691994|0.5879233479499817|0.7530160546302795|0.2954877316951752|0|0|0|-1|-1|3
2021-03-10 21:06:52.834 +0000|290895.343164|0.683807373046875|0.93353271484375|0.2971954345703125|290895.323201125|-1.843096892408546|2.049020289096871|-0.8621881457974199|-0.09137509018182755|0.07409317046403885|-0.6302406787872314|0.1062670946121216|0.1301205158233643|0.03791254758834839|XArbitraryZVertical|0.4870919161965953|0.64225102233938|-0.591822693684888|0.0009537053501842419|0.5777691602706909|0.7592684030532837|0.299489825963974|0|0|0|-1|-1|3
2021-03-10 21:06:52.855 +0000|290895.363128|0.659515380859375|0.9434051513671875|0.27996826171875|290895.343164|-1.833396266384599|2.056524869426632|-0.8729837974841155|0.04209868237376213|-0.05754693597555161|-0.6119798421859741|0.1203140616416931|0.157410740852356|0.005050182342529297|XArbitraryZVertical|0.4831076663022631|0.6454405767080762|-0.5916135607339574|-0.002635818156888237|0.5682235360145569|0.7662495374679565|0.2999731004238129|0|0|0|-1|-1|3
2021-03-10 21:06:52.874 +0000|290895.383092|0.6399383544921875|0.9155426025390625|0.2823333740234375|290895.363128|-1.828090029435001|2.058634731513568|-0.8846930445211786|0.1973052471876144|-0.127897322177887|-0.5687903165817261|0.1046052575111389|0.1743691563606262|-0.01793834567070007|XArbitraryZVertical|0.4786597174122092|0.6475782292588091|-0.5928658430246014|-0.0061280834275175|0.5596251487731934|0.7737205624580383|0.2969453632831573|0|0|0|-1|-1|3
2021-03-10 21:06:52.894 +0000|290895.403055|0.6141815185546875|0.9044647216796875|0.2690277099609375|290895.383092|-1.827010738801983|2.05636486374924|-0.8959654285322288|0.2605022192001343|-0.1812300533056259|-0.4565716683864594|0.09411913156509399|0.1379342079162598|-0.006901651620864868|XArbitraryZVertical|0.4743868638433986|0.6486521142435686|-0.5950808435986813|-0.009287479450727637|0.5525484085083008|0.7808126211166382|0.2915849089622498|0|0|0|-1|-1|3
2021-03-10 21:06:52.914 +0000|290895.423019|0.5886688232421875|0.8699798583984375|0.2657928466796875|290895.403055|-1.82878330826676|2.051167291016119|-0.9056708527604826|0.2688041925430298|-0.1909285336732864|-0.3500849306583405|0.07405805587768555|0.1210129261016846|-0.01866850256919861|XArbitraryZVertical|0.4705998582464448|0.6489473870771292|-0.597716488875017|-0.01175759671899515|0.547310471534729|0.7868393659591675|0.2851938903331757|0|0|0|-1|-1|3
2021-03-10 21:06:52.934 +0000|290895.442983|0.57879638671875|0.8364715576171875|0.2590789794921875|290895.423019|-1.831583162012723|2.04533229376137|-0.9130538404249301|0.2204322814941406|-0.168640062212944|-0.2279636263847351|0.05016577243804932|0.08429694175720215|-0.008214980363845825|XArbitraryZVertical|0.4676120794355107|0.6488494083406157|-0.6001267371204634|-0.01346263373094822|0.5437825918197632|0.7913743257522583|0.279333233833313|0|0|0|-1|-1|3
2021-03-10 21:06:52.954 +0000|290895.462946|0.5617218017578125|0.8243560791015625|0.238739013671875|290895.442983|-1.834352373965667|2.040152036446519|-0.917858782499258|0.1437715440988541|-0.1403225064277649|-0.1258154213428497|0.0393366813659668|0.04804354906082153|-0.01139235496520996|XArbitraryZVertical|0.4655500626553491|0.6485814616880786|-0.6019947077695313|-0.01441025418477682|0.5418248772621155|0.7943025827407837|0.2747895419597626|0|0|0|-1|-1|3
2021-03-10 21:06:52.974 +0000|290895.48291|0.5536651611328125|0.791473388671875|0.2479248046875|290895.462946|-1.836435221531428|2.036029768609496|-0.9202746933614149|0.08829079568386078|-0.1015273332595825|-0.03997232764959335|0.023842453956604|0.03528660535812378|-0.03138118982315063|XArbitraryZVertical|0.4642760945826075|0.6483005685756065|-0.6032749873525489|-0.01460442432306749|0.5412362217903137|0.7957680225372314|0.2716918289661407|0|0|0|-1|-1|3
2021-03-10 21:06:52.994 +0000|290895.502874|0.5448760986328125|0.7850799560546875|0.2517547607421875|290895.48291|-1.838284172773526|2.032895676771634|-0.9209918087660213|0.04278754442930222|-0.06694235652685165|0.02532624825835228|0.01437973976135254|0.0006117820739746094|-0.02376800775527954|XArbitraryZVertical|0.4637190775841223|0.6479463755583843|-0.6040879775119532|-0.01441482130135527|0.5415741801261902|0.7962020635604858|0.2697397768497467|0|0|0|-1|-1|3
2021-03-10 21:06:53.014 +0000|290895.522837|0.5340728759765625|0.78326416015625|0.25396728515625|290895.502874|-1.839632056074093|2.030880582193404|-0.9205576302056245|0.0152625422924757|-0.03322961181402206|0.04459457471966743|0.005898177623748779|-0.01066106557846069|-0.01434579491615295|XArbitraryZVertical|0.4636740978863981|0.6476164266629419|-0.6044858074930708|-0.01400708252369995|0.5424264073371887|0.7959393262863159|0.2688014209270477|0|0|0|-1|-1|3
2021-03-10 21:06:53.034 +0000|290895.542801|0.529754638671875|0.781463623046875|0.2583465576171875|290895.522837|-1.840646913493833|2.029684340996986|-0.9199661293008049|0.0124540226534009|-0.005460085812956095|0.03834928199648857|-0.007189393043518066|-0.01010441780090332|-0.01623976230621338|XArbitraryZVertical|0.4638144705133104|0.6473457934677446|-0.6046749199051638|-0.01370544603916163|0.5431696176528931|0.7955811023712158|0.2683608829975128|0|0|0|-1|-1|3
2021-03-10 21:06:53.054 +0000|290895.562765|0.5244598388671875|0.766845703125|0.2552642822265625|290895.542801|-1.842465552798983|2.027965732250212|-0.9196323495740071|0.01966086961328983|0.01031727902591228|0.03109394572675228|-0.01141273975372314|-0.0131218433380127|-0.007488548755645752|XArbitraryZVertical|0.4639810681396265|0.6469108370460495|-0.6050154005349552|-0.01357468949338059|0.5438681840896606|0.7953788638114929|0.2675441205501556|0|0|0|-1|-1|3
2021-03-10 21:06:53.074 +0000|290895.582729|0.5225067138671875|0.770904541015625|0.250457763671875|290895.562765|-1.844088476621627|2.026650701926764|-0.9195131615260171|0.01307460572570562|0.02478373050689697|0.0166358221322298|-0.01830375194549561|-0.02908647060394287|-0.009469985961914062|XArbitraryZVertical|0.4641428807238775|0.6465343293102024|-0.6052932844851319|-0.01359582823202202|0.5443047881126404|0.7953065633773804|0.2668704986572266|0|0|0|-1|-1|3
2021-03-10 21:06:53.094 +0000|290895.602692|0.52020263671875|0.7697296142578125|0.257171630859375|290895.582729|-1.845035150782727|2.026270979451243|-0.9194598079757154|0.009204516187310219|0.03210364282131195|0.002572467084974051|-0.01980108022689819|-0.02304232120513916|-0.01483610272407532|XArbitraryZVertical|0.4643496006321038|0.6463131174708523|-0.605367658828974|-0.01373978479721419|0.5444440841674805|0.7952742576599121|0.2666823863983154|0|0|0|-1|-1|3
2021-03-10 21:06:53.114 +0000|290895.622656|0.52984619140625|0.7789459228515625|0.266754150390625|290895.602692|-1.845417358914919|2.02659429264439|-0.9197345948715542|0.001682468224316835|0.05105144530534744|-0.01378990523517132|-0.02408111095428467|-0.02685546875|-0.01349684596061707|XArbitraryZVertical|0.4644903434615533|0.6462428986466314|-0.6053273469092428|-0.01406251586411683|0.5441617965698242|0.7954407930374146|0.2667623162269592|0|0|0|-1|-1|3
2021-03-10 21:06:53.134 +0000|290895.64262|0.52874755859375|0.772857666015625|0.2661895751953125|290895.622656|-1.845306820990488|2.027789863241544|-0.9202383950561106|0.00892774760723114|0.06148293986916542|-0.03896814212203026|-0.01568090915679932|-0.0193178653717041|0.0006321072578430176|XArbitraryZVertical|0.4646687647681117|0.6462977431042117|-0.605118827376008|-0.01460412029001856|0.5434824228286743|0.7957460284233093|0.267235666513443|0|0|0|-1|-1|3
2021-03-10 21:06:53.154 +0000|290895.662583|0.5343170166015625|0.7892608642578125|0.264556884765625|290895.64262|-1.845003702729729|2.029370160170563|-0.9212310785175333|-0.004054396878927946|0.07749290764331818|-0.06113149970769882|-0.0139545202255249|-0.02391642332077026|-0.004530429840087891|XArbitraryZVertical|0.4647577105970876|0.646430619690244|-0.6048891026423147|-0.01539420851283571|0.5423511862754822|0.7963468432426453|0.2677445411682129|0|0|0|-1|-1|3
2021-03-10 21:06:53.174 +0000|290895.682547|0.5419921875|0.771392822265625|0.2686767578125|290895.662583|-1.843927794041694|2.031793871057287|-0.9224079628188936|-0.01027732249349356|0.0878097265958786|-0.07786227017641068|-0.008695065975189209|-0.01065075397491455|-0.002787142992019653|XArbitraryZVertical|0.4647976217650416|0.6467485492086544|-0.604494796056862|-0.01629294026074371|0.5408605933189392|0.79705810546875|0.2686410248279572|0|0|0|-1|-1|3
2021-03-10 21:06:53.194 +0000|290895.702511|0.5444793701171875|0.7799530029296875|0.26959228515625|290895.682547|-1.84231083524019|2.03489830016685|-0.9239044130041616|-0.03070866130292416|0.1012552827596664|-0.09826128929853439|0.0009905099868774414|-0.02409619092941284|-0.003320455551147461|XArbitraryZVertical|0.4647735926386615|0.6472077389122839|-0.6039917553798456|-0.01736829016829369|0.5389570593833923|0.7979609370231628|0.269784688949585|0|0|0|-1|-1|3
2021-03-10 21:06:53.214 +0000|290895.722474|0.5453033447265625|0.762664794921875|0.267791748046875|290895.702511|-1.839758432677859|2.039112120452408|-0.9255082657856374|-0.02613105252385139|0.1112683415412903|-0.1219524145126343|0.006051838397979736|-0.01895815134048462|0.0004821121692657471|XArbitraryZVertical|0.4647486082654487|0.6478784123647513|-0.6032560633185577|-0.01856206834270555|0.5366728901863098|0.7989265322685242|0.2714754045009613|0|0|0|-1|-1|3
2021-03-10 21:06:53.234 +0000|290895.742438|0.54998779296875|0.764373779296875|0.275543212890625|290895.722474|-1.837011721709011|2.043622121826313|-0.9274691151508905|-0.03936098888516426|0.1337044090032578|-0.1437308490276337|0.01082909107208252|-0.03565436601638794|-0.00801163911819458|XArbitraryZVertical|0.4646428730612691|0.6486111659503853|-0.6025058455425245|-0.01992959467172584|0.53404700756073|0.8001043200492859|0.2731788754463196|0|0|0|-1|-1|3
2021-03-10 21:06:53.254 +0000|290895.762402|0.5367279052734375|0.7429351806640625|0.29522705078125|290895.742438|-1.833037718573119|2.04959764024267|-0.9295285870643678|-0.08039499074220657|0.1549944132566452|-0.1670696586370468|0.01694035530090332|-0.03527051210403442|-0.002351164817810059|XArbitraryZVertical|0.4645476591556822|0.6496139467671901|-0.6014461691420444|-0.02144277917255291|0.5309417843818665|0.8013380169868469|0.2756056189537048|0|0|0|-1|-1|3
2021-03-10 21:06:53.274 +0000|290895.782365|0.5364227294921875|0.7084503173828125|0.295257568359375|290895.762402|-1.826983018040883|2.057678949524653|-0.9315175761591343|-0.1573688238859177|0.2129543721675873|-0.2118904739618301|0.01543730497360229|-0.05573070049285889|0.01071509718894958|XArbitraryZVertical|0.4644229625320924|0.6510620181917011|-0.5999172662888862|-0.0229958308492807|0.5272873044013977|0.8025262951850891|0.2791408896446228|0|0|0|-1|-1|3
2021-03-10 21:06:53.294 +0000|290895.802329|0.5272979736328125|0.6960296630859375|0.2749786376953125|290895.782365|-1.818139961098241|2.069682771508667|-0.9330988127998442|-0.2679718732833862|0.2992063462734222|-0.2279959470033646|0.009519100189208984|-0.08224672079086304|0.01148307323455811|XArbitraryZVertical|0.4646699458992002|0.6530721102522766|-0.5974621824455596|-0.02485300406964452|0.5227838158607483|0.803468644618988|0.2848426699638367|0|0|0|-1|-1|3
