loggingTime(txt)|accelerometerTimestamp_sinceReboot(s)|accelerometerAccelerationX(G)|accelerometerAccelerationY(G)|accelerometerAccelerationZ(G)|motionTimestamp_sinceReboot(s)|motionYaw(rad)|motionRoll(rad)|motionPitch(rad)|motionRotationRateX(rad/s)|motionRotationRateY(rad/s)|motionRotationRateZ(rad/s)|motionUserAccelerationX(G)|motionUserAccelerationY(G)|motionUserAccelerationZ(G)|motionAttitudeReferenceFrame(txt)|motionQuaternionX(R)|motionQuaternionY(R)|motionQuaternionZ(R)|motionQuaternionW(R)|motionGravityX(G)|motionGravityY(G)|motionGravityZ(G)|motionMagneticFieldX(µT)|motionMagneticFieldY(µT)|motionMagneticFieldZ(µT)|motionHeading(°)|motionMagneticFieldCalibrationAccuracy(Z)|label
2021-02-25 22:35:36.728 +0000|165112.745061375|0.107696533203125|0.51251220703125|-0.854522705078125|165112.725099375|0.2992085726978242|0.08707497583464657|-0.5236587250559563|-0.004155742935836315|0.02904085069894791|-0.03291761130094528|0.02535093575716019|-0.002951204776763916|-0.01936566829681396|XArbitraryZVertical|0.2619801421725393|-0.003026855910167216|-0.1326904316382027|-0.9559029595444506|0.07531128078699112|0.5000519156455994|-0.8627144694328308|0|0|0|-1|-1|3
2021-02-25 22:35:36.739 +0000|165112.765024375|0.0688018798828125|0.50091552734375|-0.86077880859375|165112.745061375|0.2978843069876507|0.08668262969346742|-0.5239122010211161|-0.02732967212796211|-0.01839212328195572|-0.08114710450172424|0.002186611294746399|0.0122559666633606|0.0129166841506958|XArbitraryZVertical|0.2620729138397772|-0.002993224394170947|-0.1320987514729456|-0.9559595550802773|0.07496181130409241|0.5002714395523071|-0.8626176714897156|0|0|0|-1|-1|3
2021-02-25 22:35:36.748 +0000|165112.784987375|0.0660247802734375|0.4978790283203125|-0.859893798828125|165112.765024375|0.2966745465284503|0.08619910614652981|-0.5243984164891601|-0.007825645618140697|0.006899970583617687|-0.03392171114683151|-0.006042331457138062|0.006585955619812012|0.005309879779815674|XArbitraryZVertical|0.262270864724222|-0.002883257236225643|-0.1315645359963851|-0.9559792673184835|0.07452375441789627|0.5006923675537109|-0.8624113798141479|0|0|0|-1|-1|3
2021-02-25 22:35:36.750 +0000|165112.804950375|0.0673828125|0.49468994140625|-0.86798095703125|165112.784987375|0.2961149720345854|0.08612492058986862|-0.5240911181004242|0.0008553772931918502|0.03266781195998192|-0.008106183260679245|-0.01095069199800491|0.00109940767288208|0.002783119678497314|XArbitraryZVertical|0.2621187786824489|-0.002944745423351392|-0.1313189708138882|-0.9560545888634955|0.07447300851345062|0.5004262924194336|-0.8625701665878296|0|0|0|-1|-1|3
2021-02-25 22:35:36.751 +0000|165112.824913375|0.079010009765625|0.5113983154296875|-0.858917236328125|165112.804950375|0.295757878150465|0.08649076257416903|-0.5239035812879924|0.00884461123496294|0.03838156908750534|-0.02180548384785652|-0.008451484143733978|-0.01001441478729248|-0.002018272876739502|XArbitraryZVertical|0.2620529086527407|-0.003180798535701373|-0.1311077731228648|-0.9561008188032455|0.07479667663574219|0.5002639293670654|-0.8626363277435303|0|0|0|-1|-1|3
2021-02-25 22:35:36.771 +0000|165112.844876375|0.0782012939453125|0.5222625732421875|-0.8512115478515625|165112.824913375|0.2951513493866216|0.08697384331479957|-0.5237347351188887|0.03062782064080238|0.009233166463673115|-0.03728741407394409|0.004918411374092102|0.003498494625091553|-0.004747450351715088|XArbitraryZVertical|0.2620030562859454|-0.003504141801497207|-0.1307612239737251|-0.9561608910626016|0.07522072643041611|0.5001177191734314|-0.8626842498779297|0|0|0|-1|-1|3
2021-02-25 22:35:36.791 +0000|165112.864839375|0.069091796875|0.517669677734375|-0.8560943603515625|165112.844876375|0.2946225714989885|0.08705324324500578|-0.5235337417096663|0.02152664959430695|0.0008851140737533569|-0.01447273604571819|0.0001262128353118896|0.02016732096672058|0.008637070655822754|XArbitraryZVertical|0.2619115532017079|-0.003626723389122635|-0.1305060178812313|-0.9562203161236897|0.07529795914888382|0.4999436736106873|-0.86277836561203|0|0|0|-1|-1|3
2021-02-25 22:35:36.811 +0000|165112.884802375|0.06890869140625|0.4998016357421875|-0.8570556640625|165112.864839375|0.2942853439302015|0.08665551388616338|-0.5232742506797866|0.01683632470667362|-0.0019993563182652|-0.003356612753123045|0.004455946385860443|0.01602804660797119|0.009406566619873047|XArbitraryZVertical|0.2617613522880674|-0.003500522255645167|-0.1304071470335109|-0.9562754560922796|0.07496602833271027|0.4997189342975616|-0.8629375100135803|0|0|0|-1|-1|3
2021-02-25 22:35:36.831 +0000|165112.904765375|0.078521728515625|0.4993743896484375|-0.85809326171875|165112.884802375|0.2940537374383496|0.08635368897888041|-0.5229892493818756|0.009983578696846962|0.006557540968060493|-0.003751381766051054|-0.001658789813518524|0.006249874830245972|0.00632089376449585|XArbitraryZVertical|0.2616054627796249|-0.003408241475133834|-0.1303471758239348|-0.9563266492022029|0.07471784949302673|0.499472051858902|-0.8631019592285156|0|0|0|-1|-1|3
2021-02-25 22:35:36.851 +0000|165112.924728375|0.0779876708984375|0.5136260986328125|-0.8596038818359375|165112.904765375|0.2937848694388598|0.08644226075588853|-0.5228669487390661|0.007647835649549961|0.01249388698488474|-0.01772259175777435|-0.006592795252799988|-0.005927473306655884|0.00668025016784668|XArbitraryZVertical|0.2615525168865385|-0.003495068159841037|-0.1302118740613936|-0.9563591477114771|0.07479956746101379|0.4993660748004913|-0.8631561398506165|0|0|0|-1|-1|3
2021-02-25 22:35:36.871 +0000|165112.944691|0.0839996337890625|0.515655517578125|-0.8541107177734375|165112.924728375|0.2933079382448478|0.08657079843603195|-0.5230386165398289|0.01272981241345406|0.01719255559146404|-0.02201010286808014|0.001070387661457062|0.005764603614807129|0.001000523567199707|XArbitraryZVertical|0.2616418325997639|-0.003605852101562373|-0.129960210578257|-0.9563685577918395|0.07490310072898865|0.4995148181915283|-0.8630610704421997|0|0|0|-1|-1|3
2021-02-25 22:35:36.891 +0000|165112.964654|0.082275390625|0.514801025390625|-0.848968505859375|165112.944691|0.2929354473855603|0.08694776979441425|-0.5231389565077158|0.02044710516929626|0.0261955838650465|-0.01200789026916027|0.003755375742912292|0.01533651351928711|0.005698263645172119|XArbitraryZVertical|0.2617134433323233|-0.003827220499507799|-0.1297288006321486|-0.9563794798204196|0.07522409409284592|0.4996017217636108|-0.8629828691482544|0|0|0|-1|-1|3
2021-02-25 22:35:36.911 +0000|165112.984617|0.08892822265625|0.508392333984375|-0.846527099609375|165112.964654|0.2926105942416963|0.08724014520650565|-0.5230199264388194|0.01763568818569183|0.02983436919748783|-0.0104610389098525|0.0124700516462326|0.01766741275787354|0.01002323627471924|XArbitraryZVertical|0.2616749975566578|-0.004018590383054421|-0.1295399048291151|-0.9564149393132232|0.0754815861582756|0.4994986057281494|-0.863020122051239|0|0|0|-1|-1|3
2021-02-25 22:35:36.930 +0000|165113.004579|0.0858001708984375|0.510650634765625|-0.8457794189453125|165112.984617|0.2920583539123621|0.0873619721056761|-0.5228952924222232|-0.004177863709628582|0.02329673431813717|-0.03029919043183327|0.01130662858486176|0.01115307211875916|0.01494354009628296|XArbitraryZVertical|0.2616223593759358|-0.00415855017280961|-0.1292648197396671|-0.9564659375773917|0.07559216022491455|0.4993906319141388|-0.8630728721618652|0|0|0|-1|-1|3
2021-02-25 22:35:36.950 +0000|165113.024542|0.0811614990234375|0.513824462890625|-0.84716796875|165113.004579|0.2914243112948125|0.08759904560454861|-0.5232689555355493|-0.008058888837695122|0.02910364791750908|-0.03133524954319|0.0114998072385788|0.005366683006286621|0.01571625471115112|XArbitraryZVertical|0.2618144212524118|-0.004326592619282148|-0.1289157626761077|-0.9564596744436117|0.07578043639659882|0.4997143447399139|-0.8628689646720886|0|0|0|-1|-1|3
2021-02-25 22:35:36.971 +0000|165113.044505|0.0901641845703125|0.51751708984375|-0.8584442138671875|165113.024542|0.2908971743392446|0.08786954555738642|-0.5237284995330609|-0.007401586975902319|0.03015639632940292|-0.017502436414361|0.01667292416095734|0.01471906900405884|0.01416987180709839|XArbitraryZVertical|0.262049658589285|-0.004490249959117228|-0.1286099904170125|-0.9564357471834415|0.07599367946386337|0.5001123547554016|-0.8626196384429932|0|0|0|-1|-1|3
2021-02-25 22:35:36.990 +0000|165113.064468|0.0938262939453125|0.5231475830078125|-0.8672943115234375|165113.044505|0.290797288901867|0.08860509620843313|-0.5243514215007157|-0.0155778406187892|0.03091156482696533|-0.004315617028623819|0.01159520447254181|0.01665163040161133|0.008584737777709961|XArbitraryZVertical|0.262393544771945|-0.004808013893129437|-0.1284409789185245|-0.95636262936543|0.0766005739569664|0.5006516575813293|-0.8622530102729797|0|0|0|-1|-1|3
2021-02-25 22:35:37.010 +0000|165113.084431|0.099517822265625|0.522186279296875|-0.872039794921875|165113.064468|0.2910106213384953|0.08966325912824237|-0.5251761375296812|-0.03118812665343285|0.0516645647585392|0.01298383437097073|0.01244407892227173|0.01866918802261353|0.0006911754608154297|XArbitraryZVertical|0.262855004900919|-0.005223575751543332|-0.1283710033966815|-0.9562430139576703|0.07747593522071838|0.5013654232025146|-0.8617599010467529|0|0|0|-1|-1|3
2021-02-25 22:35:37.030 +0000|165113.104394|0.1141204833984375|0.54022216796875|-0.8779144287109375|165113.084431|0.2917055388201143|0.09129414609126554|-0.5260824983713155|-0.03747796267271042|0.06082221865653992|0.03334654122591019|0.02046437561511993|0.02693372964859009|-0.009441196918487549|XArbitraryZVertical|0.2633933779714061|-0.005843125043747933|-0.1284520012023103|-0.9560804995863205|0.07883980870246887|0.5021494030952454|-0.8611795902252197|0|0|0|-1|-1|3
2021-02-25 22:35:37.050 +0000|165113.124357|0.1183929443359375|0.539581298828125|-0.8846588134765625|165113.104394|0.2926760786644972|0.09313477356506665|-0.5269746850543822|-0.02512475848197937|0.04818221554160118|0.0305052138864994|0.02545185387134552|0.02542996406555176|-0.01630556583404541|XArbitraryZVertical|0.2639395899302783|-0.006527055188494199|-0.1286367383853199|-0.955900565964343|0.08038308471441269|0.5029207468032837|-0.8605865836143494|0|0|0|-1|-1|3
2021-02-25 22:35:37.070 +0000|165113.14432|0.110382080078125|0.5443115234375|-0.8917388916015625|165113.124357|0.2933187741365729|0.09439625139083963|-0.5276285387897308|-0.01311406772583723|0.03294073045253754|0.02070327289402485|0.03185886889696121|0.03302836418151855|-0.01946651935577393|XArbitraryZVertical|0.2643342713829822|-0.006995081535996695|-0.1287502409853591|-0.9557728597404989|0.0814376175403595|0.5034857988357544|-0.8601569533348083|0|0|0|-1|-1|3
2021-02-25 22:35:37.090 +0000|165113.164283|0.1098480224609375|0.5478363037109375|-0.8898773193359375|165113.14432|0.2939407397575657|0.09550844894513302|-0.5279315231421565|0.007343470118939877|0.03909284621477127|0.02351370640099049|0.03241217136383057|0.03774094581604004|-0.03238958120346069|XArbitraryZVertical|0.2645523848358068|-0.007421100591915203|-0.1288877599575979|-0.9556907659524965|0.08237968385219574|0.5037475824356079|-0.8599139451980591|0|0|0|-1|-1|3
2021-02-25 22:35:37.110 +0000|165113.184246|0.1034088134765625|0.550567626953125|-0.877777099609375|165113.164283|0.2946485586708357|0.09682468583697605|-0.5277730731935425|0.03164935857057571|0.03798241540789604|0.01980702951550484|0.02970101684331894|0.03554326295852661|-0.03173267841339111|XArbitraryZVertical|0.2645645520475263|-0.007968605223137281|-0.1290585297833352|-0.9556599894310811|0.08351917564868927|0.5036106705665588|-0.8598842024803162|0|0|0|-1|-1|3
2021-02-25 22:35:37.131 +0000|165113.204209|0.1018524169921875|0.53411865234375|-0.8590087890625|165113.184246|0.2949846596693988|0.09797120591115477|-0.5270674121721945|0.06116187945008278|0.03251036256551743|0.007225369103252888|0.0276733785867691|0.05022162199020386|-0.02409029006958008|XArbitraryZVertical|0.2643040765747441|-0.00852641960834572|-0.1290974479733613|-0.9557219057680689|0.08453973382711411|0.5030009150505066|-0.8601413369178772|0|0|0|-1|-1|3
2021-02-25 22:35:37.150 +0000|165113.224172|0.0986480712890625|0.5300445556640625|-0.85321044921875|165113.204209|0.2952737699952732|0.09927184482665902|-0.5261939063991889|0.06670674681663513|0.03754272684454918|0.003651140490546823|0.01384640485048294|0.04609394073486328|-0.007315099239349365|XArbitraryZVertical|0.2639735006139045|-0.009177265251615987|-0.1291010783757547|-0.9558068357421114|0.08570191264152527|0.5022457838058472|-0.8604675531387329|0|0|0|-1|-1|3
2021-02-25 22:35:37.171 +0000|165113.244134|0.0171661376953125|0.4753265380859375|-0.8294219970703125|165113.224172|0.2953252482396683|0.1003407025823632|-0.5250283621171138|0.08805697411298752|0.02180451154708862|-0.01747056655585766|0.01439403742551804|0.02735728025436401|0.005442678928375244|XArbitraryZVertical|0.2634879062910997|-0.009771476551810132|-0.1290347553662936|-0.9559438119096983|0.08668015897274017|0.5012375712394714|-0.8609572649002075|0|0|0|-1|-1|3
2021-02-25 22:35:37.191 +0000|165113.264097|0.031707763671875|0.5052490234375|-0.8448333740234375|165113.244134|0.2943655764717223|0.100190546447432|-0.5238168436406284|0.2073548883199692|0.1235840916633606|-0.07570990920066833|0.02316014468669891|0.04348170757293701|0.01498568058013916|XArbitraryZVertical|0.2628966650551251|-0.009919605545807742|-0.1286477971258071|-0.9561572629168386|0.0866115614771843|0.5001888275146484|-0.8615738749504089|0|0|0|-1|-1|3
2021-02-25 22:35:37.210 +0000|165113.28406|0.0703887939453125|0.51397705078125|-0.8537750244140625|165113.264097|0.2924708216556071|0.09979729266141796|-0.5217056405301181|0.1550593227148056|0.01624622568488121|-0.1419353485107422|0.07573160529136658|0.07984155416488647|-0.0001668334007263184|XArbitraryZVertical|0.2618564116908496|-0.01014249863606662|-0.1278836084399946|-0.9565427811014175|0.08637775480747223|0.4983595907688141|-0.8626567125320435|0|0|0|-1|-1|3
2021-02-25 22:35:37.230 +0000|165113.304023|0.0644073486328125|0.50738525390625|-0.851318359375|165113.28406|0.288978893246194|0.09844959098285552|-0.5194124236033093|0.1718271523714066|0.008826927281916142|-0.1729126125574112|0.003387406468391418|0.04121211171150208|0.005707263946533203|XArbitraryZVertical|0.2606601782333489|-0.01012866532573556|-0.1264861252254255|-0.9570553060245737|0.08532717823982239|0.4963701367378235|-0.8639073371887207|0|0|0|-1|-1|3
2021-02-25 22:35:37.250 +0000|165113.323986|0.084197998046875|0.503875732421875|-0.84686279296875|165113.304023|0.284106131615962|0.09671545126197371|-0.5168968472536798|0.1853450685739517|0.0358242429792881|-0.2377619296312332|-0.015757717192173|0.01910549402236938|0.01022207736968994|XArbitraryZVertical|0.2593270142810248|-0.01012095011053357|-0.1244836841224448|-0.9576799432550678|0.08394922316074371|0.4941847622394562|-0.8652941584587097|0|0|0|-1|-1|3
2021-02-25 22:35:37.270 +0000|165113.343949|0.0962371826171875|0.500244140625|-0.852996826171875|165113.323986|0.2772387468366873|0.09437576778895244|-0.5143544860367352|0.2092136293649673|0.03510028868913651|-0.3460427820682526|-0.0012015700340271|0.002579540014266968|0.01621121168136597|XArbitraryZVertical|0.2579348900731357|-0.01007529192527667|-0.1215999907325127|-0.9584265064398593|0.08204261213541031|0.491972953081131|-0.8667361736297607|0|0|0|-1|-1|3
2021-02-25 22:35:37.290 +0000|165113.363912|0.095916748046875|0.5273284912109375|-0.8688812255859375|165113.343949|0.2678421706360128|0.09046298275028977|-0.5116469875650831|0.2177163064479828|0.02403261885046959|-0.4305193722248077|0.0127820298075676|0.0111793577671051|0.02325057983398438|XArbitraryZVertical|0.2563607976350277|-0.009600903746962089|-0.117704489497856|-0.9593395849988311|0.07877068966627121|0.4896139800548553|-0.8683739304542542|0|0|0|-1|-1|3
2021-02-25 22:35:37.311 +0000|165113.383875|0.097808837890625|0.5264739990234375|-0.880523681640625|165113.363912|0.2567255468563795|0.08534675443996081|-0.5090869026315804|0.2088537216186523|0.03663251549005508|-0.4891168475151062|0.01437265425920486|0.0310828685760498|0.009598970413208008|XArbitraryZVertical|0.25478965373414|-0.008741992435195406|-0.1131194002833265|-0.9603174883349753|0.07443348318338394|0.4873801469802856|-0.8700116276741028|0|0|0|-1|-1|3
2021-02-25 22:35:37.330 +0000|165113.403838|0.1048583984375|0.5300445556640625|-0.884368896484375|165113.383875|0.2448424438456346|0.08061196758467269|-0.5065742302525794|0.2022361606359482|0.06917788833379745|-0.5208930373191833|0.01903527230024338|0.04943749308586121|-0.005854010581970215|XArbitraryZVertical|0.2532737986384322|-0.008141647721391452|-0.1081015542169702|-0.9613012055843168|0.07041173428297043|0.4851845800876617|-0.8715721964836121|0|0|0|-1|-1|3
2021-02-25 22:35:37.353 +0000|165113.423801|0.100860595703125|0.5259246826171875|-0.8763275146484375|165113.403838|0.232270140768313|0.07601832506234713|-0.5036955473424717|0.2213985025882721|0.06891758739948273|-0.5669160485267639|0.03501885384321213|0.0427250862121582|-0.01181060075759888|XArbitraryZVertical|0.2516008216504005|-0.007699069007806221|-0.1027321437687911|-0.9623324874461044|0.06651311367750168|0.4826654195785522|-0.8732755184173584|0|0|0|-1|-1|3
2021-02-25 22:35:37.370 +0000|165113.443764|0.104888916015625|0.5396881103515625|-0.8682861328125|165113.423801|0.2185857319837335|0.07117144086582744|-0.5006255326201507|0.2431601285934448|0.0726996511220932|-0.6222527623176575|0.04181749746203423|0.05013108253479004|-0.008391857147216797|XArbitraryZVertical|0.2498329047997524|-0.007262118425071478|-0.09684878081912569|-0.9634060339397336|0.06238476186990738|0.4799743890762329|-0.875061571598053|0|0|0|-1|-1|3
2021-02-25 22:35:37.390 +0000|165113.463727|0.1168365478515625|0.5273590087890625|-0.867218017578125|165113.443764|0.2038319243080353|0.06638748048413086|-0.496976100210355|0.2887521982192993|0.1050501838326454|-0.6702069044113159|0.04569027945399284|0.05329006910324097|0.004640102386474609|XArbitraryZVertical|0.2478005971223987|-0.006993447395979997|-0.09044063445297799|-0.964555005495747|0.05831361562013626|0.4767696261405945|-0.8770918846130371|0|0|0|-1|-1|3
2021-02-25 22:35:37.410 +0000|165113.483689|0.109222412109375|0.501007080078125|-0.882171630859375|165113.463727|0.1882748225714496|0.06179509586221516|-0.4927778504855981|0.3163558542728424|0.1141918003559113|-0.6931300759315491|0.05594334751367569|0.06234046816825867|0.01157313585281372|XArbitraryZVertical|0.245523870622075|-0.006911401608644113|-0.08361466091713497|-0.9657530361527921|0.05440820381045341|0.4730750620365143|-0.8793405294418335|0|0|0|-1|-1|3
2021-02-25 22:35:37.431 +0000|165113.503652|0.0729217529296875|0.48162841796875|-0.9158782958984375|165113.483689|0.1722118180226965|0.05735962478893887|-0.4880634644509198|0.3309865593910217|0.1290430873632431|-0.7434995770454407|0.06865851581096649|0.04467910528182983|0.008392155170440674|XArbitraryZVertical|0.2430157651682685|-0.006952777103117229|-0.0765143042172664|-0.9669749435977435|0.05063468590378761|0.4689163267612457|-0.8817899823188782|0|0|0|-1|-1|3
2021-02-25 22:35:37.451 +0000|165113.523615|0.0822601318359375|0.4222412109375|-0.9383087158203125|165113.503652|0.1544294899069451|0.05356563906749476|-0.4834092499992031|0.3364498615264893|0.2595822513103485|-0.8495156764984131|0.0516396276652813|0.02734112739562988|-0.01536017656326294|XArbitraryZVertical|0.2405649867481361|-0.007466705301019722|-0.06847807233633157|-0.9681855430580516|0.04740516468882561|0.4648004770278931|-0.8841454982757568|0|0|0|-1|-1|3
2021-02-25 22:35:37.470 +0000|165113.543578|0.009918212890625|0.402557373046875|-0.9520111083984375|165113.523615|0.1341883954153937|0.04938298855951145|-0.479067531939584|0.2935115396976471|0.1995430290699005|-0.9996057748794556|0.05122584104537964|0.03633195161819458|-0.04836440086364746|XArbitraryZVertical|0.2382517765614053|-0.008028825392867971|-0.05926555559252708|-0.9693601297127427|0.04380589351058006|0.4609518945217133|-0.886343240737915|0|0|0|-1|-1|3
2021-02-25 22:35:37.490 +0000|165113.563541|-0.0761260986328125|0.386932373046875|-0.9615936279296875|165113.543578|0.1100568971034226|0.04418635656056212|-0.4771659872271434|0.1269038766622543|0.2782697081565857|-1.190578818321228|-0.003913875669240952|-0.02602091431617737|-0.05572807788848877|XArbitraryZVertical|0.2370913353312437|-0.00843820420254836|-0.04821681819067496|-0.9702532899835022|0.03923796862363815|0.4592635631561279|-0.8874329924583435|0|0|0|-1|-1|3
2021-02-25 22:35:37.510 +0000|165113.583504|-0.150177001953125|0.275970458984375|-0.9390411376953125|165113.563541|0.08168832973298727|0.03927186849908675|-0.4795195609741373|-0.1332637816667557|0.4072709977626801|-1.418753981590271|-0.06939485669136047|-0.05556085705757141|-0.07773137092590332|XArbitraryZVertical|0.2380042964917814|-0.009362447825781588|-0.03499839918870415|-0.9705881857381706|0.03483369946479797|0.4613529741764069|-0.8865326046943665|0|0|0|-1|-1|3
2021-02-25 22:35:37.530 +0000|165113.603467|-0.23345947265625|0.1743011474609375|-0.866485595703125|165113.583504|0.04797153474871336|0.03498320819656948|-0.4865322428324352|-0.35816290974617|0.5990976691246033|-1.615108609199524|-0.1631501019001007|-0.1490057408809662|-0.07617604732513428|XArbitraryZVertical|0.2411748865565221|-0.01119473347020692|-0.01906190482663912|-0.9702298217353448|0.03091743402183056|0.4675633609294891|-0.8834186792373657|0|0|0|-1|-1|3
2021-02-25 22:35:37.550 +0000|165113.62343|-0.3021697998046875|0.16864013671875|-0.8353271484375|165113.603467|0.009236762607409302|0.03133297467898862|-0.497802356607157|-0.6764368414878845|0.8714043498039246|-1.842121481895447|-0.2290637940168381|-0.2314173877239227|-0.006089866161346436|XArbitraryZVertical|0.2463764109070777|-0.01404537644754107|-0.0006164245531964578|-0.9690722479974685|0.02752571366727352|0.4774957597255707|-0.8782027959823608|0|0|0|-1|-1|3
2021-02-25 22:35:37.570 +0000|165113.643393|-0.3738250732421875|0.1580963134765625|-0.7713470458984375|165113.62343|-0.03609627174229087|0.0286183712910024|-0.5159802862299581|-1.021919369697571|1.065279126167297|-2.176577568054199|-0.2956868410110474|-0.3221384882926941|0.009025394916534424|XArbitraryZVertical|0.2548203718449367|-0.0184369324054502|0.02109818755190881|-0.966582406531445|0.02488913387060165|0.493387758731842|-0.8694533109664917|0|0|0|-1|-1|3
2021-02-25 22:35:37.590 +0000|165113.663356|-0.5184173583984375|0.280120849609375|-0.803253173828125|165113.643393|-0.08878597206330487|0.02516944790659068|-0.5421117123508206|-1.495025873184204|1.238139271736145|-2.438636541366577|-0.3607459962368011|-0.3745430111885071|0.06008505821228027|XArbitraryZVertical|0.2669258511387927|-0.02399430472590107|0.04612084850127068|-0.9623136919754799|0.02155840210616589|0.515946090221405|-0.8563497066497803|0|0|0|-1|-1|3
2021-02-25 22:35:37.610 +0000|165113.683319|-0.5612030029296875|0.3619384765625|-0.797088623046875|165113.663356|-0.1487507245249944|0.02044872271918603|-0.5757533174281571|-1.768188238143921|1.520795464515686|-2.70863676071167|-0.4505156874656677|-0.3051480650901794|0.03494179248809814|XArbitraryZVertical|0.2823887359052951|-0.0308722021770596|0.0741400733501564|-0.955932392456522|0.01715083234012127|0.5444667935371399|-0.8386070132255554|0|0|0|-1|-1|3
2021-02-25 22:35:37.630 +0000|165113.703281|-0.5789031982421875|0.33905029296875|-0.751861572265625|165113.683319|-0.2165008530676429|0.01579219690252107|-0.6148728384533321|-2.001112222671509|1.836069345474243|-2.954458236694336|-0.5650537610054016|-0.2729454636573792|0.01300346851348877|XArbitraryZVertical|0.3000224780591517|-0.04017512133922258|0.10534571601245|-0.9472458618373378|0.01289926934987307|0.5768546462059021|-0.8167449235916138|0|0|0|-1|-1|3
2021-02-25 22:35:37.650 +0000|165113.723244|-0.587799072265625|0.355743408203125|-0.6822967529296875|165113.703281|-0.2928353503448592|0.0108756087405649|-0.6567319291395074|-2.140477180480957|2.226295471191406|-3.195797920227051|-0.6019054055213928|-0.2373783588409424|0.01563864946365356|XArbitraryZVertical|0.3182904065812838|-0.05214217718260835|0.1398328715829956|-0.9361724996947671|0.008613221347332001|0.6105318069458008|-0.7919448018074036|0|0|0|-1|-1|3
2021-02-25 22:35:37.670 +0000|165113.743207|-0.565765380859375|0.478668212890625|-0.615020751953125|165113.723244|-0.3761478450240563|0.005943413406822995|-0.703832849949054|-2.552917242050171|2.486015796661377|-3.353222370147705|-0.5726615190505981|-0.332599937915802|0.06141084432601929|XArbitraryZVertical|0.3380960369839067|-0.06718719668649982|0.1765141411778639|-0.9219650994824046|0.004531037528067827|0.6471444964408875|-0.7623538970947266|0|0|0|-1|-1|3
2021-02-25 22:35:37.697 +0000|165113.76317|-0.5120849609375|0.6119537353515625|-0.543609619140625|165113.743207|-0.4668894812712134|-0.001705730767225373|-0.7582171583050391|-2.886764764785767|2.853175163269043|-3.408903121948242|-0.5690434575080872|-0.2385620474815369|0.07359611988067627|XArbitraryZVertical|0.3602369924311833|-0.08484271720415527|0.2145974145037107|-0.9038688991359741|-0.001238467521034181|0.6876280903816223|-0.7260620594024658|0|0|0|-1|-1|3
2021-02-25 22:35:37.715 +0000|165113.783133|-0.429962158203125|0.744903564453125|-0.5235443115234375|165113.76317|-0.5641236438441433|-0.01062846605003672|-0.8181335053389487|-3.156375646591187|3.067305088043213|-3.379079103469849|-0.5765969157218933|-0.2459693551063538|0.1174906492233276|XArbitraryZVertical|0.3833872258991748|-0.1060246881023235|0.253337914983216|-0.8818121759466712|-0.007265319116413593|0.7298712134361267|-0.6835460066795349|0|0|0|-1|-1|3
2021-02-25 22:35:37.729 +0000|165113.803096|-0.332183837890625|0.9905548095703125|-0.3976593017578125|165113.783133|-0.6635940801556773|-0.0233758482833263|-0.8828506180825582|-3.556885957717896|3.062481641769409|-3.063841819763184|-0.4390161633491516|-0.04846155643463135|0.1173371076583862|XArbitraryZVertical|0.4073415460694527|-0.12916608829891|0.2897770191218162|-0.8563983936178088|-0.01484117656946182|0.7725520133972168|-0.6347779631614685|0|0|0|-1|-1|3
2021-02-25 22:35:37.749 +0000|165113.823059|-0.2030181884765625|1.093032836914062|-0.451446533203125|165113.803096|-0.7664658569074367|-0.0441788743409511|-0.9533999642623491|-3.640981197357178|3.051673650741577|-2.917357444763184|-0.3698640167713165|0.06290727853775024|0.127436637878418|XArbitraryZVertical|0.4327993958439609|-0.1533300422565603|0.3227531372712344|-0.8276501813357907|-0.02556745149195194|0.8153885006904602|-0.5783491730690002|0|0|0|-1|-1|3
2021-02-25 22:35:37.770 +0000|165113.843022|-0.09930419921875|1.06640625|-0.45263671875|165113.823059|-0.8742331073842573|-0.07399018123064784|-1.023380183396358|-3.587694883346558|2.949672698974609|-2.519435405731201|-0.2267222106456757|0.1952303647994995|0.1212617754936218|XArbitraryZVertical|0.456961198886718|-0.1779247925600186|0.352447897327088|-0.7970630627705566|-0.03847546875476837|0.8538722395896912|-0.5190584659576416|0|0|0|-1|-1|3
2021-02-25 22:35:37.791 +0000|165113.862985|-0.021697998046875|1.054092407226562|-0.3118438720703125|165113.843022|-0.9830446822671982|-0.1095185915125298|-1.090658055915154|-3.582576990127563|2.88702654838562|-2.153544187545776|-0.1165978908538818|0.2279064655303955|0.01234179735183716|XArbitraryZVertical|0.4786929730268158|-0.2031890551441826|0.3778792797851097|-0.7660120759806931|-0.0504857711493969|0.8869310617446899|-0.4591344892978668|0|0|0|-1|-1|3
2021-02-25 22:35:37.809 +0000|165113.882948|0.16046142578125|0.9574432373046875|-0.174713134765625|165113.862985|-1.099520087995516|-0.15690792028248|-1.153958211596486|-3.286913871765137|2.890936613082886|-1.974629402160645|0.01398134231567383|0.1628814935684204|0.009547114372253418|XArbitraryZVertical|0.498005021592771|-0.2281276649076056|0.4001004922610916|-0.734757333410229|-0.06326715648174286|0.9143736362457275|-0.3998975455760956|0|0|0|-1|-1|3
2021-02-25 22:35:37.829 +0000|165113.902911|0.2196044921875|0.8495025634765625|-0.2658233642578125|165113.882948|-1.225089175521389|-0.215143602264269|-1.208853969883575|-3.055993795394897|2.924148559570312|-1.894258737564087|0.1273672580718994|0.05039995908737183|0.1259265244007111|XArbitraryZVertical|0.5130734494169563|-0.2525702608353896|0.4204302921028255|-0.7044161416917015|-0.07559410482645035|0.9352108240127563|-0.3459278047084808|0|0|0|-1|-1|3
2021-02-25 22:35:37.849 +0000|165113.922874|0.2568817138671875|1.044769287109375|-0.420684814453125|165113.902911|-1.366903436345055|-0.2907666602631875|-1.258732440822393|-2.904062986373901|2.876925468444824|-1.568836212158203|0.2359077632427216|-0.05570602416992188|0.1120676100254059|XArbitraryZVertical|0.5255639001308529|-0.2769743320910932|0.4389750608016033|-0.6740686404488876|-0.0880194678902626|0.9517019391059875|-0.2941356003284454|0|0|0|-1|-1|3
2021-02-25 22:35:37.871 +0000|165113.942836625|0.231048583984375|0.768341064453125|-0.3220672607421875|165113.922874|-1.526580220244411|-0.3861117592245857|-1.301122808233008|-2.658343315124512|2.846015930175781|-1.419376373291016|0.3457520306110382|-0.03850406408309937|-0.1161427348852158|XArbitraryZVertical|0.5350215497812568|-0.3005835380697481|0.4559209509355534|-0.6446219438455323|-0.100329577922821|0.9638579487800598|-0.24680295586586|0|0|0|-1|-1|3
2021-02-25 22:35:37.891 +0000|165113.962799625|0.107757568359375|0.831756591796875|-0.06475830078125|165113.942836625|-1.724621596954079|-0.5217734282355515|-1.338349537663133|-2.80598521232605|2.74176025390625|-1.313968062400818|0.3729482293128967|0.02175211906433105|-0.2104953825473785|XArbitraryZVertical|0.5436092395225651|-0.3234742815630294|0.4713138347083536|-0.6145865553311524|-0.1148152202367783|0.9731056690216064|-0.1997067630290985|0|0|0|-1|-1|3
2021-02-25 22:35:37.909 +0000|165113.982762625|0.1053466796875|1.054931640625|0.0178985595703125|165113.962799625|-1.996676522632749|-0.7352903576526586|-1.379825294166336|-3.807611465454102|2.551378011703491|-0.9275327324867249|0.3048625886440277|-0.2124112844467163|0.03389889001846313|XArbitraryZVertical|0.5547601651138669|-0.3490779226128789|0.4810914511651994|-0.5821827304211372|-0.1273264735937119|0.9818204045295715|-0.1407715231180191|0|0|0|-1|-1|3
2021-02-25 22:35:37.929 +0000|165114.002725625|-0.03240966796875|1.073379516601562|-0.33380126953125|165113.982762625|-2.448963472834028|-1.128941669180687|-1.417558446651177|-4.439499855041504|2.657292127609253|-0.686262845993042|0.210915818810463|-0.03648465871810913|0.07419688254594803|XArbitraryZVertical|0.5686795303544269|-0.3794315475099873|0.4851147760694641|-0.5452511471241405|-0.1379787176847458|0.9882820248603821|-0.06527058780193329|0|0|0|-1|-1|3
2021-02-25 22:35:37.949 +0000|165114.022688625|-0.050445556640625|0.970733642578125|-0.28057861328125|165114.002725625|-3.085113399143945|-1.704291354061683|-1.42037566588529|-4.941747188568115|2.747709035873413|-0.6209035515785217|0.2354792505502701|0.1044007539749146|-0.08120942115783691|XArbitraryZVertical|0.5826152390351518|-0.4129553095390144|0.4851455455953181|-0.504639451880022|-0.148519292473793|0.9887081384658813|0.01994520798325539|0|0|0|-1|-1|3
2021-02-25 22:35:37.971 +0000|165114.042651625|-0.2118988037109375|1.045684814453125|0.105682373046875|165114.022688625|2.670334033396698|-2.174945221501047|-1.373694292620292|-5.126547813415527|2.155983448028564|-0.1299804151058197|0.08636534214019775|0.02924942970275879|-0.5619262456893921|XArbitraryZVertical|0.5969629327974039|-0.4463815942786506|0.4804960895481494|-0.4620630086607859|-0.161163866519928|0.9806382060050964|0.1112425401806831|0|0|0|-1|-1|3
2021-02-25 22:35:37.990 +0000|165114.062614625|-0.3373260498046875|0.78558349609375|0.2535552978515625|165114.042651625|2.340408139795557|-2.455096134547019|-1.304468522506919|-4.858011722564697|1.925414800643921|0.1428199410438538|-0.004217445850372314|0.0143972635269165|-0.2074764966964722|XArbitraryZVertical|0.609463180056955|-0.4799371797359561|0.4691758295858239|-0.4220058355476332|-0.1668182015419006|0.9647439122200012|0.2035701274871826|0|0|0|-1|-1|3
2021-02-25 22:35:38.009 +0000|165114.082577625|-0.196533203125|0.848052978515625|0.5769195556640625|165114.062614625|2.147070701297459|-2.606473267077526|-1.230441894293026|-4.388102531433105|1.478833556175232|0.2586797177791595|-0.01789583265781403|0.02255809307098389|-0.1154022514820099|XArbitraryZVertical|0.6194205361714427|-0.5097996590975267|0.4552672234049553|-0.3862047099922033|-0.1702296733856201|0.9426364302635193|0.2871549725532532|0|0|0|-1|-1|3
2021-02-25 22:35:38.029 +0000|165114.102540625|-0.13385009765625|1.219100952148438|0.5638885498046875|165114.082577625|2.025969149230867|-2.694797034952544|-1.16560726248561|-3.16381573677063|0.9509506225585938|0.4716503024101257|-0.1085933297872543|-0.1510987281799316|0.1100483238697052|XArbitraryZVertical|0.6262172817430423|-0.5344160802166914|0.4410203190401136|-0.3574248096554953|-0.1703219562768936|0.9190278649330139|0.355497270822525|0|0|0|-1|-1|3
2021-02-25 22:35:38.049 +0000|165114.122503625|-0.0225372314453125|0.933349609375|0.663848876953125|165114.102540625|1.97193737891818|-2.72962235804245|-1.135078675928902|-0.4920715689659119|0.5382230281829834|0.2860578000545502|0.01003386080265045|0.1868469715118408|0.1948855519294739|XArbitraryZVertical|0.6275276011162493|-0.547342263013548|0.434292560940917|-0.3435339228575979|-0.1689998656511307|0.906567394733429|0.386748880147934|0|0|0|-1|-1|3
2021-02-25 22:35:38.071 +0000|165114.142466625|0.0532379150390625|1.013580322265625|0.73370361328125|165114.122503625|1.969949038209507|-2.723926059381782|-1.14410287500034|1.129108309745789|0.1908797174692154|0.08620362728834152|0.06870779395103455|0.1428071260452271|0.2392063140869141|XArbitraryZVertical|0.6233230439816269|-0.5482804753731082|0.4380522049365782|-0.344916045878118|-0.1678746044635773|0.9103391766548157|0.3782861828804016|0|0|0|-1|-1|3
2021-02-25 22:35:38.090 +0000|165114.162429625|0.04815673828125|0.871490478515625|0.4847412109375|165114.142466625|2.006105299805352|-2.687826250014295|-1.173382109514881|2.032585620880127|0.1236737221479416|-0.1680678874254227|0.1921499669551849|0.07044303417205811|0.3423477411270142|XArbitraryZVertical|0.6171706067837817|-0.5413266590885111|0.4480011182035219|-0.3540633358885962|-0.1696583926677704|0.9220648407936096|0.3478682339191437|0|0|0|-1|-1|3
2021-02-25 22:35:38.109 +0000|165114.182391625|0.1007080078125|1.019012451171875|0.0643463134765625|165114.162429625|2.0771418561126|-2.621172084945755|-1.213576731540164|2.738594532012939|0.05816145613789558|-0.09300181269645691|0.2412244081497192|0.01620650291442871|0.3014652729034424|XArbitraryZVertical|0.6095775621518545|-0.5292486275960875|0.4617441286014241|-0.3675641993078534|-0.1738720238208771|0.936872661113739|0.3033778369426727|0|0|0|-1|-1|3
2021-02-25 22:35:38.129 +0000|165114.202354625|-0.0183563232421875|0.927337646484375|-0.0164031982421875|165114.182391625|2.161425552360634|-2.542784638185182|-1.256413152879881|1.984796285629272|-0.179288923740387|-0.06339216977357864|0.23260398209095|0.08975374698638916|0.02281740307807922|XArbitraryZVertical|0.6004996052315845|-0.5168302210012479|0.4748713669830186|-0.3831239436357782|-0.1743000745773315|0.9509872794151306|0.2554264962673187|0|0|0|-1|-1|3
2021-02-25 22:35:38.149 +0000|165114.222317625|0.0059814453125|1.016189575195312|0.6025543212890625|165114.202354625|2.201414205185446|-2.510193084645445|-1.268898068136798|-0.08669025450944901|-0.4012386798858643|-0.2427479773759842|0.1743028908967972|-0.04522788524627686|-0.3630242049694061|XArbitraryZVertical|0.5991886675909854|-0.5108589593153458|0.4781560927523339|-0.3890537086223829|-0.1755082756280899|0.9547737836837769|0.2400078773498535|0|0|0|-1|-1|3
2021-02-25 22:35:38.171 +0000|165114.242280625|-0.154632568359375|1.012863159179688|0.8979949951171875|165114.222317625|2.206274274499471|-2.518147752840637|-1.257759577727114|-0.4599645435810089|-0.9496988654136658|-0.5373591780662537|0.1847050189971924|0.06815886497497559|-0.00323486328125|XArbitraryZVertical|0.6057369852004213|-0.5080258919794185|0.4737891566631566|-0.3879641554687119|-0.1797915548086166|0.9514027833938599|0.2500151991844177|0|0|0|-1|-1|3
2021-02-25 22:35:38.205 +0000|165114.262243625|-0.1819305419921875|1.197769165039062|0.7873687744140625|165114.262243625|2.34517366451987|-2.440679893989206|-1.270771200845006|2.29677152633667|-1.74176812171936|-0.6006355285644531|-0.02235051989555359|0.2217339277267456|0.6620227098464966|XArbitraryZVertical|0.6177639387050563|-0.480939836868782|0.4708508118513796|-0.4066498599518851|-0.1906010657548904|0.9553290605545044|0.225870817899704|0|0|0|-1|-1|3
2021-02-25 22:35:38.208 +0000|165114.282206625|-0.3018646240234375|0.9167327880859375|0.13763427734375||||||||||||||||||||||||3
2021-02-25 22:35:38.229 +0000|165114.302169625|-0.2594146728515625|0.82574462890625|-0.1982269287109375|165114.282206625|2.474316256298582|-2.349613629972573|-1.298476454468505|1.662717223167419|-1.540699362754822|-0.2462093085050583|-0.07879817485809326|0.1647952198982239|0.2884851396083832|XArbitraryZVertical|0.6180107214070013|-0.4610082352843635|0.4729696959609527|-0.4264195204194266|-0.1914348602294922|0.9631495475769043|0.1889316886663437|0|0|0|-1|-1|3
2021-02-25 22:35:38.248 +0000|165114.322132625|-0.1952056884765625|1.170028686523438|-0.0926666259765625|165114.302169625|2.497878977883619|-2.354068308378972|-1.297626623486621|-0.94671630859375|-1.200385570526123|-0.3446499407291412|-0.06209337711334229|-0.2852778434753418|-0.2330548763275146|XArbitraryZVertical|0.6247057966962496|-0.4526842242152005|0.4665183918960378|-0.4326433074413748|-0.1911718845367432|0.962920606136322|0.1903606802225113|0|0|0|-1|-1|3
2021-02-25 22:35:38.269 +0000|165114.342095625|0.0274200439453125|0.67193603515625|0.3616180419921875|165114.322132625|2.454629130226156|-2.415609867789378|-1.27715130964149|-0.9672608375549316|-0.9383309483528137|-0.3503432273864746|-0.01989859342575073|0.08157730102539062|-0.3207225799560547|XArbitraryZVertical|0.6355050221862424|-0.4520651741507068|0.4561013246931519|-0.4286513424759614|-0.1921526789665222|0.9571952223777771|0.2164591103792191|0|0|0|-1|-1|3
2021-02-25 22:35:38.289 +0000|165114.362058625|-0.2733612060546875|0.9591522216796875|0.167694091796875|165114.362058625|2.573233968686135|-2.335563177451056|-1.282413770167226|1.535175800323486|-0.4434286952018738|-0.5813047289848328|0.2207417786121368|-0.07714390754699707|0.1962776184082031|XArbitraryZVertical|0.6418306339131197|-0.4318666797572686|0.4559585573086495|-0.4400526299696034|-0.2052081972360611|0.9587051272392273|0.1969107836484909|0|0|0|-1|-1|3
2021-02-25 22:35:38.308 +0000|165114.382021625|-0.052947998046875|0.99041748046875|0.4287261962890625||||||||||||||||||||||||3
2021-02-25 22:35:38.332 +0000|165114.401983625|-0.2886962890625|1.25006103515625|0.507781982421875|165114.382021625|2.68378927111331|-2.236618183887304|-1.293214216117277|1.703689575195312|-0.4465501010417938|-0.626462996006012|-0.07759076356887817|-0.06325304508209229|0.05442379415035248|XArbitraryZVertical|0.6393178962328059|-0.4194134381873204|0.4627943875724302|-0.4485377764532463|-0.2154999226331711|0.9617208242416382|0.1692700088024139|0|0|0|-1|-1|3
2021-02-25 22:35:38.348 +0000|165114.421946625|-0.281158447265625|1.06793212890625|0.4605255126953125|165114.401983625|2.819768465883592|-2.115386777722537|-1.305065780857791|1.827303171157837|-0.4451846778392792|-0.4603312611579895|0.1348564773797989|0.1911353468894958|0.3684343099594116|XArbitraryZVertical|0.6355327453570453|-0.4051221540166968|0.4697484557992283|-0.4596851211544604|-0.2246237993240356|0.9649009108543396|0.1360516548156738|0|0|0|-1|-1|3
2021-02-25 22:35:38.368 +0000|165114.441909625|-0.2470550537109375|0.9764556884765625|0.4423065185546875|165114.421946625|2.938897844913241|-2.009542909365092|-1.314622680467898|1.143202424049377|-0.5373522639274597|-0.1401066482067108|-0.1198919713497162|0.1554819345474243|0.3348215818405151|XArbitraryZVertical|0.6315940002383323|-0.3935831669216501|0.4745373139799848|-0.4701016669457713|-0.2293816357851028|0.9673665761947632|0.107637383043766|0|0|0|-1|-1|3
2021-02-25 22:35:38.388 +0000|165114.461872625|-0.191558837890625|0.8150634765625|0.303497314453125|165114.441909625|2.961118231855201|-2.000261382111779|-1.316605021598783|-0.4982724189758301|-0.5840293765068054|0.07054876536130905|0.007572337985038757|0.08678978681564331|0.3666848838329315|XArbitraryZVertical|0.6331969108011887|-0.3891196263709947|0.4719645189225815|-0.4742329313569585|-0.2286262661218643|0.9678669571876526|0.1047048196196556|0|0|0|-1|-1|3
2021-02-25 22:35:38.408 +0000|165114.481835625|-0.1021728515625|0.8934478759765625|0.4081573486328125|165114.461872625|2.889128739799185|-2.077913119044885|-1.31056068957889|-1.143561601638794|-0.2169640809297562|0.2469784021377563|-0.0313764214515686|-0.04704844951629639|0.2691705226898193|XArbitraryZVertical|0.639018209525606|-0.392603723096274|0.465006832071292|-0.4704111225044108|-0.2249253541231155|0.9663293957710266|0.1249639093875885|0|0|0|-1|-1|3
2021-02-25 22:35:38.428 +0000|165114.501798625|-0.1235809326171875|1.051803588867188|0.5123443603515625|165114.481835625|2.797446925566778|-2.168675512066751|-1.301382047122699|-1.308169364929199|-0.00304267555475235|0.2612756490707397|0.07285472750663757|-0.1094043254852295|0.2082855701446533|XArbitraryZVertical|0.6444885341993992|-0.39943200260844|0.4581641601257982|-0.4638686906972646|-0.2199950963258743|0.9639269709587097|0.149822786450386|0|0|0|-1|-1|3
2021-02-25 22:35:38.448 +0000|165114.521761625|-0.1281890869140625|1.242446899414062|0.47930908203125|165114.501798625|2.718654909791197|-2.242665488944526|-1.292588613207208|-0.7819158434867859|0.1458809226751328|0.2572495937347412|0.1077201962471008|-0.01439046859741211|0.2997734546661377|XArbitraryZVertical|0.6480931947606632|-0.4067525504697799|0.4529812457766908|-0.4575319210649471|-0.2149435728788376|0.9615492224693298|0.1709448546171188|0|0|0|-1|-1|3
2021-02-25 22:35:38.468 +0000|165114.541724625|-0.2730865478515625|1.16937255859375|0.32073974609375|165114.521761625|2.690063434643997|-2.267828075126848|-1.292671291398446|0.1233689710497856|0.1093990206718445|0.3053553104400635|0.08375918865203857|0.2021395564079285|0.3497835397720337|XArbitraryZVertical|0.6479170799473013|-0.4102772180610988|0.4513560307241077|-0.4562387154095023|-0.2105138599872589|0.9615719318389893|0.1762478798627853|0|0|0|-1|-1|3
2021-02-25 22:35:38.488 +0000|165114.561687625|-0.3569793701171875|0.9351654052734375|0.2490997314453125|165114.541724625|2.684865126832411|-2.270536579707802|-1.301096171549735|0.3044458627700806|0.09344971925020218|0.4029428660869598|0.003467738628387451|0.2553263306617737|0.2439486980438232|XArbitraryZVertical|0.6448934017928121|-0.4122006996809645|0.4513075381885447|-0.4588295239117851|-0.2038308084011078|0.9638508558273315|0.1715938299894333|0|0|0|-1|-1|3
2021-02-25 22:35:38.508 +0000|165114.581650625|-0.3406219482421875|0.900634765625|0.380645751953125|165114.561687625|2.674652162018468|-2.277251271245335|-1.311333864444035|0.02240883931517601|0.2609202861785889|0.5723806619644165|-0.1214317232370377|0.1486147046089172|0.06957028806209564|XArbitraryZVertical|0.6411576879003339|-0.4149564888390418|0.4510706343000047|-0.461804222975136|-0.1951574981212616|0.966528058052063|0.1665441393852234|0|0|0|-1|-1|3
2021-02-25 22:35:38.528 +0000|165114.601613625|-0.27178955078125|0.8743743896484375|0.4768524169921875|165114.581650625|2.624711814198935|-2.318686769857511|-1.317644115691292|-0.6069382429122925|0.4020070433616638|0.7671377062797546|-0.1808096170425415|-0.1455265283584595|0.1310118436813354|XArbitraryZVertical|0.6380791083862424|-0.4219265085513173|0.4491370099140332|-0.4616372100887836|-0.1836159378290176|0.9681277275085449|0.1703338474035263|0|0|0|-1|-1|3
2021-02-25 22:35:38.548 +0000|165114.621575625|-0.1723480224609375|1.039688110351562|0.5112152099609375|165114.601613625|2.535753472918009|-2.39681056225651|-1.317038855462476|-0.8264898061752319|0.3875651955604553|0.7676549553871155|-0.1441564410924911|-0.0372205376625061|0.2492016404867172|XArbitraryZVertical|0.6367298859736322|-0.4322760509321678|0.444698110299553|-0.4582094367503231|-0.1701592206954956|0.9679759740829468|0.1845750659704208|0|0|0|-1|-1|3
2021-02-25 22:35:38.568 +0000|165114.641538625|-0.15411376953125|0.9242401123046875|0.4186553955078125|165114.621575625|2.461286122482021|-2.462511146445268|-1.319102940579983|-0.1731954514980316|0.275103896856308|0.8016456961631775|-0.05409102141857147|-0.02595680952072144|0.3113791942596436|XArbitraryZVertical|0.634366010424481|-0.4409949117449221|0.440886188189519|-0.4568616078303976|-0.1564191430807114|0.9684920907020569|0.1937934905290604|0|0|0|-1|-1|3
2021-02-25 22:35:38.589 +0000|165114.661501625|-0.0916900634765625|0.8546905517578125|0.388763427734375|165114.641538625|2.412726684760707|-2.504066451029884|-1.32987528737631|0.2685050964355469|0.291585385799408|0.7646692991256714|-0.03814536333084106|0.05791878700256348|0.2833223342895508|XArbitraryZVertical|0.6293129960104354|-0.4470233422428236|0.4392646724470537|-0.4595451778752129|-0.1420150846242905|0.9711186289787292|0.1917294263839722|0|0|0|-1|-1|3
2021-02-25 22:35:38.608 +0000|165114.681464625|-0.0833282470703125|0.789581298828125|0.3818206787109375|165114.661501625|2.385386968502006|-2.524791743842141|-1.345158659418152|0.5893981456756592|0.2641723155975342|0.6297935247421265|0.003876686096191406|-0.08359944820404053|0.2091907262802124|XArbitraryZVertical|0.6228594012698706|-0.4508850404751611|0.4397965871077356|-0.4640342877608776|-0.1294106394052505|0.9746516346931458|0.1825022995471954|0|0|0|-1|-1|3
2021-02-25 22:35:38.628 +0000|165114.701427625|-0.09844970703125|0.7417144775390625|0.3600921630859375|165114.681464625|2.380775124458784|-2.524322250172124|-1.3624014037411|0.6896541714668274|0.267604649066925|0.4547854661941528|0.04385323822498322|-0.155839204788208|0.2320457845926285|XArbitraryZVertical|0.6161793685794655|-0.4524140227347268|0.4418658261026721|-0.469466917129124|-0.1197503805160522|0.9783642292022705|0.1687109172344208|0|0|0|-1|-1|3
2021-02-25 22:35:38.648 +0000|165114.721390625|-0.120697021484375|1.009750366210938|0.3367156982421875|165114.701427625|2.37697496273615|-2.521036988872766|-1.373921849545399|0.08521047234535217|0.4474954903125763|0.2638809680938721|0.01579523831605911|-0.221954882144928|0.2024679034948349|XArbitraryZVertical|0.6108657703685872|-0.4543241322778863|0.4443214952122135|-0.4722402266764301|-0.11374132335186|0.9806827306747437|0.1591348201036453|0|0|0|-1|-1|3
2021-02-25 22:35:38.668 +0000|165114.741353625|-0.21209716796875|1.146697998046875|0.48443603515625|165114.741353625|2.30028435621904|-2.57779621417506|-1.35770706695859|-0.6901780366897583|0.3722908794879913|0.1664053499698639|-0.05704476684331894|0.1245615482330322|0.1968304961919785|XArbitraryZVertical|0.6110736871711008|-0.4647187822856778|0.4439179958241566|-0.4621277375979237|-0.1130143329501152|0.9773822426795959|0.1787491887807846|0|0|0|-1|-1|3
2021-02-25 22:35:38.693 +0000|165114.761316625|-0.3546142578125|0.9600677490234375|0.4325408935546875||||||||||||||||||||||||3
2021-02-25 22:35:38.708 +0000|165114.781279625|-0.3674774169921875|0.7430877685546875|0.517242431640625|165114.761316625|2.248356914397812|-2.619883240785296|-1.348351605251616|-0.8043530583381653|0.5172535181045532|0.3071986734867096|-0.1651544272899628|0.1208455562591553|0.3079862594604492|XArbitraryZVertical|0.6112192590450369|-0.4712154577716046|0.4422239963125845|-0.456951780323454|-0.1099461615085602|0.9753610491752625|0.1912659853696823|0|0|0|-1|-1|3
2021-02-25 22:35:38.728 +0000|165114.801242625|-0.1890106201171875|0.997283935546875|0.49798583984375|165114.781279625|2.170024667900241|-2.686469463100188|-1.331391172001755|-1.45376193523407|0.4130389988422394|0.4976314902305603|-0.2922202944755554|-0.1392039060592651|0.18458092212677|XArbitraryZVertical|0.6125124967609238|-0.48095925597649|0.4378334858132287|-0.449230886729422|-0.1042334586381912|0.9714791774749756|0.2129867225885391|0|0|0|-1|-1|3
2021-02-25 22:35:38.747 +0000|165114.821205625|-0.142303466796875|1.222015380859375|0.2335052490234375|165114.801242625|2.087290998470551|-2.758220520426251|-1.313104636968048|-0.9176401495933533|0.3795828819274902|0.6149097084999084|-0.195003017783165|-0.2197734713554382|0.3503826260566711|XArbitraryZVertical|0.6135290962212302|-0.4916870185596191|0.4318663001158921|-0.441947024970276|-0.09532584995031357|0.9669808149337769|0.2363481521606445|0|0|0|-1|-1|3
2021-02-25 22:35:38.767 +0000|165114.841167625|0.0118865966796875|1.200363159179688|0.04962158203125|165114.821205625|2.017332136634799|-2.818728675410185|-1.306750236178404|-0.2835016250610352|0.3500149846076965|0.8483139276504517|-0.07487703859806061|0.2710317969322205|0.1249948292970657|XArbitraryZVertical|0.6110410158256812|-0.50038003392695|0.4277637515648663|-0.4396210765777193|-0.08280717581510544|0.9653419256210327|0.2475026100873947|0|0|0|-1|-1|3
2021-02-25 22:35:38.788 +0000|165114.861130625|0.0779571533203125|0.9869842529296875|-0.001068115234375|165114.841167625|1.951528260696305|-2.875368452387154|-1.311941592341066|0.2454635202884674|0.3552570343017578|0.9330043196678162|-0.0107199102640152|0.2636321187019348|-0.1186439245939255|XArbitraryZVertical|0.6050765909990511|-0.5073063811965807|0.4259601479818272|-0.4416789339830143|-0.06734394282102585|0.9666837453842163|0.2469548881053925|0|0|0|-1|-1|3
2021-02-25 22:35:38.808 +0000|165114.881093625|0.1180267333984375|0.7517547607421875|-0.013885498046875|165114.861130625|1.89024760967367|-2.927376388633113|-1.324253788007963|0.4942289888858795|0.3950408399105072|0.8555374145507812|0.09506355971097946|0.1318463087081909|-0.2400765120983124|XArbitraryZVertical|0.5971309791246054|-0.5125150981359835|0.4263289890910797|-0.4461013995738985|-0.0518810898065567|0.9697620272636414|0.2384742647409439|0|0|0|-1|-1|3
2021-02-25 22:35:38.828 +0000|165114.901056625|0.147125244140625|0.643829345703125|-0.0386810302734375|165114.881093625|1.833555725955135|-2.973294228624679|-1.334829682705732|0.25267493724823|0.49958336353302|0.6572620868682861|0.1368160843849182|-0.1074665188789368|-0.2283281236886978|XArbitraryZVertical|0.5894928045822792|-0.5174340394984449|0.4276216901963795|-0.4493326886470271|-0.03915976360440254|0.9722887873649597|0.230479508638382|0|0|0|-1|-1|3
2021-02-25 22:35:38.847 +0000|165114.921019625|0.11572265625|0.733856201171875|-0.0971221923828125|165114.901056625|1.790600205211146|-3.004742036669457|-1.336890236518169|-0.2339718192815781|0.5242269039154053|0.3450616300106049|0.1782570779323578|-0.2702540755271912|-0.2534758448600769|XArbitraryZVertical|0.584515256401507|-0.5226350154740027|0.4284975516621337|-0.4489812830190231|-0.03162003308534622|0.9727684855461121|0.2296108901500702|0|0|0|-1|-1|3
2021-02-25 22:35:38.867 +0000|165114.940982375|0.110382080078125|0.8493804931640625|-0.049591064453125|165114.921019625|1.776294547724023|-3.008077332546449|-1.329848554898258|-0.5099932551383972|0.5573480129241943|-0.1169684827327728|0.1589930355548859|-0.3097049593925476|-0.3130368292331696|XArbitraryZVertical|0.5832831381642015|-0.5272855895361961|0.4291000178148172|-0.4445488863773011|-0.031765166670084|0.9711122512817383|0.23649862408638|0|0|0|-1|-1|3
2021-02-25 22:35:38.887 +0000|165114.960945375|0.0006103515625|1.512374877929688|0.116180419921875|165114.940982375|1.794282182777994|-2.978674094586629|-1.311596737135093|-1.332112908363342|0.5886644124984741|-0.6329157948493958|0.1566392779350281|-0.1910674571990967|-0.3375687301158905|XArbitraryZVertical|0.5864153834456426|-0.5315763558094015|0.4295575151748382|-0.4347687797956143|-0.04157266393303871|0.9665954113006592|0.252912849187851|0|0|0|-1|-1|3
2021-02-25 22:35:38.907 +0000|165114.980908375|-0.20361328125|1.878692626953125|0.279754638671875|165114.960945375|1.833623442371947|-2.93217209789729|-1.271554244837455|-2.341033220291138|0.2335444092750549|-1.113919138908386|0.133826345205307|0.1470855474472046|-0.2754458487033844|XArbitraryZVertical|0.5973376815244806|-0.5360643686907963|0.426008625155161|-0.4175394595355014|-0.06128595396876335|0.9555602073669434|0.2883546352386475|0|0|0|-1|-1|3
2021-02-25 22:35:38.927 +0000|165115.000871375|-0.200225830078125|1.266326904296875|0.1230316162109375|165114.980908375|1.865784518421118|-2.901682198326276|-1.225561992680081|-1.641917586326599|-0.1740475445985794|-0.7527014017105103|-0.04028385132551193|0.8552224636077881|-0.1372720301151276|XArbitraryZVertical|0.6114688536133336|-0.5389506584419888|0.41868785621383|-0.4004226718007889|-0.08041304349899292|0.9409961700439453|0.3287239372730255|0|0|0|-1|-1|3
2021-02-25 22:35:38.947 +0000|165115.020834375|-0.2496490478515625|1.204269409179688|-0.2752838134765625|165115.000871375|1.875412243612042|-2.896551488724055|-1.200907448221282|-1.059715151786804|-0.1612206995487213|-0.1900654137134552|-0.1562559902667999|0.6523035168647766|-0.07344517111778259|XArbitraryZVertical|0.619340605938105|-0.5401606160465449|0.4130747656346382|-0.3924448668912105|-0.08770143240690231|0.9323675036430359|0.3507125675678253|0|0|0|-1|-1|3
2021-02-25 22:35:38.967 +0000|165115.040797375|-0.134185791015625|0.607086181640625|-0.214813232421875|165115.020834375|1.85865824232313|-2.914185948865494|-1.175672395450935|-1.982420921325684|-0.07771632075309753|0.2066581398248672|-0.1155348047614098|0.1357515454292297|-0.5256011486053467|XArbitraryZVertical|0.6247735440250203|-0.5451275388365341|0.4053372138905655|-0.3849618125361785|-0.08678136765956879|0.9229488968849182|0.3750120401382446|0|0|0|-1|-1|3
2021-02-25 22:35:38.989 +0000|165115.060759375|0.230438232421875|1.006515502929688|0.0598907470703125|165115.040797375|1.822051502194082|-2.950400561311586|-1.130838150324366|-1.934967398643494|-0.06610094755887985|0.1633916199207306|-0.2209002077579498|0.3482670783996582|-0.7641951441764832|XArbitraryZVertical|0.6327685204958512|-0.5555848232796429|0.3905736946342969|-0.3719968892647916|-0.0809338241815567|0.9047694802284241|0.4181410074234009|0|0|0|-1|-1|3
2021-02-25 22:35:39.008 +0000|165115.080722375|0.1313629150390625|1.1226806640625|0.061279296875|165115.060759375|1.805838639455303|-2.969860648960139|-1.106429482445167|-0.6019396185874939|-0.5004716515541077|0.1773165017366409|0.2698322534561157|-0.4776625037193298|-0.4343870878219604|XArbitraryZVertical|0.6376586754572099|-0.5603800237813151|0.3814980525192829|-0.3658207363342272|-0.07653381675481796|0.8941053152084351|0.4412687122821808|0|0|0|-1|-1|3
2021-02-25 22:35:39.027 +0000|165115.100685375|0.2734832763671875|0.8934478759765625|0.0354461669921875|165115.080722375|1.792350554687448|-2.991644692914129|-1.111754424846936|0.8898717761039734|-0.4792360067367554|0.4185290336608887|0.1763907074928284|0.4529945850372314|-0.400916576385498|XArbitraryZVertical|0.636811700105278|-0.5599370711256918|0.3783575553664447|-0.3711965319983528|-0.06619163602590561|0.8964774608612061|0.4381173253059387|0|0|0|-1|-1|3
2021-02-25 22:35:39.047 +0000|165115.120648375|0.3038177490234375|0.7783050537109375|-0.001678466796875|165115.100685375|1.782080345749236|-3.010706633467906|-1.140016776417268|1.755156993865967|-0.5272659063339233|0.4089439511299133|0.2795054912567139|0.02386957406997681|-0.3575952649116516|XArbitraryZVertical|0.6311794781880649|-0.5555320561333601|0.3813119905926529|-0.3841842535782495|-0.05449926853179932|0.9086405038833618|0.4140067994594574|0|0|0|-1|-1|3
2021-02-25 22:35:39.067 +0000|165115.140611375|0.29608154296875|0.5800628662109375|-0.00494384765625|165115.120648375|1.7776876157389|-3.025579572828751|-1.182071196226262|2.260452508926392|-0.5282993316650391|0.3148186802864075|0.3277155458927155|-0.1115044355392456|-0.3804592490196228|XArbitraryZVertical|0.6232017614435258|-0.5475858870995564|0.3880042577561262|-0.4015246091155398|-0.04387145489454269|0.9253929853439331|0.3764614760875702|0|0|0|-1|-1|3
2021-02-25 22:35:39.087 +0000|165115.160574375|0.293731689453125|0.506011962890625|0.009918212890625|165115.140611375|1.778721031411234|-3.034730902074737|-1.227805724918648|2.267712116241455|-0.4898607432842255|0.08211293071508408|0.339153528213501|-0.306850254535675|-0.3160302639007568|XArbitraryZVertical|0.6145688854901549|-0.5380504470071766|0.3962533846670464|-0.4192731805239093|-0.03586975857615471|0.9417531490325928|0.33438640832901|0|0|0|-1|-1|3
2021-02-25 22:35:39.108 +0000|165115.180537375|0.234130859375|0.4021148681640625|0.0537567138671875|165115.180537375|1.829557000756891|-3.002298513507061|-1.285477030976717|0.1366699635982513|-0.2506083548069|-0.656093418598175|0.3405323028564453|-0.5655136704444885|-0.2043814659118652|XArbitraryZVertical|0.6073236898103545|-0.52012179937003|0.4088627899523214|-0.4398436454024515|-0.03907958045601845|0.9595718383789062|0.2787375152111053|0|0|0|-1|-1|3
2021-02-25 22:35:39.127 +0000|165115.200500375|0.2307891845703125|0.7036895751953125|0.1828460693359375||||||||||||||||||||||||3
2021-02-25 22:35:39.147 +0000|165115.220463375|0.06585693359375|1.241241455078125|0.73883056640625|165115.220463375|1.932673817493569|-2.915965623036497|-1.230031786812478|-2.052407741546631|-0.6171135902404785|-1.284342527389526|0.2622071802616119|-0.02298963069915771|0.1042864322662354|XArbitraryZVertical|0.6308559144054009|-0.5146738458935273|0.4014731518803443|-0.419465008982143|-0.07476808875799179|0.9424993991851807|0.3257367014884949|0|0|0|-1|-1|3
2021-02-25 22:35:39.167 +0000|165115.240426375|-0.130401611328125|1.615081787109375|1.066513061523438||||||||||||||||||||||||3
2021-02-25 22:35:39.186 +0000|165115.260389375|-0.3160552978515625|1.3548583984375|0.5499114990234375|165115.240426375|1.977444638097861|-2.889137284876051|-1.198949317899063|-0.3303066790103912|-0.9451780915260315|-0.8495644927024841|0.04314763098955154|0.6502053737640381|0.6024957895278931|XArbitraryZVertical|0.64513422153963|-0.5096189594340189|0.3945347113204615|-0.4104053800037525|-0.09075496345758438|0.9316578507423401|0.3518193066120148|0|0|0|-1|-1|3
2021-02-25 22:35:39.206 +0000|165115.280351375|-0.513519287109375|0.4509735107421875|0.40423583984375|165115.260389375|2.005875097295402|-2.884692416076669|-1.197879442713873|-0.1529750227928162|-1.170796632766724|-0.1812583357095718|-0.09973519295454025|0.5078794956207275|0.5750980377197266|XArbitraryZVertical|0.6517304927613823|-0.501433773348545|0.3899068418437548|-0.4144686175252095|-0.09257122874259949|0.931268572807312|0.3523769378662109|0|0|0|-1|-1|3
2021-02-25 22:35:39.226 +0000|165115.300314375|-0.1072235107421875|1.30511474609375|0.0074920654296875|165115.280351375|1.986141348185879|-2.924902914223831|-1.179006709398983|-1.410775303840637|-0.9045947790145874|0.1953922510147095|-0.3818632662296295|0.1431860327720642|0.08698675036430359|XArbitraryZVertical|0.6594024295824346|-0.5016422667707436|0.3771289937232388|-0.4139046781305811|-0.08209538459777832|0.9242271780967712|0.3729130625724792|0|0|0|-1|-1|3
2021-02-25 22:35:39.246 +0000|165115.320277375|-0.0949554443359375|1.565643310546875|0.0792083740234375|165115.300314375|1.968301806816694|-2.959165141805818|-1.156578124205994|-0.675825297832489|-1.002617716789246|0.08921140432357788|-0.2219364643096924|-0.3319504857063293|-0.1730175018310547|XArbitraryZVertical|0.6669278549971198|-0.5030955209408309|0.3648425293548612|-0.4110864202182056|-0.07301581650972366|0.9154312610626221|0.3957957327365875|0|0|0|-1|-1|3
2021-02-25 22:35:39.266 +0000|165115.340240375|0.183868408203125|1.700271606445312|0.1291961669921875|165115.340240375|1.933229595041945|-3.038728817189377|-1.196344211056101|2.550096750259399|-1.289667367935181|0.7945842146873474|0.08971208333969116|0.7678545117378235|-0.2612293660640717|XArbitraryZVertical|0.6627269275148269|-0.4926537197559221|0.3544484264789925|-0.4386931189329706|-0.03755743801593781|0.9307081699371338|0.3638293445110321|0|0|0|-1|-1|3
2021-02-25 22:35:39.286 +0000|165115.360203375|0.2723388671875|1.0653076171875|0.2521209716796875||||||||||||||||||||||||3
2021-02-25 22:35:39.306 +0000|165115.380166375|0.23974609375|0.535247802734375|0.1967926025390625|165115.360203375|1.897292472922337|-3.098329371126808|-1.254302553600882|2.921947479248047|-1.270079851150513|0.8321347236633301|0.2524288892745972|0.5237732529640198|-0.1273970603942871|XArbitraryZVertical|0.6504349572508322|-0.4820858950750478|0.356153295583129|-0.4665643777495761|-0.01346089597791433|0.9503325223922729|0.3109448850154877|0|0|0|-1|-1|3
2021-02-25 22:35:39.326 +0000|165115.400129375|0.2604522705078125|0.4447479248046875|0.196533203125|165115.380166375|1.853560815456282|3.118964839744086|-1.300447632756149|1.52716076374054|-1.12191915512085|0.4635332524776459|0.2391356527805328|-0.2220549583435059|-0.02807676792144775|XArbitraryZVertical|0.640584114599148|-0.4723890217806916|0.3562434451471225|-0.4894804840495821|0.006042630411684513|0.9636778235435486|0.2669987976551056|0|0|0|-1|-1|3
2021-02-25 22:35:39.346 +0000|165115.420092375|0.2217864990234375|0.5399017333984375|0.2993316650390625|165115.400129375|1.827842186758623|3.072410262915444|-1.314982514385556|0.07319335639476776|-1.057724833488464|0.1650101095438004|0.246943473815918|-0.507023811340332|-0.07434201240539551|XArbitraryZVertical|0.6393456453718434|-0.4663161475161908|0.3512843472149615|-0.5003854898442021|0.01749143190681934|0.9674577116966248|0.2524272203445435|0|0|0|-1|-1|3
2021-02-25 22:35:39.366 +0000|165115.440055375|0.1663360595703125|0.543670654296875|0.45794677734375|165115.420092375|1.827713924624056|3.052122919871457|-1.307458594545692|-0.8187257647514343|-0.9505943655967712|-0.08426717668771744|0.2081718146800995|-0.4532126784324646|-0.01913592219352722|XArbitraryZVertical|0.6445792881392874|-0.4627626157957274|0.3429129709342092|-0.5027712926540523|0.02325831912457943|0.9655265212059021|0.2592633962631226|0|0|0|-1|-1|3
2021-02-25 22:35:39.386 +0000|165115.460018375|0.1103973388671875|0.868499755859375|0.6035919189453125|165115.440055375|1.853715588388436|3.059604038855812|-1.284466014212683|-1.462915897369385|-0.8221385478973389|-0.4270500838756561|0.1720753908157349|-0.4536716938018799|0.09777247905731201|XArbitraryZVertical|0.6545973240140446|-0.46070014407116|0.3330531513528248|-0.4983304107303747|0.02313038147985935|0.9592867493629456|0.2814845442771912|0|0|0|-1|-1|3
2021-02-25 22:35:39.407 +0000|165115.479981375|0.0795440673828125|0.997283935546875|0.568878173828125|165115.460018375|1.897527735832464|3.085882849493754|-1.254215636056014|-1.506264686584473|-0.7365794777870178|-0.6536182761192322|0.1172938346862793|-0.2809939980506897|0.2581490278244019|XArbitraryZVertical|0.6673303630340449|-0.4583536883144626|0.323463960887542|-0.4898500836061201|0.01733453944325447|0.9503054618835449|0.3108358383178711|0|0|0|-1|-1|3
2021-02-25 22:35:39.426 +0000|165115.499943375|0.066925048828125|0.6630401611328125|0.475128173828125|165115.479981375|1.945012201249877|3.118640986194926|-1.233832324631473|-0.6689421534538269|-0.4690607488155365|-0.7250787019729614|0.06777554750442505|0.05124765634536743|0.2345269024372101|XArbitraryZVertical|0.6776798572938352|-0.4538923122412551|0.318085722473363|-0.4832735177752512|0.007587695028632879|0.9437627792358398|0.3305364549160004|0|0|0|-1|-1|3
2021-02-25 22:35:39.446 +0000|165115.519906375|0.01708984375|0.6879119873046875|0.54156494140625|165115.499943375|1.988572830956024|-3.130059718242424|-1.223542090372457|-0.5242573618888855|-0.2224271148443222|-0.7982513308525085|0.08673429489135742|-0.1490967869758606|0.1926491260528564|XArbitraryZVertical|0.6845001376693479|-0.4490064570099241|0.3170139716881752|-0.4789100909760783|-0.003924767952412367|0.9403107166290283|0.3402944803237915|0|0|0|-1|-1|3
2021-02-25 22:35:39.466 +0000|165115.539869375|0.023651123046875|0.7784423828125|0.520477294921875|165115.519906375|2.029468097148146|-3.094151392757301|-1.209424138618191|-0.8257341384887695|-0.01953989267349243|-0.6704608798027039|0.07507085800170898|-0.2824279069900513|0.1763348877429962|XArbitraryZVertical|0.6914088356796864|-0.4455714548230962|0.3165818418881258|-0.472436031156667|-0.01676694676280022|0.935412585735321|0.3531602025032043|0|0|0|-1|-1|3
2021-02-25 22:35:39.486 +0000|165115.559832375|0.0977935791015625|0.98663330078125|0.4177703857421875|165115.539869375|2.061761685316948|-3.063110101901286|-1.191615043020519|-0.7439195513725281|0.07952527701854706|-0.6004810929298401|0.02487096190452576|-0.180280327796936|0.1550883054733276|XArbitraryZVertical|0.6980936405295238|-0.4440444306778706|0.3161111700697724|-0.4642881385714331|-0.02902127057313919|0.9289680123329163|0.3690203726291656|0|0|0|-1|-1|3
2021-02-25 22:35:39.506 +0000|165115.579795375|0.157867431640625|1.0894775390625|0.3804779052734375|165115.559832375|2.08821654561403|-3.036891160268147|-1.179181261268011|-0.4172234535217285|0.1078134328126907|-0.4818907678127289|0.1102327406406403|-0.05446666479110718|0.07977458834648132|XArbitraryZVertical|0.7029160270727893|-0.4423851004827604|0.3167118776885826|-0.4581461854338915|-0.0398896187543869|0.9242938160896301|0.3795910477638245|0|0|0|-1|-1|3
2021-02-25 22:35:39.526 +0000|165115.599758375|0.1907196044921875|1.246490478515625|0.43865966796875|165115.579795375|2.107467971069882|-3.015692094344709|-1.172913226952068|-0.1619139313697815|0.2446082383394241|-0.3193594813346863|0.1718683838844299|0.1064368486404419|0.01475411653518677|XArbitraryZVertical|0.7053812324560307|-0.4411773810225007|0.3185735742791537|-0.4542142245691576|-0.04865355789661407|0.9218832850456238|0.384400337934494|0|0|0|-1|-1|3
2021-02-25 22:35:39.546 +0000|165115.619721375|0.2127227783203125|1.490371704101562|0.73681640625|165115.599758375|2.116489645037688|-3.001406422432062|-1.168375170111166|-0.2768383026123047|0.3544707298278809|-0.0764838233590126|0.2408964335918427|0.2673234343528748|-0.00432121753692627|XArbitraryZVertical|0.7062400396471132|-0.441732398300599|0.3207172430228303|-0.4508191428214678|-0.05472387373447418|0.9201154708862305|0.3878050148487091|0|0|0|-1|-1|3
2021-02-25 22:35:39.566 +0000|165115.639684375|0.1454010009765625|1.631698608398438|0.9076690673828125|165115.619721375|2.110760131268651|-3.001308861874819|-1.161927589225024|-0.3852412104606628|0.1395115405321121|0.2343826144933701|0.2590508759021759|0.3952951431274414|0.1632339358329773|XArbitraryZVertical|0.7065884348972188|-0.4444837294265973|0.320826350212011|-0.4474790069579668|-0.05559010058641434|0.9175711870193481|0.393665999174118|0|0|0|-1|-1|3
2021-02-25 22:35:39.586 +0000|165115.659647375|0.1266021728515625|1.49993896484375|0.8684844970703125|165115.639684375|2.088039615828297|-3.021657159446837|-1.155037554905294|-0.3830429911613464|-0.08668148517608643|0.5844046473503113|0.2224116027355194|0.7184295654296875|0.4456510543823242|XArbitraryZVertical|0.706486819915346|-0.448740174464834|0.3173860079159976|-0.4458415960627166|-0.04832399263978004|0.9148101210594177|0.4009827375411987|0|0|0|-1|-1|3
2021-02-25 22:35:39.606 +0000|165115.679610375|-0.0172271728515625|1.2928466796875|0.7435760498046875|165115.659647375|2.047714691817296|-3.061556830688191|-1.146819638763276|-0.6142387986183167|-0.2229697704315186|0.9550275206565857|0.1869587302207947|0.6506736278533936|0.5348901152610779|XArbitraryZVertical|0.7056469522623841|-0.4550802582291328|0.3106202650979049|-0.4455102411669455|-0.03289065510034561|0.9114601612091064|0.4100713133811951|0|0|0|-1|-1|3
2021-02-25 22:35:39.626 +0000|165115.699573375|-0.125335693359375|1.033966064453125|0.5345916748046875|165115.679610375|1.987994108715169|-3.121173849445033|-1.133314340548785|-0.7884131073951721|-0.2852584719657898|1.448029160499573|0.06480246782302856|0.4894117712974548|0.4277771711349487|XArbitraryZVertical|0.7041743733850432|-0.4646764774174045|0.2999532998937689|-0.4452440002152659|-0.008650027215480804|0.9058213233947754|0.4235715568065643|0|0|0|-1|-1|3
2021-02-25 22:35:39.646 +0000|165115.719536375|-0.1809844970703125|1.171234130859375|0.4236602783203125|165115.699573375|1.910251426309077|3.084516873232716|-1.117258606111536|-0.6268341541290283|-0.4783506095409393|1.907910943031311|-0.1027985513210297|0.2465134263038635|0.1958814561367035|XArbitraryZVertical|0.7007333843858502|-0.4771686581437072|0.2862141153917834|-0.4465021129436659|0.02499405667185783|0.8989026546478271|0.4374344050884247|0|0|0|-1|-1|3
2021-02-25 22:35:39.666 +0000|165115.739498375|-0.1610107421875|1.109527587890625|0.337127685546875|165115.719536375|1.820272540765162|2.991207330441991|-1.108186778076226|0.2972834408283234|-0.7436883449554443|2.191413402557373|-0.2225626111030579|0.1244267225265503|0.02132230997085571|XArbitraryZVertical|0.6938056184785737|-0.4891397206604916|0.2715268488539742|-0.4534856686974574|0.06686200201511383|0.8948909640312195|0.4412477910518646|0|0|0|-1|-1|3
2021-02-25 22:35:39.697 +0000|165115.759461375|0.045806884765625|1.332107543945312|0.4209747314453125|165115.739498375|1.706482366505524|2.872117738996018|-1.118202406668204|1.704518556594849|-0.9498440623283386|2.452632904052734|-0.3323625922203064|0.2593299150466919|-0.0510043203830719|XArbitraryZVertical|0.6797573004901601|-0.4986873321350336|0.259820716029141|-0.4708866006961589|0.1164203062653542|0.8993158340454102|0.421518087387085|0|0|0|-1|-1|3
2021-02-25 22:35:39.713 +0000|165115.779424375|0.16217041015625|1.727386474609375|0.612060546875|165115.759461375|1.555133202575891|2.714811942423926|-1.143888578179215|2.970043182373047|-1.178787469863892|2.777611970901489|-0.2319884896278381|0.2748231291770935|-0.02109819650650024|XArbitraryZVertical|0.6582021868100513|-0.5052016517573319|0.2520462191331456|-0.4980096935661352|0.1713958978652954|0.9102504849433899|0.3769176602363586|0|0|0|-1|-1|3
2021-02-25 22:35:39.726 +0000|165115.799387375|0.069854736328125|1.666854858398438|0.6744842529296875|165115.779424375|1.341123434636876|2.492073915726492|-1.173904943849006|3.852275133132935|-1.375975131988525|3.012770175933838|-0.09847341477870941|0.6362501978874207|0.1869250237941742|XArbitraryZVertical|0.6288243172321423|-0.5084294419050511|0.2461276920747995|-0.5343225011878716|0.2337884306907654|0.9222670793533325|0.307841032743454|0|0|0|-1|-1|3
2021-02-25 22:35:39.746 +0000|165115.819350375|0.073577880859375|0.69500732421875|0.6690673828125|165115.799387375|1.075190072007356|2.217989360938303|-1.190949399005622|4.337153434753418|-1.425642728805542|2.909094572067261|-0.1532208621501923|0.8396500945091248|0.3984944820404053|XArbitraryZVertical|0.5941923262418486|-0.5086410176378512|0.2424271447529013|-0.5739762977137368|0.2957990765571594|0.9287214279174805|0.2235604077577591|0|0|0|-1|-1|3
2021-02-25 22:35:39.766 +0000|165115.839313375|0.1945953369140625|0.1900634765625|0.5719757080078125|165115.819350375|0.8122276837647866|1.949868442580945|-1.180333866454685|3.615005254745483|-1.012988328933716|2.807264804840088|-0.3003114461898804|0.3850048184394836|0.5383031368255615|XArbitraryZVertical|0.5585731803595338|-0.5083513107990847|0.2389275624431186|-0.6103182928940403|0.3535951375961304|0.9247331619262695|0.1408501118421555|0|0|0|-1|-1|3
2021-02-25 22:35:39.786 +0000|165115.859276375|0.198638916015625|-0.3193817138671875|0.341217041015625|165115.839313375|0.6336999220138931|1.767393077999036|-1.147399100677869|2.305531740188599|-0.8843639492988586|2.385937929153442|-0.2887027263641357|-0.5083630681037903|0.5974645614624023|XArbitraryZVertical|0.5294346353643798|-0.5097314438616545|0.2327120171512722|-0.6369597958000194|0.4029452800750732|0.9116984009742737|0.08025435358285904|0|0|0|-1|-1|3
2021-02-25 22:35:39.808 +0000|165115.879239375|0.1407012939453125|-0.1596527099609375|0.04425048828125|165115.859276375|0.543248982222246|1.669075968917447|-1.110313812594709|0.9194508790969849|-0.7864391803741455|1.800809502601624|-0.2692775428295135|-0.9815621972084045|0.4141602516174316|XArbitraryZVertical|0.5099130772822255|-0.5116544616197884|0.2231285673190255|-0.6545318778144997|0.4422359764575958|0.89583820104599|0.04360326752066612|0|0|0|-1|-1|3
2021-02-25 22:35:39.827 +0000|165115.899202375|0.0703125|-0.081024169921875|-0.1853179931640625|165115.879239375|0.5246263482140203|1.637488221233514|-1.081251222043376|-0.2237218767404556|-0.6987546682357788|1.231113076210022|-0.291856586933136|-1.210534572601318|0.1592910289764404|XArbitraryZVertical|0.5019333867711391|-0.513547787213793|0.2111176151826806|-0.6631446543506651|0.4691789746284485|0.8825468420982361|0.03133690729737282|0|0|0|-1|-1|3
2021-02-25 22:35:39.846 +0000|165115.919165375|0.1044158935546875|0.09014892578125|-0.2546234130859375|165115.899202375|0.5456388549605505|1.645497219808603|-1.062222933815816|-0.8415662050247192|-0.3194375336170197|0.571536660194397|-0.3987510502338409|-0.9877132773399353|-0.1218812465667725|XArbitraryZVertical|0.5020803457684431|-0.5158347851330883|0.199503784278049|-0.6648518296160241|0.4855735301971436|0.8734400272369385|0.03634039685130119|0|0|0|-1|-1|3
2021-02-25 22:35:39.866 +0000|165115.9391286667|0.0844573974609375|0.1650390625|-0.2043304443359375|165115.919165375|0.580796075066066|1.674000528468479|-1.056767996259476|-0.8760076761245728|0.1077132895588875|-0.1972496509552002|-0.3926981687545776|-0.8632330894470215|-0.296626091003418|XArbitraryZVertical|0.5071247279924411|-0.5178336395035774|0.1931116160452374|-0.6613476660635575|0.4890727996826172|0.8707708716392517|0.050654336810112|0|0|0|-1|-1|3
2021-02-25 22:35:39.886 +0000|165115.9590906667|0.0971832275390625|0.2382354736328125|-0.0481414794921875|165115.9391286667|0.612975506390074|1.708737040712669|-1.066535046206888|-0.6148009896278381|0.5455638766288757|-0.9769219160079956|-0.3860419392585754|-0.748426079750061|-0.3009183406829834|XArbitraryZVertical|0.5142184382605706|-0.5184569285040652|0.1948876276778616|-0.6548286698225347|0.4785712957382202|0.8755316138267517|0.06643638014793396|0|0|0|-1|-1|3
2021-02-25 22:35:39.910 +0000|165115.9790536667|0.0809173583984375|0.478729248046875|0.1670074462890625|165115.9590906667|0.6478720662831401|1.754455006889897|-1.090701401437328|-0.7125497460365295|0.9510183930397034|-1.659430861473083|-0.356790155172348|-0.6898382306098938|-0.2285141944885254|XArbitraryZVertical|0.523621133643971|-0.5176827697267991|0.2041642687923637|-0.6450908801493328|0.4540954232215881|0.8869510889053345|0.08434908092021942|0|0|0|-1|-1|3
2021-02-25 22:35:39.927 +0000|165115.9990166667|0.0107574462890625|0.8575592041015625|0.3824005126953125|165115.9790536667|0.7067832933478959|1.828994106911862|-1.124591335229653|-1.128690838813782|1.203760743141174|-2.198914766311646|-0.3350407779216766|-0.5788798332214355|-0.05400729924440384|XArbitraryZVertical|0.537177269380994|-0.5162708425740588|0.2176129069967244|-0.6305152442410091|0.4172398447990417|0.9020913243293762|0.1101900041103363|0|0|0|-1|-1|3
2021-02-25 22:35:39.946 +0000|165116.0189796667|-0.03466796875|1.307601928710938|0.6345062255859375|165115.9990166667|0.8084204625362639|1.94827010149248|-1.161076348078626|-1.753526210784912|1.477842450141907|-2.561632394790649|-0.3079452514648438|-0.2447775602340698|0.1416299492120743|XArbitraryZVertical|0.5553807552781461|-0.5147458203963997|0.2323635292695587|-0.6104065440713599|0.370307981967926|0.9172323942184448|0.1468220800161362|0|0|0|-1|-1|3
2021-02-25 22:35:39.965 +0000|165116.0389426667|-0.1096649169921875|1.484100341796875|0.6436767578125|165116.0189796667|0.9603182331657906|2.119601737796247|-1.190699619088541|-2.05180287361145|1.637922286987305|-2.666534185409546|-0.3414135575294495|0.1281338334083557|0.3410015106201172|XArbitraryZVertical|0.5768370132459673|-0.5138396277510673|0.2468128325227266|-0.5850737009684309|0.3165265619754791|0.9286287426948547|0.1935442090034485|0|0|0|-1|-1|3
2021-02-25 22:35:39.985 +0000|165116.0589056667|-0.1093902587890625|1.307418823242188|0.3478240966796875|165116.0389426667|1.133889164133234|2.31561992990471|-1.20633055428887|-1.900920629501343|1.781213998794556|-2.414579153060913|-0.3400215208530426|0.5942346453666687|0.4120697975158691|XArbitraryZVertical|0.5971508912606831|-0.5140224582087596|0.2607621097501925|-0.5578482494216298|0.2620643973350525|0.9343143105506897|0.2416165471076965|0|0|0|-1|-1|3
2021-02-25 22:35:40.010 +0000|165116.0788686667|-0.210357666015625|1.232040405273438|0.2819061279296875|165116.0589056667|1.302214256089191|2.509154404388193|-1.213116781690121|-1.441581130027771|1.707400441169739|-2.393793344497681|-0.3270057439804077|0.4531503319740295|0.2867037355899811|XArbitraryZVertical|0.6142667755773547|-0.5136830954995333|0.2760870145421859|-0.5315844037086971|0.2069496810436249|0.9367117285728455|0.2823880016803741|0|0|0|-1|-1|3
2021-02-25 22:35:40.026 +0000|165116.0988316667|-0.280731201171875|1.020126342773438|0.1409454345703125|165116.0788686667|1.446117846484368|2.678223738626719|-1.213723347934431|-1.215447425842285|1.772698998451233|-1.962566018104553|-0.2938933968544006|0.3773154020309448|-0.02240744233131409|XArbitraryZVertical|0.627193640896707|-0.5128018705706989|0.2913673358323844|-0.508691778684069|0.156228706240654|0.9369239211082458|0.3126752376556396|0|0|0|-1|-1|3
2021-02-25 22:35:40.046 +0000|165116.1187946667|-0.219879150390625|0.8789825439453125|0.027923583984375|165116.0988316667|1.57619914637914|2.835771506000421|-1.202507935613736|-1.760995388031006|1.834585070610046|-1.932829260826111|-0.3812354207038879|0.2001726031303406|-0.1604678928852081|XArbitraryZVertical|0.6386107785978185|-0.5136469325140537|0.305202927487255|-0.4849681915446048|0.1083930879831314|0.9329449534416199|0.3433137834072113|0|0|0|-1|-1|3
2021-02-25 22:35:40.065 +0000|165116.1387576667|-0.19525146484375|1.352371215820312|0.2564849853515625|165116.1187946667|1.699106843725587|2.982556489584391|-1.170334182156333|-2.239474773406982|1.418028116226196|-1.869442939758301|-0.319398045539856|-0.06391692161560059|-0.2925779819488525|XArbitraryZVertical|0.6530294840036562|-0.5157659312091948|0.3138382529012247|-0.4572127179287746|0.06173822283744812|0.920880913734436|0.3849239945411682|0|0|0|-1|-1|3
2021-02-25 22:35:40.085 +0000|165116.1587196667|-0.1169891357421875|1.339492797851562|0.4004974365234375|165116.1387576667|1.789319305613294|3.086317507258551|-1.135883022200455|-1.446598649024963|0.7946844696998596|-1.468642234802246|-0.2244949042797089|0.1708065271377563|-0.3105201125144958|XArbitraryZVertical|0.6665953110694932|-0.5157470080550831|0.3183088818006219|-0.4339760997242504|0.02327733300626278|0.9069065451622009|0.4206885695457458|0|0|0|-1|-1|3
2021-02-25 22:35:40.108 +0000|165116.1786826667|0.118438720703125|1.322998046875|0.306793212890625|165116.1587196667|1.852811919018123|-3.127187327143994|-1.11497158225105|-0.7196930646896362|0.4716576039791107|-1.30509889125824|-0.1624363362789154|0.5023243427276611|-0.05401808023452759|XArbitraryZVertical|0.6761106402330749|-0.5127892575299305|0.322686963039396|-0.4192786124438064|-0.006341041531413794|0.897898256778717|0.4401568472385406|0|0|0|-1|-1|3
2021-02-25 22:35:40.126 +0000|165116.1986456667|0.259246826171875|1.290679931640625|0.14788818359375|165116.1986456667|1.959867887371601|-3.026195263344779|-1.106014965238701|0.1997439116239548|-0.1574017852544785|-1.052489757537842|0.2558789849281311|0.408967137336731|-0.1997624039649963|XArbitraryZVertical|0.6886297859365224|-0.4984093014243242|0.3328691320836091|-0.4081361676552798|-0.05160947516560555|0.8939195871353149|0.445245623588562|0|0|0|-1|-1|3
2021-02-25 22:35:40.145 +0000|165116.2186086667|0.375030517578125|1.2969970703125|0.019683837890625||||||||||||||||||||||||3
2021-02-25 22:35:40.165 +0000|165116.2385716667|0.4515380859375|1.346038818359375|-0.05487060546875|165116.2186086667|2.003564050494458|-2.991015881708102|-1.107274711013891|0.1399338245391846|-0.1918467879295349|-0.8656064867973328|0.3750829100608826|0.3955098390579224|-0.379496157169342|XArbitraryZVertical|0.6932494090052689|-0.4903327363795875|0.3363910859482774|-0.4072101606679283|-0.06706889718770981|0.8944835066795349|0.4420418739318848|0|0|0|-1|-1|3
2021-02-25 22:35:40.193 +0000|165116.2585346667|0.4605865478515625|1.275680541992188|-0.0293731689453125|165116.2385716667|2.038809715054729|-2.963648789190612|-1.108058518991314|0.2204557657241821|-0.2208294272422791|-0.6563512086868286|0.5003718137741089|0.4290951490402222|-0.4688919186592102|XArbitraryZVertical|0.6970222847142743|-0.4835652402202837|0.3388930983324627|-0.4067874612192766|-0.07901553064584732|0.8948336839675903|0.439350813627243|0|0|0|-1|-1|3
2021-02-25 22:35:40.206 +0000|165116.2784976667|0.4652557373046875|1.201431274414062|0.0009918212890625|165116.2585346667|2.06390970540276|-2.944714085666353|-1.111011832420107|0.3090946972370148|-0.1395059823989868|-0.3862483203411102|0.54249107837677|0.4149327278137207|-0.4812486171722412|XArbitraryZVertical|0.6991169783860742|-0.4783581671333635|0.3409775283146516|-0.4076065928128159|-0.08680247515439987|0.896148145198822|0.4351821839809418|0|0|0|-1|-1|3
2021-02-25 22:35:40.225 +0000|165116.2984606667|0.4356536865234375|1.0728759765625|0.04437255859375|165116.2784976667|2.079026289835536|-2.933261030902102|-1.117744652490329|0.4720205366611481|-0.06874924898147583|-0.1425431817770004|0.5605169534683228|0.3545160889625549|-0.4475188851356506|XArbitraryZVertical|0.6990891688923433|-0.4747607746815389|0.3431857416043304|-0.4100001165009278|-0.09053092449903488|0.8991155624389648|0.4282469153404236|0|0|0|-1|-1|3
2021-02-25 22:35:40.245 +0000|165116.3184236667|0.38458251953125|1.0362548828125|0.1592254638671875|165116.2984606667|2.085548739241213|-2.927707779004589|-1.127912042624092|0.5772080421447754|0.02190390042960644|0.08743037283420563|0.5415241122245789|0.2176811695098877|-0.3973435759544373|XArbitraryZVertical|0.6971259216041004|-0.4726589881300949|0.3456970947886529|-0.4136452792774116|-0.0909624919295311|0.9035193920135498|0.4187821447849274|0|0|0|-1|-1|3
2021-02-25 22:35:40.265 +0000|165116.3383866667|0.294677734375|1.21875|0.2794342041015625|165116.3184236667|2.082844625393236|-2.928799016189258|-1.140999005800154|0.706756591796875|0.06378030031919479|0.2776646912097931|0.5015442967414856|0.1273722648620605|-0.3073883652687073|XArbitraryZVertical|0.6933616436111587|-0.4721158570338535|0.348324826383082|-0.4183609516346281|-0.08800046890974045|0.9090502262115479|0.4072875082492828|0|0|0|-1|-1|3
2021-02-25 22:35:40.285 +0000|165116.3583496667|0.16546630859375|1.327804565429688|0.175048828125|165116.3383866667|2.079394451095888|-2.93300639062145|-1.163498040949172|1.716891646385193|-0.2294788509607315|0.2872167229652405|0.4409620463848114|0.1900514364242554|-0.1516888737678528|XArbitraryZVertical|0.6875260275821177|-0.47019134505116|0.3517902735187209|-0.4271670420412202|-0.08202944695949554|0.9181944131851196|0.3875438868999481|0|0|0|-1|-1|3
2021-02-25 22:35:40.304 +0000|165116.3783116667|-0.0206451416015625|0.7723388671875|0.03375244140625|165116.3583496667|2.088189603145421|-2.933616494062207|-1.213207140509968|3.043819904327393|-0.6168907880783081|0.5164005756378174|0.3024962544441223|0.4131865501403809|-0.0823732316493988|XArbitraryZVertical|0.6766560471210576|-0.4619240256602383|0.3587459387273683|-0.4472853208404895|-0.07227154821157455|0.9367433786392212|0.3424744307994843|0|0|0|-1|-1|3
2021-02-25 22:35:40.324 +0000|165116.3982746667|-0.0509185791015625|1.040115356445312|0.047943115234375|165116.3783116667|2.084756883793926|-2.952571574209214|-1.274284580441303|2.537613391876221|-0.9654057025909424|0.7921547293663025|0.1222992166876793|0.1177199482917786|-0.2501625716686249|XArbitraryZVertical|0.6627633189446881|-0.4519245078366741|0.3640996007873871|-0.473223578119563|-0.05490105599164963|0.9563615322113037|0.2869819700717926|0|0|0|-1|-1|3
2021-02-25 22:35:40.344 +0000|165116.4182376667|0.11151123046875|1.471343994140625|0.24603271484375|165116.3982746667|2.044153710004166|-3.013559243940979|-1.3158828559488|1.671483278274536|-1.271664977073669|1.039056062698364|-0.07231038808822632|-0.1883883476257324|-0.2662107944488525|XArbitraryZVertical|0.6533043406905196|-0.4452439467824336|0.3614840947675603|-0.4942473731755717|-0.03219695389270782|0.9676851034164429|0.2500974535942078|0|0|0|-1|-1|3
2021-02-25 22:35:40.365 +0000|165116.4382006667|0.2196807861328125|1.69921875|0.4535369873046875|165116.4182376667|1.944092435034446|-3.140324308881767|-1.348187308416069|1.601954102516174|-1.712450861930847|1.491822242736816|0.06995174288749695|0.3405777812004089|-0.01557411253452301|XArbitraryZVertical|0.6451400139282657|-0.4406602499869233|0.3522088764828792|-0.5153267863975082|-0.0002800179354380816|0.9753247499465942|0.2207741886377335|0|0|0|-1|-1|3
2021-02-25 22:35:40.385 +0000|165116.4581636667|0.143280029296875|1.42864990234375|0.3365020751953125|165116.4382006667|1.763963927464727|2.928431330164022|-1.381952925033554|2.051138877868652|-1.969594836235046|1.774556398391724|0.1122648119926453|0.6122450232505798|0.1684853881597519|XArbitraryZVertical|0.634637643609945|-0.4347089911989919|0.3394900095011473|-0.5413036083850267|0.0397128127515316|0.9822220206260681|0.1834736913442612|0|0|0|-1|-1|3
2021-02-25 22:35:40.405 +0000|165116.4781266667|0.2009429931640625|0.9717864990234375|0.2430572509765625|165116.4581636667|1.498372481865672|2.628585938157372|-1.408609516497897|2.085277795791626|-1.758663773536682|1.621580481529236|0.1212328970432281|0.6867989301681519|0.2690236568450928|XArbitraryZVertical|0.6223038336187902|-0.4278818589414788|0.3269490482897356|-0.5681191028470906|0.07925242185592651|0.9868765473365784|0.1406898945569992|0|0|0|-1|-1|3
2021-02-25 22:35:40.424 +0000|165116.4980896667|0.20794677734375|0.554290771484375|0.146331787109375|165116.4781266667|1.177041699326862|2.279932631941302|-1.419242780226665|1.784869432449341|-1.385775208473206|1.60807728767395|0.01310809701681137|0.2093381285667419|0.1721969842910767|XArbitraryZVertical|0.6089690234998223|-0.4222701463034048|0.3165368667264754|-0.5921562180108677|0.1145774945616722|0.9885377287864685|0.0983106940984726|0|0|0|-1|-1|3
2021-02-25 22:35:40.445 +0000|165116.5180526667|0.2600555419921875|0.55975341796875|0.1163482666015625|165116.4980896667|0.9424687664880284|2.023807719679326|-1.407234067893418|0.5112204551696777|-1.014894843101501|1.369104027748108|0.06207126379013062|-0.2284290790557861|0.09729528427124023|XArbitraryZVertical|0.5991649206761369|-0.4202804365514252|0.305196719873745|-0.6092788826241837|0.1464096456766129|0.9866535067558289|0.07126849144697189|0|0|0|-1|-1|3
2021-02-25 22:35:40.465 +0000|165116.5380156667|0.2166748046875|0.490570068359375|0.1153411865234375|165116.5180526667|0.8916943257635368|1.956421195543292|-1.384714964619126|-0.6328617930412292|-0.664639949798584|1.161874890327454|0.08173641562461853|-0.5126441121101379|0.03412508964538574|XArbitraryZVertical|0.5970097048245429|-0.4223432333208065|0.2923661008436659|-0.6162203633513559|0.1714221984148026|0.9827367663383484|0.0695887878537178|0|0|0|-1|-1|3
2021-02-25 22:35:40.485 +0000|165116.5579786667|0.3339691162109375|0.65631103515625|0.2257232666015625|165116.5380156667|0.9582980875096199|2.01462978703015|-1.354957107739241|-1.802251577377319|-0.01920092478394508|0.9971588850021362|0.02519604563713074|-0.4427852630615234|0.02766454219818115|XArbitraryZVertical|0.6007828492711963|-0.4301651895258209|0.2783814901466807|-0.6136135151989335|0.1934166997671127|0.9767969846725464|0.0919642448425293|0|0|0|-1|-1|3
2021-02-25 22:35:40.505 +0000|165116.5779416667|0.3770904541015625|1.266021728515625|0.30560302734375|165116.5579786667|1.095330506941517|2.151635324252626|-1.317117606305868|-2.708744764328003|0.3205436766147614|0.7372371554374695|0.05865491926670074|-0.446374237537384|0.0189199298620224|XArbitraryZVertical|0.6105603137120138|-0.4427999978032334|0.2641512634586633|-0.6011391203902416|0.2098082453012466|0.9679957628250122|0.1377114653587341|0|0|0|-1|-1|3
2021-02-25 22:35:40.527 +0000|165116.5979036667|0.32501220703125|1.43572998046875|-0.06298828125|165116.5779416667|1.226563693617573|2.283358025028674|-1.274508741817771|-2.506660223007202|0.1237734854221344|0.4825604856014252|0.150085985660553|-0.03975534439086914|0.09611916542053223|XArbitraryZVertical|0.6230930254464377|-0.4551886556010626|0.2499773231113|-0.5848671739137956|0.2209315448999405|0.9564269781112671|0.1908832639455795|0|0|0|-1|-1|3
2021-02-25 22:35:40.546 +0000|165116.6178666667|0.0868682861328125|0.42169189453125|-0.390045166015625|165116.5979036667|1.295961622095065|2.347660919549809|-1.238851078371098|-1.42888081073761|-0.1600085347890854|0.8243319392204285|0.153075784444809|0.5252165198326111|-0.03255152702331543|XArbitraryZVertical|0.6321880623598561|-0.4632145778402968|0.2368923064077837|-0.5741537318070886|0.2323917746543884|0.9454101920127869|0.2284589856863022|0|0|0|-1|-1|3
2021-02-25 22:35:40.565 +0000|165116.6378296667|0.1502685546875|0.7477569580078125|0.0699920654296875|165116.6178666667|1.307126995719986|2.359240073154497|-1.2070280820299|-1.367606997489929|0.1715160310268402|1.124518513679504|-0.08138632774353027|0.07050305604934692|-0.5704067945480347|XArbitraryZVertical|0.634591184538785|-0.4727264102566406|0.2256747434253377|-0.5682381992224443|0.2508200109004974|0.9345627427101135|0.2523524463176727|0|0|0|-1|-1|3
2021-02-25 22:35:40.584 +0000|165116.6577926667|0.3415069580078125|1.310592651367188|0.50738525390625|165116.6378296667|1.302002697493928|2.353812755503189|-1.172326119735507|-0.421782374382019|-0.2012037634849548|1.491734385490417|-0.1185067892074585|-0.6202641129493713|-0.4533512592315674|XArbitraryZVertical|0.6350454697176886|-0.4832927983507275|0.2125930020590991|-0.5638701052431733|0.2750162780284882|0.9216556549072266|0.2737093567848206|0|0|0|-1|-1|3
2021-02-25 22:35:40.605 +0000|165116.6777556667|0.37310791015625|1.787200927734375|0.4871368408203125|165116.6777556667|1.007144998906791|2.056803780008138|-1.175494325769298|4.844683647155762|-0.7653038501739502|1.856270551681519|0.06901991367340088|0.7528092861175537|0.3888058662414551|XArbitraryZVertical|0.5946336643369808|-0.4861560313926496|0.2086610793428736|-0.6054119271319368|0.3404955267906189|0.9228802919387817|0.1798737645149231|0|0|0|-1|-1|3
2021-02-25 22:35:40.630 +0000|165116.6977186667|0.2458343505859375|0.87939453125|0.60205078125||||||||||||||||||||||||3
2021-02-25 22:35:40.647 +0000|165116.7176816667|0.4026947021484375|0.3766326904296875|0.7353515625|165116.6977186667|0.7507133848715566|1.810935810344975|-1.175198595871699|3.64129638671875|-0.1203858703374863|1.567457437515259|-0.08089044690132141|0.589669406414032|0.4060273170471191|XArbitraryZVertical|0.5584311502760968|-0.4837160990025846|0.2174089657616597|-0.6378923827697|0.3743017613887787|0.922766387462616|0.09165322780609131|0|0|0|-1|-1|3
2021-02-25 22:35:40.664 +0000|165116.7376446667|0.4646148681640625|0.2849273681640625|0.790283203125|165116.7176816667|0.6263346150734909|1.696696323919691|-1.156725143285221|0.63017737865448|0.06365390121936798|1.038757562637329|-0.1143341958522797|-0.4651885628700256|0.5958261489868164|XArbitraryZVertical|0.5374044346993447|-0.4862683107371079|0.2195734348236829|-0.6530902643976394|0.3991547226905823|0.9154903888702393|0.05052079260349274|0|0|0|-1|-1|3
2021-02-25 22:35:40.706 +0000|165116.7576076667|0.37481689453125|0.54913330078125|0.6066436767578125|165116.7576076667|0.7814594126478044|1.835768851570397|-1.1222138173093|-3.178092479705811|-0.2569126188755035|0.01231289468705654|-0.0714607834815979|-0.5792703628540039|0.6204483509063721|XArbitraryZVertical|0.5550412691267016|-0.4987152788243314|0.194921582813305|-0.6365670926674996|0.418552428483963|0.9010627865791321|0.1135754808783531|0|0|0|-1|-1|3
2021-02-25 22:35:40.708 +0000|165116.7775706667|0.2444305419921875|1.075714111328125|0.2160797119140625||||||||||||||||||||||||3
2021-02-25 22:35:40.725 +0000|165116.7975336667|0.077056884765625|1.118072509765625|0.06109619140625|165116.7775706667|0.9117431415284|1.944756434496342|-1.104958765812378|-2.511900186538696|-0.4365864396095276|-0.1314104497432709|-0.05687606334686279|0.02557575702667236|0.2526178359985352|XArbitraryZVertical|0.5750744133549729|-0.5013297899313577|0.178214139000501|-0.6214478860145255|0.4181278944015503|0.8934456706047058|0.1640842854976654|0|0|0|-1|-1|3
2021-02-25 22:35:40.745 +0000|165116.8174956667|0.1151123046875|1.033737182617188|0.086212158203125|165116.7975336667|0.9863558001802498|2.004251119630984|-1.094217501471114|-1.009668469429016|-0.2554004788398743|-0.1905810981988907|-0.3143427968025208|0.2322951555252075|-0.07120037078857422|XArbitraryZVertical|0.5874500366550742|-0.5012386396738121|0.1683775692635014|-0.6126264563673343|0.4163172841072083|0.8885695338249207|0.1926754415035248|0|0|0|-1|-1|3
2021-02-25 22:35:40.764 +0000|165116.8374586667|0.0899810791015625|1.00244140625|0.19873046875|165116.8174956667|0.9975437071871086|2.009013537650943|-1.096933828985988|0.5486050844192505|-0.2734049260616302|-0.3015915751457214|-0.340774267911911|0.1985663771629333|-0.1421632915735245|XArbitraryZVertical|0.5901110242036882|-0.4985824576649285|0.1673937791524849|-0.612506067840384|0.4132077395915985|0.8898123502731323|0.1936309784650803|0|0|0|-1|-1|3
2021-02-25 22:35:40.784 +0000|165116.8574216667|0.0905303955078125|0.896759033203125|0.3225250244140625|165116.8374586667|0.9547911175598782|1.964954431097246|-1.115095714816611|1.904028654098511|-0.3216148912906647|-0.581399142742157|-0.3037145137786865|0.04046249389648438|-0.02351629734039307|XArbitraryZVertical|0.5851393143744458|-0.4920531793128847|0.1745684526547597|-0.6205009414613364|0.4063451886177063|0.8979529142379761|0.1690087020397186|0|0|0|-1|-1|3
2021-02-25 22:35:40.804 +0000|165116.8773846667|0.1058502197265625|0.6403961181640625|0.400909423828125|165116.8574216667|0.8632252449223021|1.877113288872414|-1.142542676520749|2.480154514312744|-0.1914006620645523|-0.6962408423423767|-0.2924206554889679|0.07733768224716187|0.1399237066507339|XArbitraryZVertical|0.5741142587451095|-0.482707869758446|0.1882233379159746|-0.6340014913460355|0.3959516286849976|0.9096923470497131|0.1252281367778778|0|0|0|-1|-1|3
2021-02-25 22:35:40.824 +0000|165116.8973476667|0.118255615234375|0.6213836669921875|0.3890838623046875|165116.8773846667|0.7740370553071207|1.792448991512945|-1.168973904027425|1.566369891166687|-0.1715183556079865|-0.805605411529541|-0.2263462841510773|-0.1524971127510071|0.2926367521286011|XArbitraryZVertical|0.5649583123703195|-0.473087544815694|0.2024517743017084|-0.6449988772305254|0.3815282583236694|0.9203497767448425|0.08597943931818008|0|0|0|-1|-1|3
2021-02-25 22:35:40.844 +0000|165116.9173106667|0.1078643798828125|0.63525390625|0.423248291015625|165116.8973476667|0.7333085061223397|1.750879248884107|-1.190820700037668|0.456983357667923|-0.228083461523056|-0.9965445399284363|-0.2564251124858856|-0.3131646513938904|0.3388872146606445|XArbitraryZVertical|0.5633235573623406|-0.464631607853318|0.2118601589375932|-0.6495377422944746|0.3648999035358429|0.9286736845970154|0.066431924700737|0|0|0|-1|-1|3
2021-02-25 22:35:40.864 +0000|165116.9372734167|0.0906219482421875|0.5630950927734375|0.4382781982421875|165116.9173106667|0.7442030055434113|1.757609930021924|-1.213054859367824|-0.4311903715133667|-0.09948398917913437|-1.295150518417358|-0.2267573475837708|-0.292631983757019|0.3420238494873047|XArbitraryZVertical|0.5688323807609086|-0.457107291431288|0.2182571496145581|-0.6479555443597963|0.3440669476985931|0.9366900324821472|0.06503470987081528|0|0|0|-1|-1|3
2021-02-25 22:35:40.884 +0000|165116.9572364167|0.072113037109375|0.6813812255859375|0.4498291015625|165116.9372734167|0.8107853868948697|1.820290196598481|-1.236911185914906|-1.263437032699585|0.1004842445254326|-1.510936498641968|-0.2108032703399658|-0.3744333386421204|0.3517910242080688|XArbitraryZVertical|0.5806539327327832|-0.4508877509947364|0.2235048562086352|-0.6399896807318096|0.3175690770149231|0.9447762370109558|0.08091750741004944|0|0|0|-1|-1|3
2021-02-25 22:35:40.904 +0000|165116.9771994167|0.06097412109375|0.845184326171875|0.399688720703125|165116.9572364167|0.9296205815947981|1.937256925038795|-1.25860537218669|-1.528962254524231|0.3235377371311188|-1.70186722278595|-0.214301735162735|-0.3412655591964722|0.3444442749023438|XArbitraryZVertical|0.5966647006056501|-0.4461145743970029|0.2283283366071319|-0.626768867745516|0.2867505252361298|0.9516628980636597|0.1100539565086365|0|0|0|-1|-1|3
2021-02-25 22:35:40.926 +0000|165116.9971624167|0.0472564697265625|0.878814697265625|0.3755035400390625|165116.9771994167|1.070763793338723|2.079982317991091|-1.278129497591906|-1.423851847648621|0.4952841997146606|-1.819272756576538|-0.1762690544128418|-0.2114147543907166|0.2788114547729492|XArbitraryZVertical|0.6128319344408323|-0.4413112738858499|0.2351047032937073|-0.6118881285449634|0.2519069314002991|0.957477867603302|0.1406372338533401|0|0|0|-1|-1|3
2021-02-25 22:35:40.944 +0000|165117.0171254167|0.05511474609375|0.90460205078125|0.39453125|165116.9971624167|1.219768191057135|2.236548909771817|-1.294233126437701|-1.217302560806274|0.8609039187431335|-1.84062397480011|-0.1633801460266113|-0.05362868309020996|0.1995139122009277|XArbitraryZVertical|0.6270568861808287|-0.4371780962153994|0.2446499124056646|-0.5965075818801875|0.2147412747144699|0.9619995355606079|0.1686500459909439|0|0|0|-1|-1|3
2021-02-25 22:35:40.964 +0000|165117.0370874167|-0.0070648193359375|0.9601287841796875|0.5067291259765625|165117.0171254167|1.379431889745743|2.410265072902059|-1.306138530128837|-1.107643842697144|1.108857274055481|-1.925218224525452|-0.1286613792181015|-0.1206388473510742|0.1796846091747284|XArbitraryZVertical|0.6395728243039382|-0.4339256071292481|0.2570421745816673|-0.5801588803260741|0.1746972054243088|0.9651820659637451|0.1946896612644196|0|0|0|-1|-1|3
2021-02-25 22:35:40.984 +0000|165117.0570504167|-0.0546875|1.051864624023438|0.5292816162109375|165117.0370874167|1.549860713399367|2.598927808513555|-1.310950430808794|-1.111022710800171|1.282640814781189|-1.908430337905884|-0.09783333539962769|-0.01580709218978882|0.2275205850601196|XArbitraryZVertical|0.6510930104082888|-0.4313787880677656|0.2709032653248355|-0.5626736330543911|0.1326844990253448|0.966429591178894|0.2200195342302322|0|0|0|-1|-1|3
2021-02-25 22:35:41.004 +0000|165117.0770134167|-0.073822021484375|0.9979705810546875|0.5387115478515625|165117.0570504167|1.716432760852758|2.785564332605096|-1.308076687622097|-1.053956985473633|1.268984913825989|-1.807778120040894|-0.1269905269145966|0.04804551601409912|0.2717770338058472|XArbitraryZVertical|0.6614686033720379|-0.4291498300836502|0.2851384368936069|-0.5449638966808193|0.09052208065986633|0.9656872153282166|0.2434205859899521|0|0|0|-1|-1|3
2021-02-25 22:35:41.024 +0000|165117.0969764167|-0.0337066650390625|0.982147216796875|0.445892333984375|165117.0770134167|1.863817621468561|2.952879347075005|-1.295044819716283|-1.282806634902954|1.283475995063782|-1.610424280166626|-0.1271567642688751|0.06881546974182129|0.2767379283905029|XArbitraryZVertical|0.6713070035201942|-0.4278609466871662|0.2977733342098738|-0.526889851718493|0.05107653141021729|0.9622208476066589|0.2674361765384674|0|0|0|-1|-1|3
2021-02-25 22:35:41.043 +0000|165117.1169394167|0.0329437255859375|0.87335205078125|0.38470458984375|165117.0969764167|1.983903177584107|3.092482784596915|-1.269176155627469|-1.702699303627014|1.173719882965088|-1.489745378494263|-0.05826887488365173|0.01151299476623535|0.1815015971660614|XArbitraryZVertical|0.6818856989101879|-0.4282361880795471|0.3076713501246151|-0.5069357158738524|0.01458305027335882|0.9548564553260803|0.2967086732387543|0|0|0|-1|-1|3
2021-02-25 22:35:41.063 +0000|165117.1369024167|0.1058502197265625|1.072006225585938|0.387481689453125|165117.1169394167|2.072958668375668|-3.082740627231602|-1.232926458382764|-1.853517889976501|1.125406384468079|-1.341979146003723|0.01134875416755676|-0.01603376865386963|0.07110404968261719|XArbitraryZVertical|0.6932349419235526|-0.4299735402025608|0.3149588872666646|-0.485127682763681|-0.01949687674641609|0.9434629082679749|0.3309038579463959|0|0|0|-1|-1|3
2021-02-25 22:35:41.083 +0000|165117.1568654167|0.161285400390625|1.130950927734375|0.370941162109375|165117.1369024167|2.135754904224481|-3.003234843417139|-1.195871524185368|-1.57073974609375|0.9339459538459778|-1.233160614967346|0.1236255839467049|0.05837148427963257|0.03137093782424927|XArbitraryZVertical|0.70367440463093|-0.4315014392386996|0.3207352046972698|-0.4645186416009608|-0.0505053848028183|0.9305351376533508|0.3627023100852966|0|0|0|-1|-1|3
2021-02-25 22:35:41.103 +0000|165117.1768284167|0.188690185546875|1.242752075195312|0.296417236328125|165117.1568654167|2.185322513003126|-2.940305239729442|-1.164237653833667|-1.231366872787476|0.7827590107917786|-1.179387331008911|0.2174296379089355|0.1909793615341187|-0.007492303848266602|XArbitraryZVertical|0.712454430798915|-0.431441761360256|0.3262077576352934|-0.4470516344486455|-0.07906283438205719|0.9184871315956116|0.3874666094779968|0|0|0|-1|-1|3
2021-02-25 22:35:41.123 +0000|165117.1967914167|0.216094970703125|1.345138549804688|0.258575439453125|165117.1768284167|2.228754607187931|-2.886238087778711|-1.137190134052699|-1.036067843437195|0.6579693555831909|-1.156770825386047|0.2916557192802429|0.2683399319648743|-0.07137823104858398|XArbitraryZVertical|0.7200266228428818|-0.4299101319903009|0.3316953639145797|-0.4321077242106601|-0.1061240062117577|0.9074565172195435|0.406522125005722|0|0|0|-1|-1|3
2021-02-25 22:35:41.143 +0000|165117.2167544167|0.1688690185546875|1.480545043945312|0.27154541015625|165117.1967914167|2.266564023055953|-2.840102897685823|-1.112045660224539|-0.9411606192588806|0.5498170256614685|-1.114747881889343|0.3353370428085327|0.4112090468406677|-0.1386138498783112|XArbitraryZVertical|0.7270494423417488|-0.4275819263055842|0.3366302887297149|-0.4186320401549352|-0.1314947456121445|0.8966064453125|0.4228543937206268|0|0|0|-1|-1|3
2021-02-25 22:35:41.163 +0000|165117.2367174167|0.117645263671875|1.598861694335938|0.3047943115234375|165117.2167544167|2.297534957552265|-2.801611543534003|-1.08706794205739|-1.030210256576538|0.5590103268623352|-0.9934569597244263|0.357193648815155|0.5242331027984619|-0.2001352906227112|XArbitraryZVertical|0.7336996585555674|-0.4253420940974399|0.3408720196476767|-0.4056786909317737|-0.1550909280776978|0.8852670788764954|0.4384621679782867|0|0|0|-1|-1|3
2021-02-25 22:35:41.207 +0000|165117.2566794167|0.0085601806640625|1.675857543945312|0.20159912109375|165117.2566794167|2.329562808337819|-2.752530832140357|-1.035819968597752|-0.9802367687225342|0.5155410170555115|-0.64200359582901|0.2762712240219116|0.7869361639022827|-0.2295624613761902|XArbitraryZVertical|0.7453673396301264|-0.4246023942347775|0.3461396470384385|-0.3799047843527122|-0.1933854073286057|0.8602806925773621|0.4717193245887756|0|0|0|-1|-1|3
2021-02-25 22:35:41.209 +0000|165117.2766424167|0.010223388671875|1.5576171875|0.0895233154296875||||||||||||||||||||||||3
2021-02-25 22:35:41.224 +0000|165117.2966054167|-0.0346527099609375|1.416519165039062|-0.0442352294921875|165117.2766424167|2.337121177723477|-2.736536044374309|-1.016985624893364|-0.5873068571090698|0.3711124360561371|-0.4592260420322418|0.1841831803321838|0.7620222568511963|-0.3232784271240234|XArbitraryZVertical|0.7489996352338203|-0.4250721002104224|0.3483738629616343|-0.3700659429404632|-0.2072543799877167|0.8505265116691589|0.4833734929561615|0|0|0|-1|-1|3
2021-02-25 22:35:41.243 +0000|165117.3165684167|-0.0042877197265625|1.16448974609375|-0.047149658203125|165117.2966054167|2.345215970630364|-2.724443472394769|-1.007463506935127|-0.1342810690402985|0.1884279102087021|-0.3239256739616394|0.2055985778570175|0.6705568432807922|-0.4820652306079865|XArbitraryZVertical|0.751018662751765|-0.424356206983023|0.3502667507785422|-0.3649738338517209|-0.2163559049367905|0.8454800844192505|0.4882144331932068|0|0|0|-1|-1|3
2021-02-25 22:35:41.263 +0000|165117.3365314167|0.035552978515625|0.9228515625|0.0058135986328125|165117.3165684167|2.354198499426133|-2.713316552026885|-1.004510164335128|0.007851102389395237|0.1685427129268646|-0.2558059990406036|0.195955291390419|0.4564392566680908|-0.5469603538513184|XArbitraryZVertical|0.7517135545700505|-0.4230244437313689|0.3524620947700316|-0.3629701126544426|-0.2228106111288071|0.8438992500305176|0.4880459010601044|0|0|0|-1|-1|3
2021-02-25 22:35:41.283 +0000|165117.3564944167|0.1310272216796875|0.9405364990234375|0.07354736328125|165117.3365314167|2.361063602204932|-2.70426443087249|-1.002832347258807|0.0545797273516655|0.1334635615348816|-0.1323716789484024|0.2486318647861481|0.1919903755187988|-0.4919301271438599|XArbitraryZVertical|0.7519889107312185|-0.4220880761464402|0.3544272449507824|-0.3615737517056203|-0.2278187721967697|0.8429979085922241|0.4872913360595703|0|0|0|-1|-1|3
2021-02-25 22:35:41.303 +0000|165117.3764574167|0.1857147216796875|1.014541625976562|0.0885162353515625|165117.3564944167|2.363267412068424|-2.701515722323875|-1.00526247482636|0.2262332290410995|-0.04628570005297661|0.125953882932663|0.3151064515113831|0.04443007707595825|-0.4276489913463593|XArbitraryZVertical|0.7513501010462229|-0.4217547657700156|0.3553386492998861|-0.3623950465497139|-0.2282837778329849|0.8443026542663574|0.4848081171512604|0|0|0|-1|-1|3
2021-02-25 22:35:41.323 +0000|165117.3964204167|0.2684173583984375|0.9466400146484375|0.12054443359375|165117.3764574167|2.361113361614753|-2.705428807424445|-1.015329302615606|0.6752193570137024|-0.1438520848751068|0.4042780101299286|0.3772630989551544|0.1406717300415039|-0.4002112746238708|XArbitraryZVertical|0.7490281622463427|-0.4218314862912504|0.3554075476851564|-0.3670156156229841|-0.2227830439805984|0.8496542572975159|0.4779699742794037|0|0|0|-1|-1|3
2021-02-25 22:35:41.343 +0000|165117.4163834167|0.3431854248046875|0.9029083251953125|0.1633453369140625|165117.3964204167|2.357031113874761|-2.711545037082591|-1.034933211643525|0.9521768093109131|-0.1327771842479706|0.5986787080764771|0.4423767924308777|0.1256910562515259|-0.3634150326251984|XArbitraryZVertical|0.7442148532377887|-0.4221260893682158|0.3561089581602617|-0.3756861954179936|-0.212869256734848|0.8598282337188721|0.4640923738479614|0|0|0|-1|-1|3
2021-02-25 22:35:41.363 +0000|165117.4363464167|0.3170928955078125|0.9917144775390625|0.396881103515625|165117.4163834167|2.34725376476144|-2.723046427015932|-1.056501878124873|0.7278725504875183|-0.1640817373991013|0.7323442697525024|0.5137144327163696|0.03988248109817505|-0.3028368353843689|XArbitraryZVertical|0.738579964992702|-0.4233542641162752|0.3561712115588155|-0.3852438726373177|-0.1999325752258301|0.8706400394439697|0.4494583904743195|0|0|0|-1|-1|3
2021-02-25 22:35:41.383 +0000|165117.4563084167|0.1132965087890625|1.314743041992188|0.63372802734375|165117.4363464167|2.323182602429904|-2.74807424264442|-1.069062323135614|-0.0900561735033989|-0.2682773172855377|0.8401034474372864|0.5281490087509155|0.02780622243881226|-0.2158072292804718|XArbitraryZVertical|0.7346040595830114|-0.4271411863966637|0.3531176619658157|-0.3914269977708657|-0.1844141483306885|0.8767499327659607|0.4441854357719421|0|0|0|-1|-1|3
2021-02-25 22:35:41.402 +0000|165117.4762714167|-0.076446533203125|1.317947387695312|0.4690704345703125|165117.4563084167|2.286218077621349|-2.788885476275826|-1.070731519394932|0.008020495064556599|-0.6160779595375061|0.892242431640625|0.3973827958106995|0.2521482706069946|0.1230471730232239|XArbitraryZVertical|0.7333513530870642|-0.4326416429971724|0.345616337641089|-0.3944190236795988|-0.1656322330236435|0.8775514960289001|0.4499659836292267|0|0|0|-1|-1|3
2021-02-25 22:35:41.423 +0000|165117.4962344167|-0.4228515625|0.9952239990234375|0.139678955078125|165117.4762714167|2.250067191642807|-2.836711734854329|-1.091129732886898|1.231359362602234|-0.9420961141586304|1.414797782897949|0.141274556517601|0.6006287932395935|0.1221922338008881|XArbitraryZVertical|0.7283848283354638|-0.435380266458438|0.338250508300404|-0.4067998244519379|-0.1385278403759003|0.8871488571166992|0.4402008652687073|0|0|0|-1|-1|3
2021-02-25 22:35:41.443 +0000|165117.5161974167|-0.4954071044921875|1.216644287109375|0.2961273193359375|165117.4962344167|2.200683632688796|-2.902768936206158|-1.125478022335772|1.447450041770935|-1.280805945396423|1.589650630950928|-0.1371776461601257|0.09915900230407715|-0.1394357979297638|XArbitraryZVertical|0.7197337042683349|-0.4373132597836813|0.3299232177571539|-0.4264869101573731|-0.1018969565629959|0.9024736285209656|0.418518990278244|0|0|0|-1|-1|3
2021-02-25 22:35:41.463 +0000|165117.5361604167|-0.327178955078125|1.8798828125|0.7152557373046875|165117.5161974167|2.143707389793521|-2.986862890601843|-1.167954669743694|2.408639430999756|-2.10895562171936|1.553679704666138|-0.4666209816932678|0.2235886454582214|-0.2282469570636749|XArbitraryZVertical|0.7099877208425567|-0.435422176983139|0.3196472406995942|-0.4518301300621699|-0.06041751429438591|0.9199506640434265|0.3873500823974609|0|0|0|-1|-1|3
2021-02-25 22:35:41.483 +0000|165117.5561234167|-0.348297119140625|1.49285888671875|0.5381317138671875|165117.5361604167|2.0704038432387|-3.107593586239199|-1.238736268067923|4.403469562530518|-2.989474534988403|1.750650405883789|-0.352047324180603|0.5766759514808655|0.2698397040367126|XArbitraryZVertical|0.6950854541586|-0.4239779639438528|0.3081301556354527|-0.4920920102562433|-0.01108124107122421|0.9453727602958679|0.325802206993103|0|0|0|-1|-1|3
2021-02-25 22:35:41.502 +0000|165117.5760864167|-0.0724945068359375|0.70416259765625|0.2890625|165117.5561234167|1.912861038733303|2.967461369961098|-1.351391877915964|6.765427112579346|-2.593605279922485|1.679417490959167|-0.3948093056678772|0.8448953628540039|0.3675379455089569|XArbitraryZVertical|0.6665255681123117|-0.4036354393342207|0.3037214250112806|-0.5482473715029024|0.03770794719457626|0.976027250289917|0.2143557965755463|0|0|0|-1|-1|3
2021-02-25 22:35:41.523 +0000|165117.5960494167|-0.261016845703125|0.6302642822265625|0.342376708984375|165117.5760864167|1.356634668307088|2.36889151493181|-1.460856864159662|6.657746315002441|-2.439056634902954|1.470056653022766|-0.2766174674034119|0.01984626054763794|0.4193645715713501|XArbitraryZVertical|0.6287035797582408|-0.3794889588316362|0.3050784353959087|-0.6063389574597638|0.07659006863832474|0.9939627647399902|0.07856012135744095|0|0|0|-1|-1|3
2021-02-25 22:35:41.543 +0000|165117.6160124167|0.0307464599609375|-0.3316497802734375|0.225341796875|165117.6160124167|-0.007527708371251108|0.9488072606551431|-1.419225439258352|0.6696652173995972|-1.199315309524536|0.7520383596420288|-0.2405256628990173|-1.01476526260376|0.366599977016449|XArbitraryZVertical|0.5782792277844325|-0.348720261608417|0.3001671789938055|-0.6737111725068431|0.1227125823497772|0.9885351061820984|-0.08797463029623032|0|0|0|-1|-1|3
2021-02-25 22:35:41.563 +0000|165117.6359754167|0.1917266845703125|-0.0218505859375|0.1703033447265625||||||||||||||||||||||||3
2021-02-25 22:35:41.583 +0000|165117.6559384167|0.1481781005859375|-0.10174560546875|0.1372222900390625|165117.6359754167|0.05970141390746059|0.9918364281188501|-1.415253857918185|-1.084984302520752|-1.078375577926636|0.2799092829227448|0.06373608112335205|-1.039792418479919|0.2856595516204834|XArbitraryZVertical|0.5822619473675946|-0.3443686604867723|0.2892253769116493|-0.6772959587357038|0.1296691447496414|0.9879276156425476|-0.08476249873638153|0|0|0|-1|-1|3
2021-02-25 22:35:41.602 +0000|165117.6759014167|0.1805877685546875|0.492401123046875|0.076324462890625|165117.6559384167|0.2522528469337649|1.165173803593325|-1.43012511259993|-2.094189405441284|-0.6550529599189758|-0.1975994259119034|-0.003860890865325928|-1.155497074127197|0.217372715473175|XArbitraryZVertical|0.5954151595499105|-0.3432470436315041|0.2785600954495935|-0.6708699287824615|0.1288304328918457|0.9901221394538879|-0.05532450973987579|0|0|0|-1|-1|3
2021-02-25 22:35:41.623 +0000|165117.6958634167|0.11712646484375|0.8738250732421875|-0.0009765625|165117.6759014167|0.5719433113989727|1.471376961112579|-1.448312241765429|-2.262323141098022|-0.413679301738739|-0.4563674926757812|0.04850023984909058|-0.8841556310653687|0.1070516109466553|XArbitraryZVertical|0.6130167967772321|-0.3437251769307439|0.2698959572133366|-0.658194139751314|0.1215742826461792|0.9925081729888916|-0.01212681923061609|0|0|0|-1|-1|3
2021-02-25 22:35:41.643 +0000|165117.7158264167|0.115753173828125|1.003005981445312|0.0298919677734375|165117.6958634167|0.9170868218859339|1.810079328931155|-1.455870631064055|-1.800970911979675|0.0166497491300106|-0.5291140675544739|0.02801419794559479|-0.2295178174972534|-0.02180719003081322|XArbitraryZVertical|0.6283784592897002|-0.3445715836536268|0.265089137854535|-0.6450881054844622|0.1114054545760155|0.9934033155441284|0.02717812918126583|0|0|0|-1|-1|3
2021-02-25 22:35:41.662 +0000|165117.7357894167|0.1629180908203125|1.09613037109375|0.1141815185546875|165117.7158264167|1.225936170938726|2.120166805416843|-1.452718376515328|-1.608464598655701|0.2900836765766144|-0.5663068890571594|0.007166855037212372|-0.08309441804885864|-0.03427410498261452|XArbitraryZVertical|0.6407448724728415|-0.3467008171128853|0.2636919683074184|-0.6322270280445773|0.1004687026143074|0.9930368661880493|0.06151089817285538|0|0|0|-1|-1|3
2021-02-25 22:35:41.697 +0000|165117.7557524167|0.189605712890625|1.129898071289062|0.272308349609375|165117.7357894167|1.462624742454674|2.36185638641136|-1.443109503405099|-1.242017984390259|0.3899923264980316|-0.4652942419052124|0.05417565256357193|0.0951923131942749|-0.04006015509366989|XArbitraryZVertical|0.6506391039791304|-0.3492054029225814|0.2641872378344864|-0.6204268085716552|0.08953168988227844|0.9918590784072876|0.09055131673812866|0|0|0|-1|-1|3
2021-02-25 22:35:41.711 +0000|165117.7757154167|0.2113800048828125|1.166336059570312|0.3491668701171875|165117.7757154167|1.759549813231519|2.672861723661052|-1.410804928363184|-1.389376401901245|0.462106317281723|-0.3309311866760254|0.1283336877822876|0.1304011940956116|0.1682832092046738|XArbitraryZVertical|0.6666106572898267|-0.3559400683170238|0.2656617669146784|-0.5986322826285664|0.07196850329637527|0.9872286319732666|0.142126202583313|0|0|0|-1|-1|3
2021-02-25 22:35:41.722 +0000|165117.7956784167|0.253082275390625|1.296218872070312|0.4340057373046875||||||||||||||||||||||||3
2021-02-25 22:35:41.744 +0000|165117.8156414167|0.3006439208984375|1.401870727539062|0.46258544921875|165117.7956784167|1.857364446118447|2.778807355107777|-1.386843206294617|-1.490385293960571|0.4900460243225098|-0.2447705715894699|0.172650933265686|0.2371779084205627|0.2206671088933945|XArbitraryZVertical|0.6748412689797559|-0.3606861832495386|0.2654072377785899|-0.5865607743705927|0.06491322070360184|0.9831283092498779|0.1710105240345001|0|0|0|-1|-1|3
2021-02-25 22:35:41.764 +0000|165117.8356044167|0.324188232421875|1.43865966796875|0.460113525390625|165117.8156414167|1.926420877944968|2.856666816619387|-1.359813298034242|-1.498337030410767|0.5193289518356323|-0.1803867816925049|0.208270400762558|0.3820223808288574|0.2297322750091553|XArbitraryZVertical|0.6829507344627647|-0.3661515957531301|0.2646430182235489|-0.5739993777765549|0.05886529013514519|0.9778255224227905|0.2009773999452591|0|0|0|-1|-1|3
2021-02-25 22:35:41.782 +0000|165117.8555674167|0.264678955078125|1.3387451171875|0.438995361328125|165117.8356044167|1.974270410723002|2.913670110637028|-1.330894872450441|-1.645469784736633|0.5158082842826843|-0.128826916217804|0.2768783867359161|0.4679694771766663|0.2505333125591278|XArbitraryZVertical|0.6908456407175767|-0.3721059586958317|0.2633937595347877|-0.5611532983540015|0.05368811264634132|0.9713613986968994|0.2314610928297043|0|0|0|-1|-1|3
2021-02-25 22:35:41.802 +0000|165117.8755304167|0.1299896240234375|1.494400024414062|0.607086181640625|165117.8555674167|2.013373006294461|2.961460683674787|-1.292627888433924|-2.315272569656372|0.4771169722080231|-0.03553496673703194|0.2547284960746765|0.443026602268219|0.1656701266765594|XArbitraryZVertical|0.7008505808311559|-0.3793205134598347|0.260016530469164|-0.545266567267655|0.04919611662626266|0.9615600109100342|0.2701511681079865|0|0|0|-1|-1|3
2021-02-25 22:35:41.822 +0000|165117.8954934167|-0.0048675537109375|1.247238159179688|0.38873291015625|165117.8755304167|2.029803352774666|2.985825256951411|-1.249704828712818|-1.689539909362793|0.3980351388454437|0.2714203596115112|0.1873204410076141|0.4146795868873596|0.2167678773403168|XArbitraryZVertical|0.7108581992888481|-0.388035046343412|0.2541568273784312|-0.528690526521382|0.04896197840571404|0.9488915205001831|0.3117811679840088|0|0|0|-1|-1|3
2021-02-25 22:35:41.842 +0000|165117.9154554167|-0.0982666015625|0.831695556640625|0.1378936767578125|165117.8954934167|2.011411730899672|2.973464224988688|-1.2284314903127|-0.3357735872268677|0.0656493604183197|0.7579658627510071|-0.01577243208885193|0.6264569759368896|0.2047388553619385|XArbitraryZVertical|0.7136554706310844|-0.3952047205176022|0.2495727564583348|-0.5217494683250422|0.0561777800321579|0.9419633746147156|0.3309817910194397|0|0|0|-1|-1|3
2021-02-25 22:35:41.862 +0000|165117.935418|-0.063018798828125|1.040481567382812|0.101837158203125|165117.9154554167|1.951932203037418|2.91362620681357|-1.227999845685504|0.6872768402099609|-0.481275349855423|1.197174429893494|-0.1676219999790192|-0.1189120411872864|-0.0807216465473175|XArbitraryZVertical|0.7092920559497562|-0.4007712094226809|0.2437606256007252|-0.526182340795327|0.07596251368522644|0.9418184161186218|0.3274255692958832|0|0|0|-1|-1|3
2021-02-25 22:35:41.882 +0000|165117.955381|0.1152496337890625|1.608505249023438|0.26715087890625|165117.935418|1.846161766421076|2.797498016793298|-1.245236788750934|1.978532671928406|-1.13292932510376|1.550219774246216|-0.190705344080925|-0.07135796546936035|-0.2370495498180389|XArbitraryZVertical|0.6984979297974022|-0.4032938161780214|0.2357595042460141|-0.5420998259425989|0.1078959628939629|0.9474719166755676|0.3010905086994171|0|0|0|-1|-1|3
2021-02-25 22:35:41.902 +0000|165117.975344|0.1015472412109375|1.535964965820312|0.287811279296875|165117.955381|1.66871483473259|2.600047330489156|-1.281517539640321|3.751780271530151|-1.634345173835754|1.794434189796448|-0.1225809454917908|0.4155734777450562|-0.03489506244659424|XArbitraryZVertical|0.6796657341053356|-0.4003453638129106|0.2280314580564975|-0.5707711494731402|0.1470408290624619|0.9584498405456543|0.2444438338279724|0|0|0|-1|-1|3
2021-02-25 22:35:41.922 +0000|165117.995307|0.172576904296875|1.028961181640625|0.276580810546875|165117.975344|1.337767296329283|2.252324118588579|-1.324605773782964|4.907611846923828|-1.075392246246338|1.987267136573792|-0.09083376824855804|0.7129217386245728|0.1374978870153427|XArbitraryZVertical|0.6489630552095478|-0.3944785698444083|0.2251831022650251|-0.6103491090170912|0.1892682611942291|0.9698478579521179|0.1535327732563019|0|0|0|-1|-1|3
2021-02-25 22:35:41.942 +0000|165118.01527|0.162109375|0.9827880859375|0.3870086669921875|165117.995307|0.9227267941003081|1.832471216766685|-1.330575825665823|4.005276203155518|-0.6535349488258362|1.879014134407043|-0.111744225025177|0.2377138733863831|0.2251334190368652|XArbitraryZVertical|0.6143625122063958|-0.3915775570603061|0.2252773023262365|-0.6468969462953112|0.2298167943954468|0.9712855219841003|0.06154856085777283|0|0|0|-1|-1|3
2021-02-25 22:35:41.962 +0000|165118.035233|0.1998443603515625|0.759521484375|0.4022979736328125|165118.01527|0.6432023760475555|1.551892626793463|-1.304480815545878|2.629709720611572|-0.2924543023109436|1.51539409160614|-0.06659841537475586|0.03395587205886841|0.3189852237701416|XArbitraryZVertical|0.586957169576596|-0.3911443511082812|0.2240228060065177|-0.6725334079351301|0.263131707906723|0.9647471308708191|-0.004974755458533764|0|0|0|-1|-1|3
2021-02-25 22:35:41.982 +0000|165118.055196|0.2465972900390625|0.651519775390625|0.38427734375|165118.035233|0.486156701220558|1.397238988027293|-1.273666070363713|2.041104555130005|-0.1756699532270432|1.12883472442627|-0.1374388337135315|-0.08998501300811768|0.3995273113250732|XArbitraryZVertical|0.5664165926701511|-0.3922916960561267|0.2230355899077842|-0.6895901460090184|0.2883788645267487|0.9561806321144104|-0.05055893585085869|0|0|0|-1|-1|3
