loggingTime(txt)|accelerometerTimestamp_sinceReboot(s)|accelerometerAccelerationX(G)|accelerometerAccelerationY(G)|accelerometerAccelerationZ(G)|motionTimestamp_sinceReboot(s)|motionYaw(rad)|motionRoll(rad)|motionPitch(rad)|motionRotationRateX(rad/s)|motionRotationRateY(rad/s)|motionRotationRateZ(rad/s)|motionUserAccelerationX(G)|motionUserAccelerationY(G)|motionUserAccelerationZ(G)|motionAttitudeReferenceFrame(txt)|motionQuaternionX(R)|motionQuaternionY(R)|motionQuaternionZ(R)|motionQuaternionW(R)|motionGravityX(G)|motionGravityY(G)|motionGravityZ(G)|motionMagneticFieldX(µT)|motionMagneticFieldY(µT)|motionMagneticFieldZ(µT)|motionHeading(°)|motionMagneticFieldCalibrationAccuracy(Z)|label
2021-03-10 21:14:41.680 +0000|291241.80478275|-0.42596435546875|-0.121795654296875|-0.8957977294921875|291241.78481975|2.118706815303065|-0.4601614678880614|0.132360902272088|-0.06519178301095963|-0.02537680231034756|-0.003759376239031553|0.05037683248519897|0.01585538685321808|-0.04068928956985474|XArbitraryZVertical|-0.2299530182939637|0.0552244389890621|-0.8398189521988708|-0.4886472518041122|-0.4402083456516266|-0.1319747567176819|-0.8881437182426453|0|0|0|-1|-1|3
2021-03-10 21:14:41.682 +0000|291241.82474575|-0.430694580078125|-0.120269775390625|-0.88037109375|291241.80478275|2.11827205194783|-0.4592003865423876|0.1297145015910267|-0.07079246640205383|-0.0001936312764883041|0.02127291634678841|6.99460506439209e-05|0.01658861339092255|-0.01264339685440063|XArbitraryZVertical|-0.2289251474512163|0.05617021954414733|-0.8400437791536379|-0.4886355594648567|-0.4395078122615814|-0.1293510496616364|-0.8888763785362244|0|0|0|-1|-1|3
2021-03-10 21:14:41.683 +0000|291241.84470875|-0.4310150146484375|-0.1272430419921875|-0.881500244140625|291241.82474575|2.118161387900273|-0.4595947612500059|0.1287148054168414|-0.05606385320425034|0.003002162091434002|0.02131339721381664|0.004811137914657593|0.008013635873794556|0.00554811954498291|XArbitraryZVertical|-0.2288562400862449|0.0567063326351594|-0.8400546457251257|-0.4885873380511547|-0.4399154782295227|-0.1283596903085709|-0.8888184428215027|0|0|0|-1|-1|3
2021-03-10 21:14:41.683 +0000|291241.86467075|-0.4324188232421875|-0.1228790283203125|-0.8894805908203125|291241.84470875|2.118075717376481|-0.4601378353054376|0.1280678309150032|-0.06474460661411285|0.003090312704443932|0.01838179118931293|0.01445531845092773|-0.005933672189712524|0.007717907428741455|XArbitraryZVertical|-0.2289321002954827|0.05712517950849259|-0.8400252216458841|-0.4885536354720247|-0.4404349029064178|-0.1277180314064026|-0.8886536359786987|0|0|0|-1|-1|3
2021-03-10 21:14:41.684 +0000|291241.88463375|-0.4262542724609375|-0.1136474609375|-0.8880462646484375|291241.86467075|2.117846911228097|-0.4591351467690108|0.125903555262541|-0.06911905109882355|0.02043239027261734|0.03062647208571434|0.005033761262893677|0.002982094883918762|-0.0001401305198669434|XArbitraryZVertical|-0.2280029739091395|0.05783085417474658|-0.8402625916998802|-0.4884966866724302|-0.4396651089191437|-0.1255711913108826|-0.8893404603004456|0|0|0|-1|-1|3
2021-03-10 21:14:41.686 +0000|291241.90459675|-0.42242431640625|-0.115814208984375|-0.89337158203125|291241.88463375|2.117801939186821|-0.4589555037129268|0.1243006496189868|-0.0658942386507988|0.02761850506067276|0.02798470482230186|0.01221051812171936|0.008914299309253693|-0.0005685091018676758|XArbitraryZVertical|-0.2275545883078842|0.05847676237527052|-0.8404037600171179|-0.488386089546587|-0.4395939409732819|-0.123980812728405|-0.8895987272262573|0|0|0|-1|-1|3
2021-03-10 21:14:41.707 +0000|291241.92455975|-0.429840087890625|-0.121246337890625|-0.895965576171875|291241.90459675|2.1177166316592|-0.4583754395894642|0.1230082533056589|-0.05608109757304192|0.02662615850567818|0.02713808603584766|0.01930281519889832|0.007372371852397919|-0.001162528991699219|XArbitraryZVertical|-0.2270085816894888|0.0588968186807481|-0.8405545402593976|-0.4883301239542456|-0.4391483664512634|-0.1226982846856117|-0.8899965286254883|0|0|0|-1|-1|3
2021-03-10 21:14:41.726 +0000|291241.94452275|-0.42388916015625|-0.1099853515625|-0.895538330078125|291241.92455975|2.117697935744321|-0.4577028107266458|0.1218743841326329|-0.06691361963748932|0.03753846138715744|0.03510218113660812|0.01014408469200134|-0.001931712031364441|-0.006007373332977295|XArbitraryZVertical|-0.226462207894633|0.05921901906668526|-0.840718615080829|-0.4882624039305064|-0.4386108219623566|-0.1215729042887688|-0.8904159665107727|0|0|0|-1|-1|3
2021-03-10 21:14:41.746 +0000|291241.96448575|-0.4173126220703125|-0.1010589599609375|-0.8890838623046875|291241.94452275|2.117807118255722|-0.4568543547445638|0.1204598716402675|-0.05812014266848564|0.03948544338345528|0.04031416401267052|0.01211884617805481|0.009725660085678101|-0.005253255367279053|XArbitraryZVertical|-0.2257803905623387|0.05960376591786509|-0.8409559331818889|-0.4881226393896089|-0.4379306137561798|-0.1201687604188919|-0.8909412026405334|0|0|0|-1|-1|3
2021-03-10 21:14:41.766 +0000|291241.98444875|-0.4253692626953125|-0.1025390625|-0.8846893310546875|291241.96448575|2.118034426084117|-0.4560971784063343|0.1191418413053368|-0.04329772293567657|0.02541612274944782|0.03654294833540916|0.01850205659866333|0.01832003146409988|0.0005448460578918457|XArbitraryZVertical|-0.2251626852710531|0.05995641775272963|-0.8412032109548478|-0.4879388384173596|-0.4373252689838409|-0.1188601776957512|-0.8914139866828918|0|0|0|-1|-1|3
2021-03-10 21:14:41.788 +0000|291242.00441075|-0.427978515625|-0.1133270263671875|-0.8893280029296875|291241.98444875|2.118421168693269|-0.4554914674374542|0.1179984292027071|-0.02937498316168785|0.01842585951089859|0.04374813288450241|0.01417630910873413|0.01564350724220276|0.008209466934204102|XArbitraryZVertical|-0.2246539562477754|0.06025368059186987|-0.8414575766385849|-0.4876981198352274|-0.4368447661399841|-0.1177247911691666|-0.8918001651763916|0|0|0|-1|-1|3
2021-03-10 21:14:41.806 +0000|291242.02437375|-0.4348602294921875|-0.1149139404296875|-0.8955230712890625|291242.00441075|2.118928531954051|-0.4550251665499119|0.1170276471276449|-0.04185322299599648|0.01456012111157179|0.05055393278598785|0.009492188692092896|0.002457134425640106|0.004792153835296631|XArbitraryZVertical|-0.2242476437152315|0.06049784808333191|-0.8417112749241605|-0.4874168202428832|-0.4364788830280304|-0.1167607083916664|-0.8921059966087341|0|0|0|-1|-1|3
2021-03-10 21:14:41.826 +0000|291242.04433675|-0.4224853515625|-0.1393585205078125|-0.9060821533203125|291242.02437375|2.119376444579728|-0.4544473482732514|0.1156515002647785|-0.0499650314450264|0.03151438757777214|0.03722143545746803|0.003172129392623901|0.006034135818481445|0.003371953964233398|XArbitraryZVertical|-0.223698468907766|0.0608949889090611|-0.8419948501097048|-0.4871298318280399|-0.4360334575176239|-0.1153938621282578|-0.8925015926361084|0|0|0|-1|-1|3
2021-03-10 21:14:41.846 +0000|291242.06429975|-0.4485626220703125|-0.1310882568359375|-0.894439697265625|291242.04433675|2.119165295292284|-0.453186234055843|0.1142702638622193|-0.07172045856714249|0.03556649759411812|0.009338316507637501|-0.0182853639125824|-0.02857162058353424|-0.001536369323730469|XArbitraryZVertical|-0.2228401683175536|0.06120169848356084|-0.8421938245767069|-0.4871409147299331|-0.4349769353866577|-0.1140217408537865|-0.893193244934082|0|0|0|-1|-1|3
2021-03-10 21:14:41.866 +0000|291242.08426275|-0.430511474609375|-0.1328125|-0.879241943359375|291242.06429975|2.118747997601022|-0.4519573348605997|0.1124298135992039|-0.09374072402715683|0.06055014207959175|0.02679666876792908|-0.005925744771957397|-0.02949999272823334|-0.002722620964050293|XArbitraryZVertical|-0.2218819152987401|0.06173527734386551|-0.8423739268211652|-0.4871994144891345|-0.4339698553085327|-0.1121931001543999|-0.8939143419265747|0|0|0|-1|-1|3
2021-03-10 21:14:41.886 +0000|291242.10422575|-0.433074951171875|-0.12518310546875|-0.85882568359375|291242.08426275|2.118238536204443|-0.4506602817733646|0.1105392641375021|-0.1082248687744141|0.04819313064217567|0.007255990989506245|-0.002660453319549561|-0.02315431088209152|0.01017487049102783|XArbitraryZVertical|-0.2208797242525083|0.06228357125049078|-0.8425415279916701|-0.4872952486603817|-0.4329016506671906|-0.1103142872452736|-0.8946658372879028|0|0|0|-1|-1|3
2021-03-10 21:14:41.906 +0000|291242.12418875|-0.450531005859375|-0.1253814697265625|-0.841156005859375|291242.10422575|2.117001505532273|-0.4498705544411406|0.108608373171099|-0.1134572327136993|0.01919625699520111|-0.03264109417796135|-0.0002540946006774902|-0.02688942849636078|0.03132122755050659|XArbitraryZVertical|-0.2200582018461518|0.06305241502160601|-0.842477460243312|-0.4876788371208964|-0.43228679895401|-0.108394980430603|-0.8951975703239441|0|0|0|-1|-1|3
2021-03-10 21:14:41.926 +0000|291242.14415075|-0.4416656494140625|-0.1078643798828125|-0.827911376953125|291242.12418875|2.115113128586376|-0.4495386408537289|0.107474605370144|-0.1167449653148651|0.01315317302942276|-0.06567840278148651|-0.01522281765937805|-0.0152144581079483|0.04973268508911133|XArbitraryZVertical|-0.2195938360831594|0.06366316335862922|-0.8421410469352016|-0.4883892734908072|-0.4320427775382996|-0.1072678193449974|-0.8954510688781738|0|0|0|-1|-1|3
2021-03-10 21:14:41.946 +0000|291242.16411375|-0.4501800537109375|-0.111846923828125|-0.81890869140625|291242.14415075|2.112675629286164|-0.4492427195199568|0.1067049505773324|-0.1067560091614723|-0.0109073156490922|-0.09688905626535416|-0.01009628176689148|-0.00204843282699585|0.06468987464904785|XArbitraryZVertical|-0.2192112123208364|0.06418672381961409|-0.8416372829060417|-0.4893601329596342|-0.431813508272171|-0.106502577662468|-0.8956530094146729|0|0|0|-1|-1|3
2021-03-10 21:14:41.966 +0000|291242.18407675|-0.4503936767578125|-0.111328125|-0.815826416015625|291242.16411375|2.109816378436332|-0.4496248121909556|0.1062443198901835|-0.1152671650052071|-0.03537771850824356|-0.1157557740807533|-0.01617199182510376|-0.002048686146736145|0.07744729518890381|XArbitraryZVertical|-0.2191716505773958|0.06479014015286905|-0.8409306382294286|-0.4905118465387589|-0.4321769773960114|-0.1060445532202721|-0.8955320715904236|0|0|0|-1|-1|3
2021-03-10 21:14:41.986 +0000|291242.20403975|-0.4508819580078125|-0.099212646484375|-0.8062744140625|291242.18407675|2.106426109511251|-0.4504401011125587|0.1055303435004799|-0.1584790647029877|-0.06322186440229416|-0.1378199756145477|-0.01667565107345581|-0.00663439929485321|0.07946670055389404|XArbitraryZVertical|-0.2192356876785788|0.06566616005513914|-0.840063970841161|-0.491849956882109|-0.4329397976398468|-0.1053345799446106|-0.8952473402023315|0|0|0|-1|-1|3
2021-03-10 21:14:42.006 +0000|291242.22400275|-0.454010009765625|-0.095672607421875|-0.79547119140625|291242.20403975|2.102282571713353|-0.4519946549103352|0.1038582767154506|-0.2266516238451004|-0.09584340453147888|-0.1468807607889175|-0.01629152894020081|0.001300469040870667|0.08615189790725708|XArbitraryZVertical|-0.219355757336602|0.06721496400735852|-0.8390024756659936|-0.4933964589915192|-0.4344072937965393|-0.1036716625094414|-0.8947303891181946|0|0|0|-1|-1|3
2021-03-10 21:14:42.026 +0000|291242.24396575|-0.470458984375|-0.0946807861328125|-0.7679290771484375|291242.22400275|2.097083306539032|-0.4542674372517892|0.1010356070393234|-0.315910130739212|-0.1278585493564606|-0.1706414818763733|-0.01411721110343933|0.003680586814880371|0.09508049488067627|XArbitraryZVertical|-0.2194611629141638|0.06954644745550226|-0.8376867518521547|-0.4952586341537127|-0.4365663826465607|-0.1008637994527817|-0.8940001726150513|0|0|0|-1|-1|3
2021-03-10 21:14:42.046 +0000|291242.26392875|-0.493377685546875|-0.0938720703125|-0.7319793701171875|291242.24396575|2.090494506810429|-0.4569194325505253|0.09654816824168072|-0.4365168809890747|-0.1345425546169281|-0.1947861462831497|-0.0280931293964386|0.005013369023799896|0.1154044270515442|XArbitraryZVertical|-0.2192659029472684|0.07283014555245972|-0.8361071753189782|-0.4975371303633579|-0.4391309916973114|-0.0963982418179512|-0.8932364583015442|0|0|0|-1|-1|3
2021-03-10 21:14:42.066 +0000|291242.28389075|-0.493682861328125|-0.1089324951171875|-0.7034149169921875|291242.26392875|2.08209223992078|-0.4586565201963572|0.08952363629296142|-0.5730955600738525|-0.109031543135643|-0.2392692863941193|-0.04467055201530457|-0.0004396215081214905|0.1520448923110962|XArbitraryZVertical|-0.217987881617364|0.07715287321554844|-0.834359310211586|-0.5003730891315096|-0.4409708678722382|-0.08940410614013672|-0.8930574059486389|0|0|0|-1|-1|3
2021-03-10 21:14:42.086 +0000|291242.30385375|-0.466644287109375|-0.0838775634765625|-0.692535400390625|291242.28389075|2.071462107631199|-0.459614310880888|0.07977320282874004|-0.7787901163101196|-0.08047525584697723|-0.2849020063877106|-0.0567554235458374|-0.02785529941320419|0.1871814727783203|XArbitraryZVertical|-0.2155950665980462|0.08265601989344737|-0.8323222879500152|-0.5039111486134794|-0.4421917498111725|-0.07968862354755402|-0.8933734893798828|0|0|0|-1|-1|3
2021-03-10 21:14:42.105 +0000|291242.32381675|-0.477630615234375|-0.0583343505859375|-0.695037841796875|291242.30385375|2.057991591410623|-0.4606318906665628|0.06681790603789353|-0.9808412790298462|-0.1182089000940323|-0.3511719107627869|-0.02242007851600647|-0.02072568237781525|0.1972854733467102|XArbitraryZVertical|-0.2122516034221827|0.08979312734496306|-0.8297599846972884|-0.5083157960490956|-0.4435223042964935|-0.06676819920539856|-0.8937729001045227|0|0|0|-1|-1|3
2021-03-10 21:14:42.125 +0000|291242.34377975|-0.48779296875|-0.037139892578125|-0.718475341796875|291242.32381675|2.041551425373751|-0.4622718653338251|0.05110604103643521|-1.152558445930481|-0.138204500079155|-0.4189010858535767|-0.0279272198677063|-0.01370498910546303|0.1993692517280579|XArbitraryZVertical|-0.2082330652322423|0.09850121924731643|-0.8265122997394794|-0.5136281682836639|-0.4454003870487213|-0.05108379572629929|-0.8938729763031006|0|0|0|-1|-1|3
2021-03-10 21:14:42.145 +0000|291242.36374275|-0.49371337890625|-0.01007080078125|-0.733612060546875|291242.34377975|2.02249004518657|-0.4642487312823579|0.03335605511168731|-1.288548827171326|-0.1400258392095566|-0.4955068230628967|-0.03609466552734375|-0.007558912038803101|0.1803886890411377|XArbitraryZVertical|-0.2035498232925442|0.1083377195176858|-0.8226123527604577|-0.5197493155537011|-0.4475021064281464|-0.03334987163543701|-0.893660843372345|0|0|0|-1|-1|3
2021-03-10 21:14:42.165 +0000|291242.38370575|-0.4793853759765625|0.0245361328125|-0.7553558349609375|291242.36374275|2.000732437677933|-0.4665653742641968|0.01396547944419794|-1.416571140289307|-0.1463174521923065|-0.5756375193595886|-0.04253199696540833|-0.004833772778511047|0.1651261448860168|XArbitraryZVertical|-0.198234421801681|0.1191108531680466|-0.8179787183834826|-0.5267130441624547|-0.4497775435447693|-0.01396502554416656|-0.8930314183235168|0|0|0|-1|-1|3
2021-03-10 21:14:42.186 +0000|291242.40366875|-0.4923553466796875|0.048004150390625|-0.784515380859375|291242.38370575|1.976530583270956|-0.469841613182186|-0.006613107150435009|-1.514242172241211|-0.1978732049465179|-0.6651472449302673|-0.02773356437683105|0.01343701779842377|0.1398199796676636|XArbitraryZVertical|-0.1926063803684609|0.1307383738736506|-0.8125547653370001|-0.5343829162476146|-0.4527351856231689|0.006613058969378471|-0.8916205167770386|0|0|0|-1|-1|3
2021-03-10 21:14:42.205 +0000|291242.42363075|-0.513580322265625|0.0659637451171875|-0.8233184814453125|291242.40366875|1.949891158620415|-0.4747395032820301|-0.02778513454620248|-1.582327604293823|-0.2532548606395721|-0.7470952272415161|-0.03783589601516724|0.01584333926439285|0.1135711073875427|XArbitraryZVertical|-0.187027767564749|0.1431305148944341|-0.8062190012496118|-0.5427202724394404|-0.4569303393363953|0.02778155915439129|-0.8890685439109802|0|0|0|-1|-1|3
2021-03-10 21:14:42.225 +0000|291242.44359375|-0.5455322265625|0.068511962890625|-0.8516693115234375|291242.42363075|1.921127507541332|-0.4814868650754187|-0.04898401753850067|-1.634547829627991|-0.3055841326713562|-0.8361692428588867|-0.04551458358764648|0.01602278649806976|0.07121837139129639|XArbitraryZVertical|-0.1817047259303858|0.156080983481978|-0.7989881178837072|-0.5515796865781346|-0.4625420272350311|0.04896442964673042|-0.8852442502975464|0|0|0|-1|-1|3
2021-03-10 21:14:42.245 +0000|291242.46355675|-0.554168701171875|0.088623046875|-0.86572265625|291242.44359375|1.889969119906046|-0.4896690938223348|-0.07025353900006592|-1.707239866256714|-0.3194916248321533|-0.9244865775108337|-0.06985828280448914|-0.00285869836807251|0.03210610151290894|XArbitraryZVertical|-0.1763796684147833|0.1695121655589581|-0.7908184803574932|-0.5610367253428572|-0.4691736996173859|0.0701957643032074|-0.8803116679191589|0|0|0|-1|-1|3
2021-03-10 21:14:42.265 +0000|291242.48351975|-0.518585205078125|0.1558380126953125|-0.8806610107421875|291242.46355675|1.856275285246954|-0.4988313180752134|-0.09171203159709861|-1.763797521591187|-0.3253289461135864|-1.006138920783997|-0.0791986882686615|-0.009262308478355408|0.01442062854766846|XArbitraryZVertical|-0.1707641987817113|0.1833403789463829|-0.7817009486852032|-0.5711126175951531|-0.476389080286026|0.09158352017402649|-0.8744518160820007|0|0|0|-1|-1|3
2021-03-10 21:14:42.297 +0000|291242.50348275|-0.5363006591796875|0.1886138916015625|-0.9005584716796875|291242.48351975|1.821006804220532|-0.5094609840759621|-0.1122511500811876|-1.718004465103149|-0.3821729123592377|-1.077385306358337|-0.03367316722869873|0.03172225505113602|-0.01384967565536499|XArbitraryZVertical|-0.1654110481684242|0.1971866846146763|-0.7717926870044827|-0.5814572826692073|-0.4846373498439789|0.1120155677199364|-0.8675131797790527|0|0|0|-1|-1|3
2021-03-10 21:14:42.311 +0000|291242.52344575|-0.56744384765625|0.2085113525390625|-0.9105072021484375|291242.50348275|1.785241506273304|-0.5219419603658738|-0.130432506969068|-1.612154841423035|-0.4386933743953705|-1.111990928649902|-0.0365695059299469|0.05264577269554138|-0.03247839212417603|XArbitraryZVertical|-0.1609953282599559|0.2105607353324289|-0.761301112597279|-0.5917477802129532|-0.4943295419216156|0.1300629824399948|-0.859489381313324|0|0|0|-1|-1|3
2021-03-10 21:14:42.326 +0000|291242.54340875|-0.55560302734375|0.20416259765625|-0.913360595703125|291242.54340875|1.715494164178105|-0.5503019947748923|-0.1582970037442989|-1.365695118904114|-0.4960024654865265|-1.129881262779236|-0.05353987216949463|0.05386538803577423|-0.06605100631713867|XArbitraryZVertical|-0.1550818202228797|0.234722827015474|-0.7396924607759743|-0.6113182019834005|-0.5164063572883606|0.1576367318630219|-0.8417096734046936|0|0|0|-1|-1|3
2021-03-10 21:14:42.345 +0000|291242.56337075|-0.5763092041015625|0.2289886474609375|-0.9162445068359375||||||||||||||||||||||||3
2021-03-10 21:14:42.365 +0000|291242.58333375|-0.58221435546875|0.2269287109375|-0.9312286376953125|291242.56337075|1.681970442145645|-0.5659169919050968|-0.1687404388985277|-1.270941257476807|-0.5208108425140381|-1.120492815971375|-0.04991656541824341|0.05804188549518585|-0.08048897981643677|XArbitraryZVertical|-0.1533949120199097|0.2457960204536574|-0.728803644833266|-0.6204027816852182|-0.5285745859146118|0.1679408103227615|-0.8321086168289185|0|0|0|-1|-1|3
2021-03-10 21:14:42.385 +0000|291242.60329675|-0.5881195068359375|0.2256622314453125|-0.9394073486328125|291242.58333375|1.649464421114281|-0.5822788641923058|-0.1774178501143029|-1.188460350036621|-0.5457547307014465|-1.098069071769714|-0.03077089786529541|0.04813612997531891|-0.1074338555335999|XArbitraryZVertical|-0.1523643921114065|0.2563875457151601|-0.7179566697182481|-0.6289584684818442|-0.5412963032722473|0.1764885485172272|-0.8221010565757751|0|0|0|-1|-1|3
2021-03-10 21:14:42.405 +0000|291242.62325975|-0.5671539306640625|0.2469024658203125|-0.9337158203125|291242.60329675|1.618086977200117|-0.5986114963997796|-0.1851089086862974|-1.153163313865662|-0.5210580229759216|-1.047664880752563|-0.03693574666976929|0.04101359844207764|-0.1242736577987671|XArbitraryZVertical|-0.1515001482292951|0.2665424992352373|-0.7073050395612326|-0.6369634797579795|-0.5538693070411682|0.1840535849332809|-0.8120055794715881|0|0|0|-1|-1|3
2021-03-10 21:14:42.425 +0000|291242.64322275|-0.6080780029296875|0.2662811279296875|-0.9202880859375|291242.62325975|1.587714913010025|-0.6149763244181825|-0.1917180706748078|-1.0968017578125|-0.5488858819007874|-1.036353588104248|0.0007864236831665039|0.05229790508747101|-0.1339229941368103|XArbitraryZVertical|-0.1508723313142739|0.2762724259218626|-0.6968080418658096|-0.6444916919837036|-0.5663686990737915|0.1905457675457001|-0.8018221855163574|0|0|0|-1|-1|3
2021-03-10 21:14:42.445 +0000|291242.66318575|-0.5970306396484375|0.2780303955078125|-0.9041290283203125|291242.66318575|1.530351833255153|-0.6466174543647164|-0.2008286860865314|-0.9137747287750244|-0.4517224729061127|-0.9783852696418762|-0.002193987369537354|0.07310159504413605|-0.1277505159378052|XArbitraryZVertical|-0.1503975169535464|0.2938332335475877|-0.6764393385912443|-0.658386156572669|-0.5903810858726501|0.1994814276695251|-0.7820852398872375|0|0|0|-1|-1|3
2021-03-10 21:14:42.465 +0000|291242.68314875|-0.5978240966796875|0.2882537841796875|-0.88800048828125||||||||||||||||||||||||3
2021-03-10 21:14:42.485 +0000|291242.70311075|-0.600433349609375|0.3013916015625|-0.88525390625|291242.68314875|1.504051061302445|-0.6604519077545347|-0.2028976120421728|-0.813290536403656|-0.4033033847808838|-0.9491766095161438|0.008894264698028564|0.07762071490287781|-0.117414653301239|XArbitraryZVertical|-0.1504017347019534|0.3010341780321089|-0.6668699511867799|-0.6648625100818001|-0.6008894443511963|0.2015083432197571|-0.7735154628753662|0|0|0|-1|-1|3
2021-03-10 21:14:42.505 +0000|291242.72307375|-0.6015472412109375|0.278167724609375|-0.8795928955078125|291242.72307375|1.457505783559645|-0.6838450810386296|-0.2024222079067928|-0.6172635555267334|-0.2859053313732147|-0.8536269664764404|0.01437139511108398|0.08606676757335663|-0.1211705207824707|XArbitraryZVertical|-0.1511343818736055|0.3122452546331265|-0.6494523099224693|-0.676663147556251|-0.6188788414001465|0.2010426670312881|-0.7593225836753845|0|0|0|-1|-1|3
2021-03-10 21:14:42.525 +0000|291242.743037125|-0.593475341796875|0.265655517578125|-0.8564453125||||||||||||||||||||||||3
2021-03-10 21:14:42.545 +0000|291242.763000125|-0.5877685546875|0.2544097900390625|-0.83648681640625|291242.743037125|1.436790363332775|-0.6931768407378804|-0.2010371843480218|-0.5592896342277527|-0.233029693365097|-0.8059016466140747|0.03010666370391846|0.06232297420501709|-0.107050895690918|XArbitraryZVertical|-0.1513914010629002|0.3165702149373851|-0.6415788442328461|-0.6820855422375118|-0.6261149644851685|0.199685737490654|-0.753727912902832|0|0|0|-1|-1|3
2021-03-10 21:14:42.565 +0000|291242.782963125|-0.56842041015625|0.2521514892578125|-0.814208984375|291242.763000125|1.417853838031063|-0.7010027976309582|-0.1992104762790481|-0.498681902885437|-0.1766776442527771|-0.7359986901283264|0.03898215293884277|0.06190072000026703|-0.09405720233917236|XArbitraryZVertical|-0.1515395204288368|0.3201477246470305|-0.634325444652584|-0.687148183685127|-0.6322286128997803|0.1978954821825027|-0.7490824460983276|0|0|0|-1|-1|3
2021-03-10 21:14:42.585 +0000|291242.802926125|-0.5690460205078125|0.2470855712890625|-0.793487548828125|291242.782963125|1.400402849836901|-0.7077602666260243|-0.1975916161422143|-0.4779094457626343|-0.1574198305606842|-0.6710627675056458|0.06703364849090576|0.05395105481147766|-0.07459032535552979|XArbitraryZVertical|-0.1514580894423422|0.3233306478775109|-0.6276345357985729|-0.6918038599730358|-0.6374834179878235|0.1963083744049072|-0.7450354695320129|0|0|0|-1|-1|3
2021-03-10 21:14:42.605 +0000|291242.822889125|-0.57232666015625|0.2314910888671875|-0.7860107421875|291242.802926125|1.384587076297386|-0.7138380392403194|-0.1963001414361239|-0.4290668070316315|-0.1438791155815125|-0.5861556529998779|0.06874001026153564|0.05894070863723755|-0.05503314733505249|XArbitraryZVertical|-0.1512641103646725|0.3262668134085634|-0.6215540468492993|-0.6959451398785467|-0.6421652436256409|0.1950418651103973|-0.7413382530212402|0|0|0|-1|-1|3
2021-03-10 21:14:42.625 +0000|291242.842851125|-0.59283447265625|0.2323455810546875|-0.788970947265625|291242.822889125|1.370523520446368|-0.719455541997058|-0.1951989220236236|-0.4005184173583984|-0.1472626626491547|-0.5279372930526733|0.07816243171691895|0.04262585937976837|-0.048511803150177|XArbitraryZVertical|-0.1511066704650137|0.3289781279839453|-0.6161066687293627|-0.6995374633967752|-0.6464607119560242|0.1939616799354553|-0.7378803491592407|0|0|0|-1|-1|3
2021-03-10 21:14:42.644 +0000|291242.862814125|-0.611114501953125|0.2379913330078125|-0.7808074951171875|291242.842851125|1.35791367276474|-0.7235886917938643|-0.1948962829516433|-0.3806950747966766|-0.130541518330574|-0.4692882001399994|0.05831152200698853|0.04129008948802948|-0.05267196893692017|XArbitraryZVertical|-0.1504061450542175|0.3312928421609961|-0.6113418039270679|-0.7027689755682074|-0.6495437622070312|0.1936647891998291|-0.7352460622787476|0|0|0|-1|-1|3
2021-03-10 21:14:42.665 +0000|291242.882777125|-0.6087799072265625|0.2351837158203125|-0.7736968994140625|291242.882777125|1.336714573215859|-0.7271714255930161|-0.196091824246951|-0.3158892691135406|-0.07548987865447998|-0.3684967756271362|0.04604697227478027|0.03959858417510986|-0.04358053207397461|XArbitraryZVertical|-0.1475184134956995|0.3344666342270444|-0.6037267268069378|-0.7084381426462416|-0.6520194411277771|0.1948375552892685|-0.7327407598495483|0|0|0|-1|-1|3
2021-03-10 21:14:42.685 +0000|291242.902740125|-0.6243896484375|0.2270965576171875|-0.769744873046875||||||||||||||||||||||||3
2021-03-10 21:14:42.704 +0000|291242.922703125|-0.64306640625|0.2135009765625|-0.7637481689453125|291242.902740125|1.327764655903263|-0.7280183834839435|-0.196514785439301|-0.2955629527568817|-0.04852883145213127|-0.3316662311553955|0.02875983715057373|0.03190524876117706|-0.03963232040405273|XArbitraryZVertical|-0.146115092048053|0.3355399195599937|-0.6005356546334295|-0.7109292365759547|-0.6525849103927612|0.195252388715744|-0.7321267127990723|0|0|0|-1|-1|3
2021-03-10 21:14:42.724 +0000|291242.942666125|-0.6484527587890625|0.2055511474609375|-0.755615234375|291242.922703125|1.319360716260519|-0.7285338111295062|-0.1969686854105962|-0.2823100388050079|-0.01913547143340111|-0.3065857291221619|0.01812219619750977|0.01711682975292206|-0.03255820274353027|XArbitraryZVertical|-0.1446862498819682|0.336457841846327|-0.5975565643327814|-0.7132939437746778|-0.652903139591217|0.1956975311040878|-0.7317240238189697|0|0|0|-1|-1|3
2021-03-10 21:14:42.744 +0000|291242.962629125|-0.6679534912109375|0.20721435546875|-0.750030517578125|291242.942666125|1.311304692284512|-0.7288287440315865|-0.1978230511508358|-0.290170818567276|0.001512922346591949|-0.2817175686359406|0.01061224937438965|0.01400549709796906|-0.02625346183776855|XArbitraryZVertical|-0.1430935342999843|0.3373737096843928|-0.5947535391177745|-0.7155218779372522|-0.6530073285102844|0.1965353041887283|-0.7314064502716064|0|0|0|-1|-1|3
2021-03-10 21:14:42.764 +0000|291242.982592125|-0.66595458984375|0.1858062744140625|-0.7499237060546875|291242.962629125|1.303423180309815|-0.7286767301285453|-0.1992914904662442|-0.2982734143733978|0.0500204861164093|-0.2673449516296387|-0.009284079074859619|0.009819343686103821|-0.01889348030090332|XArbitraryZVertical|-0.1411594742510978|0.3382738667906494|-0.5921057435201802|-0.7176737708167564|-0.6527032256126404|0.1979748904705048|-0.7312895655632019|0|0|0|-1|-1|3
2021-03-10 21:14:42.797 +0000|291243.002554125|-0.67242431640625|0.1769561767578125|-0.7471160888671875|291242.982592125|1.295507929711061|-0.7278749419365946|-0.2011001494106717|-0.331041008234024|0.08180323988199234|-0.2478331178426743|-0.01230716705322266|-0.008692100644111633|-0.01818114519119263|XArbitraryZVertical|-0.1388934049034351|0.3390229187906236|-0.5895212890752126|-0.7198866870029043|-0.6518774032592773|0.1997474282979965|-0.7315441370010376|0|0|0|-1|-1|3
2021-03-10 21:14:42.811 +0000|291243.022517125|-0.6753387451171875|0.181060791015625|-0.7457275390625|291243.022517125|1.278761306161535|-0.7253153485125287|-0.2058282173924777|-0.3906751871109009|0.154205784201622|-0.2286949306726456|-0.0257408618927002|-0.0272844135761261|-0.01430022716522217|XArbitraryZVertical|-0.1334876556070824|0.3404898406094506|-0.5841820740683634|-0.7245544779523929|-0.6493690609931946|0.2043779641389847|-0.7324954271316528|0|0|0|-1|-1|3
2021-03-10 21:14:42.824 +0000|291243.042480125|-0.6826019287109375|0.18121337890625|-0.745452880859375||||||||||||||||||||||||3
2021-03-10 21:14:42.844 +0000|291243.062443125|-0.6735076904296875|0.189727783203125|-0.7366790771484375|291243.042480125|1.270097749301932|-0.7236019452811269|-0.2086972384769132|-0.3921459317207336|0.1943792104721069|-0.2199430763721466|-0.02825748920440674|-0.0243547260761261|-0.01331067085266113|XArbitraryZVertical|-0.1304082208988259|0.341191200376138|-0.5814751192487976|-0.726958792471927|-0.6477221846580505|0.2071855813264847|-0.7331645488739014|0|0|0|-1|-1|3
2021-03-10 21:14:42.864 +0000|291243.082406125|-0.6620635986328125|0.1963043212890625|-0.7281036376953125|291243.062443125|1.261722307487518|-0.721147614592933|-0.2113437886501879|-0.376084566116333|0.2219183593988419|-0.2075684368610382|-0.02706623077392578|-0.01865760982036591|-0.00720900297164917|XArbitraryZVertical|-0.1272451727532719|0.3415257859978929|-0.5788819552303617|-0.7294274801363628|-0.6455564498901367|0.2097739726305008|-0.7343376278877258|0|0|0|-1|-1|3
2021-03-10 21:14:42.884 +0000|291243.102369125|-0.6580963134765625|0.1868133544921875|-0.7171478271484375|291243.082406125|1.253925472696379|-0.7181292135093811|-0.2132735144622127|-0.3233464658260345|0.2298007905483246|-0.1983311623334885|-0.02360230684280396|-0.01781265437602997|0.007018506526947021|XArbitraryZVertical|-0.1242948096561263|0.3414124998147414|-0.5764401898428564|-0.7319187235722172|-0.6430694460868835|0.2116603702306747|-0.7359766364097595|0|0|0|-1|-1|3
2021-03-10 21:14:42.904 +0000|291243.122332125|-0.6372222900390625|0.1950531005859375|-0.7141265869140625|291243.122332125|1.240988777418071|-0.7122540029746893|-0.2152596922891072|-0.2250671982765198|0.1935248076915741|-0.1609277725219727|0.0005799531936645508|-0.01805970072746277|0.02250349521636963|XArbitraryZVertical|-0.1196294503872215|0.3405548256124758|-0.5722722360765997|-0.7363529975667825|-0.6384583711624146|0.2136011272668839|-0.7394223809242249|0|0|0|-1|-1|3
2021-03-10 21:14:42.924 +0000|291243.142294125|-0.638671875|0.186767578125|-0.7229461669921875||||||||||||||||||||||||3
2021-03-10 21:14:42.944 +0000|291243.162257125|-0.6423492431640625|0.1752777099609375|-0.726776123046875|291243.142294125|1.235830077195711|-0.7103535273969022|-0.2155836879327474|-0.1908697038888931|0.1471652984619141|-0.1572639793157578|-0.001054704189300537|-0.02759252488613129|0.01812410354614258|XArbitraryZVertical|-0.1180820215691758|0.3402435457271998|-0.5705198023514721|-0.7381044012687908|-0.6370067596435547|0.2139176428318024|-0.7405819296836853|0|0|0|-1|-1|3
2021-03-10 21:14:42.964 +0000|291243.182220125|-0.6327056884765625|0.1941070556640625|-0.7219085693359375|291243.162257125|1.230841540958699|-0.7093538659049674|-0.2158036827130838|-0.1823412925004959|0.1214480027556419|-0.1500587910413742|-0.005488157272338867|-0.03470437228679657|0.01281964778900146|XArbitraryZVertical|-0.1168626252771531|0.3402231797875041|-0.5687601248598033|-0.7396642753321935|-0.6362354755401611|0.2141325324773788|-0.7411826252937317|0|0|0|-1|-1|3
2021-03-10 21:14:42.984 +0000|291243.202183125|-0.638671875|0.2160186767578125|-0.7141876220703125|291243.182220125|1.226094842276618|-0.7088962791394396|-0.2160042822760019|-0.1521808654069901|0.08129041641950607|-0.1558449566364288|0.001224756240844727|-0.02663007378578186|0.01742684841156006|XArbitraryZVertical|-0.1158464204034384|0.340380756373706|-0.5670520465719344|-0.7410618636705731|-0.6358683109283447|0.2143284827470779|-0.7414410710334778|0|0|0|-1|-1|3
2021-03-10 21:14:43.004 +0000|291243.222146125|-0.63739013671875|0.2316131591796875|-0.706512451171875|291243.202183125|1.222053448679422|-0.7089222831107747|-0.2153669882230895|-0.06981273740530014|0.05158562213182449|-0.1472611427307129|-0.002817630767822266|-0.005530238151550293|0.02453285455703735|XArbitraryZVertical|-0.115415911140692|0.3404631044321262|-0.5654803267497888|-0.7422911651903543|-0.6359763741493225|0.2137059569358826|-0.7415280938148499|0|0|0|-1|-1|3
2021-03-10 21:14:43.024 +0000|291243.242109125|-0.6439666748046875|0.202117919921875|-0.7130279541015625|291243.222146125|1.219471873349939|-0.7089034766963662|-0.213279969916373|0.02483306080102921|0.02545633912086487|-0.1409822106361389|-0.001764416694641113|0.01959557831287384|0.03570026159286499|XArbitraryZVertical|-0.1157909083179287|0.340079361931513|-0.5642875272197473|-0.7433156979263665|-0.6362513899803162|0.2116666883230209|-0.7418769598007202|0|0|0|-1|-1|3
2021-03-10 21:14:43.044 +0000|291243.262072125|-0.64569091796875|0.1802825927734375|-0.7162322998046875|291243.242109125|1.218027902805811|-0.7087143897826178|-0.210156824614334|0.0647021010518074|0.02695756033062935|-0.1310494244098663|-0.01011401414871216|-0.0007122159004211426|0.03064250946044922|XArbitraryZVertical|-0.1167193271640739|0.3393063998712645|-0.5634082248533271|-0.7441901889068814|-0.6365382671356201|0.2086132764816284|-0.7424955368041992|0|0|0|-1|-1|3
2021-03-10 21:14:43.064 +0000|291243.282035125|-0.6500244140625|0.1900634765625|-0.721954345703125|291243.262072125|1.216663220667864|-0.708576729657468|-0.2071258784817254|0.03571503609418869|0.01814116723835468|-0.1342379301786423|-0.004940152168273926|-0.01999431848526001|0.02794146537780762|XArbitraryZVertical|-0.1176403591124168|0.3385717586621462|-0.5625638207065484|-0.7450180472723267|-0.6368445754051208|0.2056480646133423|-0.7430598139762878|0|0|0|-1|-1|3
2021-03-10 21:14:43.084 +0000|291243.301997125|-0.6650238037109375|0.1905517578125|-0.7230072021484375|291243.282035125|1.214784061932353|-0.7089318977793179|-0.2054692922894218|-0.01665599271655083|0.01347094029188156|-0.1104396656155586|-0.0128781795501709|-0.01522956788539886|0.0224643349647522|XArbitraryZVertical|-0.1180733426033514|0.3383978591600375|-0.5616535611409413|-0.7457149862712693|-0.6373293399810791|0.2040266096591949|-0.7430911660194397|0|0|0|-1|-1|3
2021-03-10 21:14:43.104 +0000|291243.321960125|-0.6549530029296875|0.1993865966796875|-0.7180328369140625|291243.301997125|1.212294016605313|-0.7093721166446668|-0.2052479697025658|-0.07103624194860458|0.03741563484072685|-0.1051046401262283|-0.02503395080566406|-0.01531806588172913|0.01915097236633301|XArbitraryZVertical|-0.1178624332545395|0.3386533126456158|-0.5606734236103788|-0.7463696806225717|-0.6376857757568359|0.2038099318742752|-0.7428447604179382|0|0|0|-1|-1|3
2021-03-10 21:14:43.124 +0000|291243.341923125|-0.6443939208984375|0.209259033203125|-0.71551513671875|291243.321960125|1.209498267371083|-0.7093727035189782|-0.2060712340342399|-0.1229182034730911|0.06058369576931|-0.08036058396100998|-0.02232009172439575|-0.002757281064987183|0.02199852466583252|XArbitraryZVertical|-0.1170648657830252|0.3390241926413375|-0.5597239630474005|-0.7470391813417536|-0.6375767588615417|0.2046158462762833|-0.7427168488502502|0|0|0|-1|-1|3
2021-03-10 21:14:43.144 +0000|291243.361886125|-0.6290740966796875|0.197296142578125|-0.718994140625|291243.341923125|1.206410847416789|-0.7092082249683856|-0.2072953051032282|-0.1632042229175568|0.06671988219022751|-0.06937140971422195|-0.00852203369140625|-0.001300275325775146|0.02618515491485596|XArbitraryZVertical|-0.1160128818381413|0.3394488118175246|-0.5587201609006408|-0.7477614614719976|-0.6372909545898438|0.2058138698339462|-0.7426310181617737|0|0|0|-1|-1|3
2021-03-10 21:14:43.164 +0000|291243.381849125|-0.6171417236328125|0.2186126708984375|-0.7233734130859375|291243.361886125|1.202887389754065|-0.7091830465293668|-0.2090574370566079|-0.2227960675954819|0.04940364137291908|-0.04863985255360603|0.006038427352905273|-0.006320253014564514|0.02536022663116455|XArbitraryZVertical|-0.1147120581795321|0.3400820078823902|-0.5576056689617381|-0.7485061381299968|-0.6370351314544678|0.2075379490852356|-0.7423707246780396|0|0|0|-1|-1|3
2021-03-10 21:14:43.187 +0000|291243.401812125|-0.6075897216796875|0.23114013671875|-0.724517822265625|291243.381849125|1.198972739497184|-0.7097502008236747|-0.2117729091198972|-0.2402898073196411|0.02936772257089615|-0.0321679376065731|0.01765590906143188|0.003338009119033813|0.01794630289077759|XArbitraryZVertical|-0.1131306233867886|0.3411918924686178|-0.5564190938230571|-0.7491244674972981|-0.6370864510536194|0.2101935297250748|-0.7415791153907776|0|0|0|-1|-1|3
2021-03-10 21:14:43.203 +0000|291243.421775125|-0.6036224365234375|0.2342071533203125|-0.7248687744140625|291243.421775125|1.192416190877043|-0.7111432323441149|-0.2170210533861481|-0.1636643707752228|0.01548370532691479|-0.01611591130495071|0.03205865621566772|0.01499469578266144|0.01572388410568237|XArbitraryZVertical|-0.1103186343448241|0.34337637550683|-0.5544859090493059|-0.7499785133297974|-0.6373900771141052|0.2153215110301971|-0.7398449182510376|0|0|0|-1|-1|3
2021-03-10 21:14:43.223 +0000|291243.441738125|-0.6089935302734375|0.2283172607421875|-0.7299652099609375||||||||||||||||||||||||3
2021-03-10 21:14:43.243 +0000|291243.461700125|-0.6068115234375|0.2275848388671875|-0.7258148193359375|291243.441738125|1.190377186013457|-0.711500746555083|-0.2188260162206822|-0.1143906712532043|0.01259737089276314|-0.006287070922553539|0.02784162759780884|0.01513975858688354|0.01300317049026489|XArbitraryZVertical|-0.1093519638236115|0.3440660138024753|-0.5539085018720464|-0.7502306752506048|-0.6373997330665588|0.2170837819576263|-0.7393214702606201|0|0|0|-1|-1|3
2021-03-10 21:14:43.263 +0000|291243.481663125|-0.6104583740234375|0.23321533203125|-0.7082977294921875|291243.461700125|1.188812944626776|-0.7116664200638907|-0.2203333057072553|-0.1136070191860199|-0.00610174797475338|-0.009302124381065369|0.02910768985748291|0.01031173765659332|0.01254206895828247|XArbitraryZVertical|-0.1085307988845562|0.3445830115573473|-0.5534853789630146|-0.7504249300826951|-0.6373077630996704|0.2185548841953278|-0.73896723985672|0|0|0|-1|-1|3
2021-03-10 21:14:43.283 +0000|291243.501626125|-0.6107025146484375|0.2194366455078125|-0.67950439453125|291243.481663125|1.187263262225125|-0.7122293336837043|-0.2222672445807349|-0.1063146218657494|-0.02043056674301624|-0.002501831389963627|0.02674365043640137|0.00763152539730072|0.02586948871612549|XArbitraryZVertical|-0.1076519237754549|0.3453513315086496|-0.5530950179294627|-0.7504860926926978|-0.6374462246894836|0.2204416543245316|-0.7382870316505432|0|0|0|-1|-1|3
2021-03-10 21:14:43.303 +0000|291243.521589125|-0.6146240234375|0.2105712890625|-0.6821746826171875|291243.501626125|1.185974814001526|-0.7129130871391798|-0.2242625029443417|-0.1079080402851105|-0.03968900442123413|0.0037558872718364|0.02953815460205078|0.003107041120529175|0.05030679702758789|XArbitraryZVertical|-0.1068261482526876|0.3461643291040867|-0.5528033427552506|-0.7504445560668652|-0.6376619935035706|0.2223873883485794|-0.7375168800354004|0|0|0|-1|-1|3
2021-03-10 21:14:43.323 +0000|291243.541552125|-0.6420440673828125|0.176116943359375|-0.6668701171875|291243.521589125|1.184839076835957|-0.7142542796518018|-0.2264462104868703|-0.1153968572616577|-0.08180609345436096|0.02046615816652775|0.02935260534286499|-0.01254075765609741|0.05340045690536499|XArbitraryZVertical|-0.1061327726789783|0.3472602979656144|-0.5525559040045769|-0.7502186456201765|-0.63833087682724|0.2245158851146698|-0.7362922430038452|0|0|0|-1|-1|3
2021-03-10 21:14:43.343 +0000|291243.561515125|-0.6230316162109375|0.1470489501953125|-0.637298583984375|291243.541552125|1.182998093724489|-0.7157924053642984|-0.2291594035077366|-0.2201906442642212|-0.05955512076616287|0.01318640634417534|-0.0001911520957946777|-0.04448071122169495|0.06608504056930542|XArbitraryZVertical|-0.1051593891076021|0.3485941745685035|-0.5520949511100784|-0.7500765568318765|-0.6390605568885803|0.2271589785814285|-0.7348471879959106|0|0|0|-1|-1|3
2021-03-10 21:14:43.363 +0000|291243.581478125|-0.5985107421875|0.13714599609375|-0.6013031005859375|291243.561515125|1.179343832704033|-0.7174028772010037|-0.2342544216961732|-0.4038147032260895|-0.05454672500491142|0.03304702043533325|0.01096445322036743|-0.08320729434490204|0.08819061517715454|XArbitraryZVertical|-0.1029390019731953|0.3506220901888933|-0.5512241839417682|-0.7500797212096859|-0.6394739747047424|0.2321178317070007|-0.7329354286193848|0|0|0|-1|-1|3
2021-03-10 21:14:43.383 +0000|291243.601440125|-0.59857177734375|0.078643798828125|-0.58343505859375|291243.581478125|1.173041433349333|-0.7204097357644431|-0.2427511249520955|-0.6411486268043518|-0.1033073961734772|0.05582316964864731|0.03631627559661865|-0.09552225470542908|0.1187829971313477|XArbitraryZVertical|-0.09927228777984715|0.3541110355760994|-0.5496805650903515|-0.7500678989232253|-0.6403507590293884|0.2403739988803864|-0.7295007705688477|0|0|0|-1|-1|3
2021-03-10 21:14:43.403 +0000|291243.621403125|-0.613861083984375|0.0745086669921875|-0.551300048828125|291243.601440125|1.16284728174051|-0.7257434127435705|-0.2559704558690331|-1.057276606559753|-0.1724718660116196|0.08524932712316513|0.0498889684677124|-0.159693717956543|0.1380787491798401|XArbitraryZVertical|-0.09363739853013478|0.3597424903931653|-0.5471118173760749|-0.7499907803209772|-0.6420673727989197|0.2531843781471252|-0.7236347794532776|0|0|0|-1|-1|3
2021-03-10 21:14:43.423 +0000|291243.641366125|-0.596466064453125|0.114227294921875|-0.4955596923828125|291243.621403125|1.145811427959275|-0.7338743788231618|-0.2769603639174425|-1.608078479766846|-0.1941390335559845|0.0982239842414856|0.02925324440002441|-0.2040666043758392|0.1531287431716919|XArbitraryZVertical|-0.08433698328718578|0.3684349087399727|-0.5427614958106676|-0.7500354045443314|-0.6442281603813171|0.273433119058609|-0.7142859697341919|0|0|0|-1|-1|3
2021-03-10 21:14:43.443 +0000|291243.661329125|-0.5872650146484375|0.156829833984375|-0.4442138671875|291243.641366125|1.121355704849667|-0.7450277269575484|-0.305688991263624|-2.07552695274353|-0.2220551818609238|0.09934907406568527|0.04573029279708862|-0.2003338038921356|0.1898828744888306|XArbitraryZVertical|-0.07118567082356529|0.3800486946950843|-0.5364443773903069|-0.7501486849342176|-0.6465603709220886|0.300950288772583|-0.700991153717041|0|0|0|-1|-1|3
2021-03-10 21:14:43.463 +0000|291243.681292125|-0.5750732421875|0.169586181640625|-0.4219970703125|291243.661329125|1.090503022214128|-0.7596356434653585|-0.3406096427361365|-2.486576318740845|-0.2607330679893494|0.1515277624130249|0.05856430530548096|-0.184876561164856|0.2250728607177734|XArbitraryZVertical|-0.05492214159663021|0.3940403066313538|-0.5284275774368312|-0.7499867378624264|-0.6490947604179382|0.3340617716312408|-0.6834315657615662|0|0|0|-1|-1|3
2021-03-10 21:14:43.483 +0000|291243.701255125|-0.6167449951171875|0.18914794921875|-0.41558837890625|291243.681292125|1.052706398713648|-0.7788662370519462|-0.3818730703189729|-2.979485988616943|-0.345327228307724|0.1976128816604614|0.07644838094711304|-0.2019743919372559|0.2395615577697754|XArbitraryZVertical|-0.03546606078307361|0.4105116432020763|-0.5186204521305817|-0.7491696982607129|-0.6518726348876953|0.3726592659950256|-0.6604446768760681|0|0|0|-1|-1|3
2021-03-10 21:14:43.503 +0000|291243.721218125|-0.6348724365234375|0.1974639892578125|-0.3793487548828125|291243.701255125|1.004444593510576|-0.8049586625625631|-0.4307076197874976|-3.706165552139282|-0.3466167747974396|0.1863416880369186|0.05310386419296265|-0.2223997116088867|0.2232206463813782|XArbitraryZVertical|-0.01186121386175716|0.4300475482337242|-0.5060459944151096|-0.7475532619564953|-0.6549715399742126|0.417513906955719|-0.6298368573188782|0|0|0|-1|-1|3
2021-03-10 21:14:43.523 +0000|291243.74118075|-0.6688690185546875|0.3282012939453125|-0.3459320068359375|291243.721218125|0.939705374788261|-0.8408479785021938|-0.4886809225658356|-4.494508266448975|-0.3670293092727661|0.1073949337005615|0.01829010248184204|-0.2974034547805786|0.1964923143386841|XArbitraryZVertical|0.01761503979312944|0.4530998375687313|-0.4890880871549687|-0.7451061230633218|-0.6579843163490295|0.4694616198539734|-0.5887805223464966|0|0|0|-1|-1|3
2021-03-10 21:14:43.543 +0000|291243.76114275|-0.725555419921875|0.51373291015625|-0.259613037109375|291243.74118075|0.8555284919819062|-0.89124893232651|-0.5521986868145976|-5.235232830047607|-0.5447929501533508|0.05644475296139717|0.004882991313934326|-0.2014250159263611|0.1767310500144958|XArbitraryZVertical|0.05178665934446045|0.4793737659745358|-0.4670594187509914|-0.7411979689739954|-0.6622468233108521|0.5245603919029236|-0.5350378751754761|0|0|0|-1|-1|3
2021-03-10 21:14:43.563 +0000|291243.78110575|-0.7741851806640625|0.53948974609375|-0.2227020263671875|291243.76114275|0.7524506239172604|-0.9579553667156039|-0.6156915808459943|-5.482481002807617|-0.4327875077724457|-0.1848321408033371|-0.06392699480056763|-0.1349572539329529|0.1893762946128845|XArbitraryZVertical|0.08873045068452155|0.5072871072400988|-0.4406173617396492|-0.7352844173378816|-0.6678082346916199|0.5775232315063477|-0.4695734083652496|0|0|0|-1|-1|3
2021-03-10 21:14:43.583 +0000|291243.80106875|-0.78759765625|0.6107330322265625|-0.175567626953125|291243.78110575|0.6367717067285501|-1.035204956659442|-0.6704133454903958|-5.377204895019531|-0.3515985906124115|-0.2668078541755676|-0.09402811527252197|-0.08914434909820557|0.1534475088119507|XArbitraryZVertical|0.1252373803598948|0.533263095773617|-0.4114788569887303|-0.7284444323186549|-0.6738399863243103|0.6213099360466003|-0.3998921513557434|0|0|0|-1|-1|3
2021-03-10 21:14:43.603 +0000|291243.82103175|-0.781494140625|0.68701171875|-0.1815643310546875|291243.80106875|0.5114582248225736|-1.11926703534972|-0.714256038487536|-5.227164745330811|-0.1284084320068359|-0.4172007441520691|-0.104124128818512|-0.0632585883140564|0.1474407613277435|XArbitraryZVertical|0.1608084624907966|0.5561427801699043|-0.3803885285837663|-0.7212145547212208|-0.6798571348190308|0.6550554633140564|-0.3296916782855988|0|0|0|-1|-1|3
2021-03-10 21:14:43.622 +0000|291243.84099475|-0.7870025634765625|0.6869049072265625|-0.1827239990234375|291243.82103175|0.3805228424835789|-1.206520439388193|-0.7450913418400874|-4.99018383026123|0.07964607328176498|-0.5667938590049744|-0.115740954875946|0.02446043491363525|0.08903351426124573|XArbitraryZVertical|0.1944002195294037|0.5755637941916611|-0.3478269179392747|-0.7141087375283113|-0.6867949962615967|0.6780389547348022|-0.2618697583675385|0|0|0|-1|-1|3
2021-03-10 21:14:43.643 +0000|291243.86095775|-0.8258819580078125|0.65655517578125|-0.18243408203125|291243.84099475|0.2500175993226831|-1.293954377221178|-0.7647387815804294|-4.68521785736084|0.1346638798713684|-0.587141752243042|-0.0779755711555481|-0.01337814331054688|0.01321148872375488|XArbitraryZVertical|0.2256638398153088|0.5920027582132801|-0.3154545734843001|-0.7064680403651153|-0.6940886974334717|0.6923485398292542|-0.1972171366214752|0|0|0|-1|-1|3
2021-03-10 21:14:43.663 +0000|291243.88092075|-0.830596923828125|0.7014007568359375|-0.153656005859375|291243.86095775|0.122321987604454|-1.378727827957636|-0.7734416822414079|-4.414572715759277|0.2826009690761566|-0.7071532607078552|-0.1157923340797424|-0.01992148160934448|-0.04646073281764984|XArbitraryZVertical|0.2544806391105917|0.6057621511890561|-0.283120965308392|-0.6986661195377318|-0.7023533582687378|0.6986019015312195|-0.1365836411714554|0|0|0|-1|-1|3
2021-03-10 21:14:43.682 +0000|291243.90088375|-0.838592529296875|0.705047607421875|-0.140960693359375|291243.88092075|0.002387024264086192|-1.455222714891451|-0.7721563204618644|-3.958400249481201|0.4680395722389221|-0.7494702339172363|-0.1181137561798096|-0.01559847593307495|-0.07833594083786011|XArbitraryZVertical|0.2804649585735163|0.6164678244215017|-0.2512696945473228|-0.6914986859147736|-0.7116286754608154|0.6976816654205322|-0.08261365443468094|0|0|0|-1|-1|3
2021-03-10 21:14:43.703 +0000|291243.92084575|-0.8617706298828125|0.6483154296875|-0.121673583984375|291243.90088375|-0.1029407955773919|-1.518186834563194|-0.7629790133385589|-3.575596570968628|0.5869286060333252|-0.8016552329063416|-0.1091063022613525|0.03272300958633423|-0.1084462404251099|XArbitraryZVertical|0.3025976048163583|0.6240439888484207|-0.2212635023249104|-0.6855992205168803|-0.72178053855896|0.691077709197998|-0.03800757974386215|0|0|0|-1|-1|3
2021-03-10 21:14:43.722 +0000|291243.94080875|-0.877349853515625|0.6739501953125|-0.145751953125|291243.92084575|-0.1987049122534812|-1.572734231307228|-0.7482555485926475|-3.428346395492554|0.5557863116264343|-0.8454800844192505|-0.1167949438095093|-0.03671509027481079|-0.1241008043289185|XArbitraryZVertical|0.3222450241102178|0.6299748142666064|-0.1921721145916009|-0.6799703807044499|-0.7328754067420959|0.6803613305091858|0.00142024434171617|0|0|0|-1|-1|3
2021-03-10 21:14:43.742 +0000|291243.96077175|-0.86907958984375|0.671478271484375|-0.131927490234375|291243.94080875|-0.2910240116599482|-1.623819850757233|-0.7287006158329024|-3.451922416687012|0.5285729765892029|-0.942021906375885|-0.1266206502914429|0.007439076900482178|-0.1838871240615845|XArbitraryZVertical|0.3409178405552213|0.6352516080403749|-0.1626042806431887|-0.673639640318213|-0.7449919581413269|0.6659008264541626|0.0395391583442688|0|0|0|-1|-1|3
2021-03-10 21:14:43.762 +0000|291243.98073475|-0.805572509765625|0.745941162109375|-0.0902557373046875|291243.96077175|-0.3788007571965276|-1.670797705946558|-0.704313310577545|-3.279651880264282|0.5587549805641174|-0.9819216728210449|-0.1240749955177307|0.01324069499969482|-0.2200464010238647|XArbitraryZVertical|0.3583107627305648|0.6400416176369729|-0.1326527203182173|-0.66660593608624|-0.7582492828369141|0.6475107073783875|0.07607974857091904|0|0|0|-1|-1|3
2021-03-10 21:14:43.782 +0000|291244.00069775|-0.7648773193359375|0.741790771484375|-0.0371856689453125|291243.98073475|-0.4554017115613545|-1.708354623534453|-0.6779993178549776|-2.881271839141846|0.5771093368530273|-0.9414202570915222|-0.04739069938659668|0.1021187305450439|-0.2031254768371582|XArbitraryZVertical|0.3733161380771416|0.6434543453601128|-0.1044408132681667|-0.6600709830487842|-0.7714722156524658|0.6272360682487488|0.1067968681454659|0|0|0|-1|-1|3
2021-03-10 21:14:43.802 +0000|291244.02066075|-0.7475738525390625|0.63836669921875|-0.0341033935546875|291244.00069775|-0.5162681632514285|-1.734833355887265|-0.6516169675439122|-2.344092607498169|0.5646923780441284|-0.9680807590484619|0.01302266120910645|0.1176786422729492|-0.1900229752063751|XArbitraryZVertical|0.3846123955012685|0.6457511076375017|-0.07959407848402511|-0.6547850938905274|-0.7844306826591492|0.6064728498458862|0.1298423707485199|0|0|0|-1|-1|3
2021-03-10 21:14:43.822 +0000|291244.04062375|-0.760162353515625|0.626708984375|0.0027008056640625|291244.02066075|-0.564841075099809|-1.753316776172567|-0.6248478875818134|-1.966684103012085|0.4885130226612091|-1.030068278312683|0.0524170994758606|0.06321954727172852|-0.1916007697582245|XArbitraryZVertical|0.3926663501136128|0.647626189645481|-0.05723565588175869|-0.6504750012342454|-0.7975802421569824|0.584973931312561|0.1472130864858627|0|0|0|-1|-1|3
2021-03-10 21:14:43.842 +0000|291244.06058675|-0.8564453125|0.655426025390625|0.0509490966796875|291244.04062375|-0.6033950667368099|-1.766847688617118|-0.59731731434813|-1.617871642112732|0.3919843733310699|-1.132621049880981|0.06700456142425537|0.04699438810348511|-0.1719474941492081|XArbitraryZVertical|0.3977629560809094|0.6498605047775482|-0.03695719823699753|-0.646606569770964|-0.8110077381134033|0.5624263286590576|0.1610680967569351|0|0|0|-1|-1|3
2021-03-10 21:14:43.862 +0000|291244.08054875|-0.90185546875|0.6233673095703125|0.0934295654296875|291244.06058675|-0.6303133765983635|-1.774707308081838|-0.5688427530207425|-1.206796288490295|0.3369147777557373|-1.201562404632568|-0.005588352680206299|0.1050803661346436|-0.1410098224878311|XArbitraryZVertical|0.399155790752786|0.6526719338534808|-0.01899455907118042|-0.6436872280813999|-0.8250696063041687|0.5386574268341064|0.1706119924783707|0|0|0|-1|-1|3
2021-03-10 21:14:43.882 +0000|291244.10051175|-0.9831390380859375|0.6257171630859375|0.1729278564453125|291244.08054875|-0.6452769435129488|-1.775702796315498|-0.5402124630022548|-0.5896424055099487|0.3158422708511353|-1.377010226249695|-0.05609339475631714|0.1150611639022827|-0.09597872197628021|XArbitraryZVertical|0.3967437678449154|0.6556254121649567|-0.003465925119035346|-0.6424467824771555|-0.8396586775779724|0.5143182277679443|0.1745005995035172|0|0|0|-1|-1|3
2021-03-10 21:14:43.902 +0000|291244.12047475|-0.99920654296875|0.5456085205078125|0.2156219482421875|291244.10051175|-0.646638557312643|-1.76941232274401|-0.51096419691948|-0.07508096843957901|0.4064104557037354|-1.496749639511108|-0.1055834889411926|0.133784294128418|-0.01758478581905365|XArbitraryZVertical|0.3896485580982191|0.6589608083966754|0.009345784151793185|-0.6433175716105213|-0.8551252484321594|0.4890185296535492|0.1721106916666031|0|0|0|-1|-1|3
2021-03-10 21:14:43.922 +0000|291244.14043775|-0.93310546875|0.520660400390625|0.236968994140625|291244.12047475|-0.6375853327196568|-1.756690736064083|-0.481712874470647|0.3159071505069733|0.433079868555069|-1.549634218215942|-0.1390446424484253|0.09959894418716431|0.04564929008483887|XArbitraryZVertical|0.3788844233838767|0.6620748228108394|0.01997412681661739|-0.6463007068401103|-0.8709346055984497|0.4632978141307831|0.1637929528951645|0|0|0|-1|-1|3
2021-03-10 21:14:43.942 +0000|291244.16040075|-0.878997802734375|0.506561279296875|0.2322235107421875|291244.14043775|-0.6221785019373002|-1.741603803592006|-0.4523366741526371|0.5268191695213318|0.3080055713653564|-1.538645029067993|-0.06237554550170898|0.1065260171890259|0.09083034098148346|XArbitraryZVertical|0.3656814064373991|0.6653710920337267|0.02888870900146351|-0.6501722695516907|-0.8863397836685181|0.4370684027671814|0.1528831571340561|0|0|0|-1|-1|3
2021-03-10 21:14:43.962 +0000|291244.18036375|-0.7643280029296875|0.4140625|0.178192138671875|291244.16040075|-0.601061536598716|-1.726682852802252|-0.4245671496954273|0.8837332725524902|0.2644793689250946|-1.48679780960083|-0.003243863582611084|0.1024627089500427|0.09702314436435699|XArbitraryZVertical|0.3507280014457992|0.6691231703312531|0.03511665468646313|-0.6542407969641502|-0.9001681208610535|0.4119263887405396|0.1414718925952911|0|0|0|-1|-1|3
2021-03-10 21:14:43.982 +0000|291244.20032675|-0.675384521484375|0.3567657470703125|0.175506591796875|291244.18036375|-0.5746685595230092|-1.71214821560717|-0.3990570359315694|1.248050332069397|0.1236818134784698|-1.396812081336975|0.1189181804656982|0.05067452788352966|0.06781956553459167|XArbitraryZVertical|0.3343767789508064|0.673125761637789|0.03849164743064687|-0.6584923185337872|-0.9122377038002014|0.3885496556758881|0.1298122406005859|0|0|0|-1|-1|3
2021-03-10 21:14:44.002 +0000|291244.22028975|-0.6744537353515625|0.3831634521484375|0.1264801025390625|291244.20032675|-0.5385785388336969|-1.698610207928193|-0.376043458990404|1.734715819358826|-0.1610953211784363|-1.277738571166992|0.2332068085670471|0.01585912704467773|0.06881856918334961|XArbitraryZVertical|0.3152423347176756|0.6781607498343378|0.03734537702909319|-0.6628164554828255|-0.9225379228591919|0.3672432899475098|0.1185594648122787|0|0|0|-1|-1|3
2021-03-10 21:14:44.022 +0000|291244.24025175|-0.8386993408203125|0.4188690185546875|0.0978851318359375|291244.22028975|-0.4913647339376859|-1.68751576440226|-0.3549851430866107|2.40190601348877|-0.4561067223548889|-1.299636721611023|0.2593206167221069|0.02165576815605164|0.03921331465244293|XArbitraryZVertical|0.2926944300113326|0.6847823783298186|0.03116131086288426|-0.6666574894827356|-0.9312720894813538|0.3475764393806458|0.1091938689351082|0|0|0|-1|-1|3
2021-03-10 21:14:44.042 +0000|291244.26021475|-0.9226531982421875|0.474517822265625|0.1798858642578125|291244.24025175|-0.4287734760943884|-1.677303715570749|-0.3357568295715971|3.361136913299561|-0.5885147452354431|-1.348211765289307|0.132551908493042|0.09176558256149292|-0.008786782622337341|XArbitraryZVertical|0.2651430637109506|0.692736768803182|0.0187879754650189|-0.6704193410793188|-0.9388112425804138|0.329483836889267|0.1003701537847519|0|0|0|-1|-1|3
2021-03-10 21:14:44.062 +0000|291244.28017775|-1.112258911132812|0.5440216064453125|0.2783966064453125|291244.26021475|-0.3403743833109019|-1.662676454965179|-0.3159933160988995|4.841312408447266|-0.8136807084083557|-1.48283588886261|0.05455702543258667|0.1268918514251709|0.08558237552642822|XArbitraryZVertical|0.2280731059178678|0.7011324685213747|-0.00185616211182979|-0.6755683167702569|-0.9464790821075439|0.3107607662677765|0.08720815926790237|0|0|0|-1|-1|3
2021-03-10 21:14:44.082 +0000|291244.30014075|-1.287155151367188|0.61212158203125|0.1607818603515625|291244.28017775|-0.2257138972256027|-1.645948005505654|-0.2953459543954873|5.797306060791016|-0.9363089203834534|-1.453137993812561|-0.1045773029327393|0.2989407777786255|0.2162712812423706|XArbitraryZVertical|0.1810922548716684|0.709309968106132|-0.03143895458300833|-0.6805120270185052|-0.954001247882843|0.2910708487033844|0.07183007150888443|0|0|0|-1|-1|3
2021-03-10 21:14:44.102 +0000|291244.32010375|-1.383865356445312|0.42584228515625|0.083099365234375|291244.30014075|-0.09644059519225853|-1.627901932737669|-0.27316188065944|6.321666717529297|-0.8970457911491394|-1.510609984397888|-0.2861902713775635|0.3105143904685974|0.1390724331140518|XArbitraryZVertical|0.1280972951339485|0.7148918038687887|-0.06608309165407042|-0.6842178262563493|-0.9613533020019531|0.2697774171829224|0.05495841801166534|0|0|0|-1|-1|3
2021-03-10 21:14:44.122 +0000|291244.34006675|-1.297531127929688|0.2305908203125|0.181854248046875|291244.32010375|0.02971672189057162|-1.61062021821691|-0.2523427335811094|5.546565532684326|-0.5980518460273743|-1.172454357147217|-0.4173862934112549|0.2529513835906982|0.06090438365936279|XArbitraryZVertical|0.07655319377634226|0.7165304262097245|-0.1009370582083878|-0.6859559350976563|-0.9675624966621399|0.2496731877326965|0.03855248540639877|0|0|0|-1|-1|3
2021-03-10 21:14:44.142 +0000|291244.36002975|-1.188888549804688|0.1988372802734375|0.2963409423828125|291244.34006675|0.1310736163008035|-1.596834282880681|-0.2350278385712042|4.164048671722412|-0.4049155116081238|-0.8686396479606628|-0.3490955233573914|0.02717024087905884|0.1117657423019409|XArbitraryZVertical|0.03505802566929761|0.7151437367497441|-0.1291821159346753|-0.6860411516631423|-0.9721783399581909|0.2328700572252274|0.02531925961375237|0|0|0|-1|-1|3
2021-03-10 21:14:44.162 +0000|291244.37999275|-1.16632080078125|0.219879150390625|0.294525146484375|291244.36002975|0.1986496674771783|-1.588815566257795|-0.2232307969305483|2.281852722167969|-0.2706411480903625|-0.4602243900299072|-0.2377090454101562|-0.02329176664352417|0.256278395652771|XArbitraryZVertical|0.007356295923233586|0.7132541468927411|-0.148125854986817|-0.6850352798004801|-0.9750291705131531|0.2213814109563828|0.01757118664681911|0|0|0|-1|-1|3
2021-03-10 21:14:44.182 +0000|291244.39995475|-1.204376220703125|0.411163330078125|0.309295654296875|291244.39995475|0.2086308817864057|-1.59155676699932|-0.2207691721227401|-1.515959978103638|0.1975940614938736|0.2935068309307098|-0.221685528755188|0.1702715754508972|0.2713251113891602|XArbitraryZVertical|0.002727515716643925|0.7142269388019291|-0.1506885924606995|-0.6834951180109656|-0.9755192399024963|0.2189801931381226|0.02025511860847473|0|0|0|-1|-1|3
2021-03-10 21:14:44.201 +0000|291244.41991775|-1.176437377929688|0.3041229248046875|0.2778472900390625||||||||||||||||||||||||3
2021-03-10 21:14:44.222 +0000|291244.43988075|-1.056915283203125|0.3141937255859375|0.239166259765625|291244.41991775|0.1664087155575173|-1.594265353486981|-0.2305739047249348|-2.525795221328735|0.5571962594985962|0.7868050336837769|-0.2171013355255127|0.1066535711288452|0.2553067207336426|XArbitraryZVertical|0.02104420538695001|0.7148286904930053|-0.1396912878274924|-0.6848820488342986|-0.9732673168182373|0.2285362780094147|0.02284583076834679|0|0|0|-1|-1|3
2021-03-10 21:14:44.241 +0000|291244.45984375|-1.037155151367188|0.35260009765625|0.21636962890625|291244.43988075|0.1075458992040397|-1.5951284141136|-0.2480713863320656|-3.129813671112061|0.6794237494468689|1.148530602455139|-0.1140137910842896|0.05753524601459503|0.2403464317321777|XArbitraryZVertical|0.04811717442197846|0.7137767079813635|-0.1256629066138238|-0.6873255937820208|-0.9691008925437927|0.2455348372459412|0.02358490228652954|0|0|0|-1|-1|3
2021-03-10 21:14:44.261 +0000|291244.47980675|-1.001907348632812|0.414947509765625|0.2023773193359375|291244.45984375|0.03762329956289249|-1.599014548270929|-0.2730861681828315|-3.530115842819214|0.7220250964164734|1.482071399688721|-0.07691466808319092|0.05649790167808533|0.1886361837387085|XArbitraryZVertical|0.081504607594343|0.711998221944955|-0.1105719550694711|-0.6886141367432982|-0.9625598192214966|0.2697045207023621|0.02716893889009953|0|0|0|-1|-1|3
2021-03-10 21:14:44.281 +0000|291244.49976975|-0.9811553955078125|0.3665771484375|0.2382049560546875|291244.47980675|-0.03850712075778061|-1.606720988294205|-0.3032230163235817|-3.672089099884033|0.6531946659088135|1.756743431091309|-0.04922741651535034|0.1210952997207642|0.1683584451675415|XArbitraryZVertical|0.1185373007500862|0.7092870332381924|-0.09546265717879884|-0.688293392459785|-0.9537633657455444|0.2985977232456207|0.03427837416529655|0|0|0|-1|-1|3
2021-03-10 21:14:44.302 +0000|291244.51973275|-0.9510650634765625|0.38800048828125|0.2480926513671875|291244.49976975|-0.1187290997322877|-1.620187802873935|-0.3378692222892877|-3.789026498794556|0.5098634958267212|2.045039653778076|-0.04270333051681519|0.03715959191322327|0.1805164813995361|XArbitraryZVertical|0.1580750621083479|0.7059053229715513|-0.08125093686373394|-0.6856445141745874|-0.9423127174377441|0.3314775228500366|0.04658010229468346|0|0|0|-1|-1|3
2021-03-10 21:14:44.321 +0000|291244.53969575|-0.9737091064453125|0.4781951904296875|0.2644500732421875|291244.51973275|-0.2009909846715894|-1.640846887565607|-0.3749077498506725|-3.696102857589722|0.2783034145832062|2.1748046875|-0.03151857852935791|0.0187772810459137|0.1761709451675415|XArbitraryZVertical|0.1985351958509839|0.7022461094217621|-0.06840568955653267|-0.6802608177256267|-0.9282591342926025|0.3661866784095764|0.06513164192438126|0|0|0|-1|-1|3
2021-03-10 21:14:44.341 +0000|291244.55965775|-0.9670562744140625|0.5386962890625|0.298004150390625|291244.53969575|-0.2833475531246967|-1.669507316334019|-0.4142172113639015|-3.496140003204346|0.0643804594874382|2.340488910675049|-0.05638605356216431|0.04193884134292603|0.1692745685577393|XArbitraryZVertical|0.239081015747293|0.6985331214025003|-0.05810229879639198|-0.6719494289234266|-0.9109755754470825|0.4024734497070312|0.0902165099978447|0|0|0|-1|-1|3
2021-03-10 21:14:44.361 +0000|291244.57962075|-0.9616241455078125|0.538330078125|0.2799224853515625|291244.55965775|-0.3606808052623426|-1.702215392415513|-0.4537688364929981|-2.991998910903931|-0.06606308370828629|2.392617464065552|-0.08033877611160278|0.1033919751644135|0.1790952682495117|XArbitraryZVertical|0.2772938979042243|0.6942608021972886|-0.0512179752615983|-0.6621833592780728|-0.8910510540008545|0.4383560717105865|0.1177799329161644|0|0|0|-1|-1|3
2021-03-10 21:14:44.381 +0000|291244.59958375|-0.9258270263671875|0.553619384765625|0.2944793701171875|291244.57962075|-0.427923060177397|-1.735636134069164|-0.4936385554957365|-2.38225531578064|-0.1821092069149017|2.423458576202393|-0.09174108505249023|0.05175581574440002|0.1349761486053467|XArbitraryZVertical|0.3114336031842529|0.6893917913736759|-0.0490354774884221|-0.6521837517653157|-0.8686776757240295|0.4738331735134125|0.1445038616657257|0|0|0|-1|-1|3
2021-03-10 21:14:44.401 +0000|291244.61954675|-0.890533447265625|0.47369384765625|0.346435546875|291244.59958375|-0.4871115435545354|-1.768655900891531|-0.5338083701952071|-1.950289607048035|-0.2067515552043915|2.432965993881226|-0.09496152400970459|0.04816079139709473|0.1202970743179321|XArbitraryZVertical|0.3421575069334035|0.6837688854395474|-0.05054984967996737|-0.6425209418042868|-0.8440796136856079|0.5088155269622803|0.1692232936620712|0|0|0|-1|-1|3
2021-03-10 21:14:44.421 +0000|291244.63950975|-0.8133697509765625|0.541534423828125|0.415740966796875|291244.61954675|-0.5401296409879869|-1.800912948275613|-0.5741303488655102|-1.719584822654724|-0.2092453837394714|2.446980476379395|-0.083545982837677|-0.08262491226196289|0.1305624693632126|XArbitraryZVertical|0.3700322730819693|0.677374478273427|-0.0548646177894819|-0.6334271778276174|-0.8175314664840698|0.5431047677993774|0.1915201395750046|0|0|0|-1|-1|3
2021-03-10 21:14:44.441 +0000|291244.65947275|-0.798675537109375|0.625701904296875|0.428863525390625|291244.63950975|-0.5948534401540253|-1.836659742387746|-0.6133593365688771|-1.668285250663757|-0.3039568066596985|2.46075701713562|-0.03338319063186646|-0.04506963491439819|0.1839237064123154|XArbitraryZVertical|0.3972448855886769|0.670538024316087|-0.05972066125923484|-0.62370563548183|-0.788989245891571|0.5756176710128784|0.2148494869470596|0|0|0|-1|-1|3
2021-03-10 21:14:44.461 +0000|291244.67943575|-0.7727508544921875|0.556640625|0.3661956787109375|291244.65947275|-0.6502822119912456|-1.875711284867532|-0.6513353585972885|-1.528285026550293|-0.3103948831558228|2.450983762741089|-0.04400604963302612|-0.002717971801757812|0.1987794637680054|XArbitraryZVertical|0.4233610658313752|0.6634312294193867|-0.06542601639338624|-0.6134687860136687|-0.7585910558700562|0.6062489151954651|0.2387511730194092|0|0|0|-1|-1|3
2021-03-10 21:14:44.481 +0000|291244.69939875|-0.72906494140625|0.632415771484375|0.3697357177734375|291244.67943575|-0.7050169936559793|-1.915332780305685|-0.6882384021312702|-1.379227161407471|-0.2510493993759155|2.403115749359131|-0.05737149715423584|-0.05200183391571045|0.1148271858692169|XArbitraryZVertical|0.448005595184704|0.6555367229236085|-0.07192850897221698|-0.6036464919518192|-0.7269761562347412|0.6351775527000427|0.2608748078346252|0|0|0|-1|-1|3
2021-03-10 21:14:44.501 +0000|291244.71936175|-0.70849609375|0.654693603515625|0.468109130859375|291244.69939875|-0.7619813125128366|-1.956863662705236|-0.7230829783088486|-1.357834339141846|-0.2082618325948715|2.412915468215942|-0.04273587465286255|-0.05371290445327759|0.08532103896141052|XArbitraryZVertical|0.4718722356955459|0.6469147509216064|-0.07822370303771828|-0.5939014401355084|-0.6945840120315552|0.6616993546485901|0.2823241949081421|0|0|0|-1|-1|3
2021-03-10 21:14:44.521 +0000|291244.73932375|-0.72418212890625|0.721893310546875|0.554840087890625|291244.71936175|-0.8192313026609368|-1.999386621380622|-0.7572225881968053|-1.166799902915955|-0.1690322905778885|2.38866114616394|-0.04920589923858643|-0.02816838026046753|0.1411330997943878|XArbitraryZVertical|0.4946047688889462|0.6374795279850149|-0.08521117323898672|-0.5845726748059709|-0.6610144972801208|0.6869056224822998|0.3020280599594116|0|0|0|-1|-1|3
2021-03-10 21:14:44.541 +0000|291244.759287375|-0.738555908203125|0.7208404541015625|0.5328521728515625|291244.759287375|-0.9266766916344614|-2.080022069741077|-0.8170096703002245|-0.9493016600608826|0.01218005362898111|1.989644646644592|-0.141765296459198|-0.002021253108978271|0.2074134051799774|XArbitraryZVertical|0.5336115156199297|0.6181284753277146|-0.09883374873452042|-0.5686895530309776|-0.5975687503814697|0.7291024923324585|0.3336481153964996|0|0|0|-1|-1|3
2021-03-10 21:14:44.561 +0000|291244.779250375|-0.662933349609375|0.59210205078125|0.448699951171875||||||||||||||||||||||||3
2021-03-10 21:14:44.581 +0000|291244.799213375|-0.6126251220703125|0.6370086669921875|0.392547607421875|291244.799213375|-1.027380991010318|-2.152257757174327|-0.86431820394459|-0.7770456671714783|0.1269417852163315|1.80417799949646|-0.08253848552703857|-0.1353475451469421|0.05579045414924622|XArbitraryZVertical|0.5659017309560027|0.5983553944798556|-0.1092126191610894|-0.5565956882589405|-0.5424768328666687|0.7606528401374817|0.3565478920936584|0|0|0|-1|-1|3
2021-03-10 21:14:44.601 +0000|291244.819176375|-0.556854248046875|0.6488189697265625|0.3581390380859375||||||||||||||||||||||||3
2021-03-10 21:14:44.621 +0000|291244.839139375|-0.5177459716796875|0.6918182373046875|0.400909423828125|291244.839139375|-1.138302460945495|-2.234827235475727|-0.9005065594221598|-1.036308407783508|0.05320392176508904|1.698240280151367|-0.05451750755310059|-0.1072502136230469|0.03128761053085327|XArbitraryZVertical|0.596756253460813|0.5790574921597016|-0.1170277693982526|-0.5430274709467463|-0.489214152097702|0.7836416959762573|0.3828512132167816|0|0|0|-1|-1|3
2021-03-10 21:14:44.641 +0000|291244.859102375|-0.4498748779296875|0.7574005126953125|0.3429107666015625||||||||||||||||||||||||3
2021-03-10 21:14:44.660 +0000|291244.879065375|-0.445098876953125|0.8199310302734375|0.3077239990234375|291244.859102375|-1.196597834993218|-2.281522717945596|-0.9135460280712736|-0.8945409655570984|-0.1499057859182358|1.61468517780304|0.0046977698802948|-0.05151712894439697|-0.03756147623062134|XArbitraryZVertical|0.6114064517226112|0.570496973512624|-0.1205168693472768|-0.5349682774636064|-0.4630259871482849|0.7916751503944397|0.3985692858695984|0|0|0|-1|-1|3
2021-03-10 21:14:44.680 +0000|291244.899027375|-0.418487548828125|0.7549896240234375|0.2486419677734375|291244.879065375|-1.250918813240025|-2.329076376539047|-0.9263892827625098|-0.7648131251335144|-0.2588754296302795|1.548009157180786|-0.01053264737129211|0.009351193904876709|-0.0915386974811554|XArbitraryZVertical|0.6242883571974635|0.5628634466668798|-0.1257579255291657|-0.5269095797163112|-0.436137855052948|0.7994561195373535|0.4131024181842804|0|0|0|-1|-1|3
2021-03-10 21:14:44.700 +0000|291244.918990375|-0.3953094482421875|0.8006744384765625|0.244232177734375|291244.899027375|-1.303620764229108|-2.376096218414616|-0.936802792125043|-0.7781000137329102|-0.1869111508131027|1.401126027107239|-0.01923924684524536|-0.04062312841415405|-0.18287193775177|XArbitraryZVertical|0.636161683704815|0.5557500025659751|-0.1307800110628363|-0.5189768066546164|-0.4104482531547546|0.8056682944297791|0.4271194934844971|0|0|0|-1|-1|3
2021-03-10 21:14:44.720 +0000|291244.938953375|-0.3915557861328125|0.9442138671875|0.2856903076171875|291244.918990375|-1.354680975965908|-2.420012662600411|-0.9418008220412168|-0.8625116348266602|-0.1200913265347481|1.137534499168396|-0.007985562086105347|-0.02433228492736816|-0.1837640404701233|XArbitraryZVertical|0.647354629324374|0.5493462841842306|-0.1336106776973598|-0.5111740961188258|-0.3886362016201019|0.8086189031600952|0.4416987001895905|0|0|0|-1|-1|3
2021-03-10 21:14:44.740 +0000|291244.958916375|-0.381378173828125|1.05584716796875|0.26513671875|291244.938953375|-1.397718809307044|-2.457494946445375|-0.9421666795519532|-0.694570779800415|-0.1560996174812317|0.7831425666809082|-0.02484500408172607|0.08118057250976562|-0.1861608028411865|XArbitraryZVertical|0.6566038287575097|0.5447317799782306|-0.135044823375078|-0.5038865465826033|-0.3716241419315338|0.8088340759277344|0.4557226002216339|0|0|0|-1|-1|3
2021-03-10 21:14:44.760 +0000|291244.978879375|-0.34429931640625|1.075637817382812|0.1512451171875|291244.958916375|-1.422673525154091|-2.481705016948205|-0.9411551744077714|-0.3062258064746857|-0.2425627410411835|0.3198795020580292|-0.02658867835998535|0.2453957796096802|-0.1850951910018921|XArbitraryZVertical|0.661773384885733|0.542836690720647|-0.1363960107064006|-0.4987790128696443|-0.360984593629837|0.8082388639450073|0.4652313590049744|0|0|0|-1|-1|3
2021-03-10 21:14:44.780 +0000|291244.998842375|-0.2513275146484375|1.07220458984375|0.014434814453125|291244.978879375|-1.429904977119486|-2.493312255029819|-0.9400368132512709|-0.03445937484502792|-0.3289622962474823|-0.02631164528429508|-0.002445071935653687|0.2490455508232117|-0.2830984592437744|XArbitraryZVertical|0.6629770965689874|0.5436142961333659|-0.1380317062826811|-0.4958751950598879|-0.3561059832572937|0.8075798153877258|0.4701102674007416|0|0|0|-1|-1|3
2021-03-10 21:14:44.800 +0000|291245.018805375|-0.14080810546875|0.954742431640625|-0.00604248046875|291244.998842375|-1.424516262092197|-2.496040374248717|-0.9406937389485263|0.2594045102596283|-0.3698914647102356|-0.167031928896904|0.08309477567672729|0.2781230211257935|-0.4270769357681274|XArbitraryZVertical|0.6612973503119799|0.5459064804196732|-0.1405105152168414|-0.4949028322974763|-0.3545028567314148|0.8079670667648315|0.470656156539917|0|0|0|-1|-1|3
2021-03-10 21:14:44.820 +0000|291245.038768375|-0.066925048828125|0.880279541015625|0.0457763671875|291245.018805375|-1.412329120125971|-2.493701707634157|-0.9437827115737848|0.4296040236949921|-0.3933287858963013|-0.2159150540828705|0.1832875907421112|0.1736912727355957|-0.4804216623306274|XArbitraryZVertical|0.6580280163474859|0.5485578360507415|-0.1438916606843146|-0.4953569629452536|-0.354094386100769|0.8097833395004272|0.4678331315517426|0|0|0|-1|-1|3
2021-03-10 21:14:44.840 +0000|291245.058730375|-0.0525360107421875|0.815460205078125|0.0876312255859375|291245.038768375|-1.394680642951834|-2.487671476045046|-0.9499506884728894|0.6999709010124207|-0.4309404790401459|-0.2214600145816803|0.2748695611953735|0.08352482318878174|-0.4317481517791748|XArbitraryZVertical|0.6534264803336516|0.551264125843702|-0.148569607215984|-0.4970602281756129|-0.353864312171936|0.8133867979049683|0.4617165923118591|0|0|0|-1|-1|3
2021-03-10 21:14:44.860 +0000|291245.078693375|-0.048004150390625|0.7518768310546875|0.1315155029296875|291245.058730375|-1.370505410207542|-2.476601087367209|-0.9610790659849749|1.04170560836792|-0.423742413520813|-0.2087418138980865|0.2979264855384827|0.01087856292724609|-0.3666963577270508|XArbitraryZVertical|0.6472793938447219|0.5534792401878463|-0.1551295207306428|-0.5006246335018951|-0.3533464074134827|0.8198099732398987|0.4506197571754456|0|0|0|-1|-1|3
2021-03-10 21:14:44.880 +0000|291245.098656375|-0.0586090087890625|0.712615966796875|0.1138763427734375|291245.078693375|-1.340372463536796|-2.459730531778635|-0.9761297780155904|1.138490676879883|-0.3661099672317505|-0.1799802184104919|0.3058397471904755|-0.05378395318984985|-0.319867879152298|XArbitraryZVertical|0.6399107268268851|0.5549745198119501|-0.1629062281072903|-0.5059438110204234|-0.3530809581279755|0.8283353447914124|0.4349649250507355|0|0|0|-1|-1|3
2021-03-10 21:14:44.900 +0000|291245.118619375|-0.079193115234375|0.638519287109375|0.1342926025390625|291245.098656375|-1.311642053216395|-2.442201990790348|-0.989694338365627|0.8779159188270569|-0.2670945823192596|-0.1818296015262604|0.2980103492736816|-0.1221588850021362|-0.3017401695251465|XArbitraryZVertical|0.6331296914881828|0.5560421331616749|-0.169733740442754|-0.5110327414730896|-0.3533845245838165|0.8358582258224487|0.4200721085071564|0|0|0|-1|-1|3
2021-03-10 21:14:44.920 +0000|291245.138582375|-0.10302734375|0.6072845458984375|0.1846160888671875|291245.118619375|-1.291114843339844|-2.428768591792999|-0.9972646658492152|0.4243808686733246|-0.117603562772274|-0.189800962805748|0.2828560471534729|-0.172540009021759|-0.2782554924488068|XArbitraryZVertical|0.6284608572024988|0.5570288012778331|-0.1736215209669524|-0.5144039986962716|-0.3548470139503479|0.839989960193634|0.4104882776737213|0|0|0|-1|-1|3
2021-03-10 21:14:44.940 +0000|291245.158545375|-0.1750946044921875|0.6193084716796875|0.32928466796875|291245.138582375|-1.279253095229749|-2.419906382873764|-0.9977727759946925|0.02506112679839134|0.01522239483892918|-0.250913679599762|0.2637673616409302|-0.242487370967865|-0.2461791634559631|XArbitraryZVertical|0.6259181941573231|0.5583277196615166|-0.1740906184604938|-0.5159350650437158|-0.3581887185573578|0.8402655124664307|0.4070068597793579|0|0|0|-1|-1|3
2021-03-10 21:14:44.960 +0000|291245.178508375|-0.1798095703125|0.7037811279296875|0.4165191650390625|291245.158545375|-1.274923364087741|-2.413201894400646|-0.9914519452055276|-0.306933730840683|0.3053274750709534|-0.3665812313556671|0.2096984088420868|-0.2181847095489502|-0.1159338057041168|XArbitraryZVertical|0.625335246911327|0.5596710245042823|-0.1707066487520798|-0.5163171577942725|-0.3644377291202545|0.8368217349052429|0.4085516631603241|0|0|0|-1|-1|3
2021-03-10 21:14:44.980 +0000|291245.198471375|-0.30560302734375|0.947357177734375|0.4207000732421875|291245.178508375|-1.274910016449526|-2.406314158154493|-0.9784348226266191|-0.6864249110221863|0.2326179891824722|-0.4632887244224548|0.1882241368293762|-0.1387370824813843|0.008180618286132812|XArbitraryZVertical|0.6259683018943956|0.561428238889468|-0.1635964268152538|-0.5159440222034204|-0.3745187222957611|0.8296245336532593|0.4140759706497192|0|0|0|-1|-1|3
2021-03-10 21:14:45.000 +0000|291245.218433375|-0.3486480712890625|0.817535400390625|0.460479736328125|291245.198471375|-1.280650017009624|-2.405970673516354|-0.9583098386506564|-1.040205478668213|0.4469568133354187|-0.6776956915855408|0.1428072452545166|0.06410306692123413|-0.03135904669761658|XArbitraryZVertical|0.6276482170354787|0.5649587299156534|-0.1543370528633253|-0.5128931375692669|-0.3857881724834442|0.8182210326194763|0.4262413084506989|0|0|0|-1|-1|3
2021-03-10 21:14:45.020 +0000|291245.238396375|-0.3227081298828125|0.7338104248046875|0.4241943359375|291245.218433375|-1.28781922073878|-2.398292541457073|-0.9303482132628428|-1.50157642364502|0.8384473323822021|-0.8861487507820129|0.04053232073783875|0.05832511186599731|0.0105266273021698|XArbitraryZVertical|0.6301905911141958|0.5681826420534501|-0.1394148704456057|-0.510481952770652|-0.4043780863285065|0.8018280863761902|0.4399434030056|0|0|0|-1|-1|3
2021-03-10 21:14:45.040 +0000|291245.258359375|-0.2816009521484375|0.855743408203125|0.3313446044921875|291245.238396375|-1.304747168196096|-2.391996383701372|-0.891470755918165|-2.015759468078613|1.125243544578552|-0.9655110239982605|0.1040156185626984|-0.03587013483047485|-0.0255436897277832|XArbitraryZVertical|0.6351512217889116|0.5714174381201724|-0.1182803012588281|-0.5060383596083561|-0.4280665218830109|0.7779965996742249|0.459869921207428|0|0|0|-1|-1|3
2021-03-10 21:14:45.060 +0000|291245.278322375|-0.30828857421875|0.907470703125|0.3246307373046875|291245.258359375|-1.330553442868039|-2.38791879208858|-0.8460218654607393|-2.4122154712677|1.240002274513245|-0.9007089734077454|0.1613398194313049|0.07201457023620605|-0.1328358054161072|XArbitraryZVertical|0.642218811123753|0.5738170452719387|-0.09317899002665644|-0.499606651984222|-0.4536830186843872|0.7486489415168762|0.4834220111370087|0|0|0|-1|-1|3
2021-03-10 21:14:45.080 +0000|291245.298285375|-0.349365234375|0.9579010009765625|0.265899658203125|291245.278322375|-1.360262884881424|-2.384115049214061|-0.7983731555742077|-2.356888771057129|1.304988741874695|-0.9036836624145508|0.1725564002990723|0.1898300051689148|-0.1924335360527039|XArbitraryZVertical|0.6501183044182882|0.5752160557461008|-0.06651983726898011|-0.4919836493564103|-0.479502260684967|0.7162216901779175|0.5070546269416809|0|0|0|-1|-1|3
2021-03-10 21:14:45.100 +0000|291245.318248375|-0.5621795654296875|0.8587799072265625|0.3019561767578125|291245.298285375|-1.386206622640414|-2.377709071549591|-0.7537505694836319|-2.20059871673584|1.232445955276489|-0.8364613056182861|0.1830101609230042|0.2531830072402954|-0.2105792760848999|XArbitraryZVertical|0.6567977547063462|0.5760975245112856|-0.04127351386337472|-0.4847938854979293|-0.5043604373931885|0.6843782067298889|0.5265433192253113|0|0|0|-1|-1|3
2021-03-10 21:14:45.120 +0000|291245.338211375|-0.6807403564453125|1.0257568359375|0.5537872314453125|291245.318248375|-1.411390433303711|-2.367920830566137|-0.711388227335523|-2.132454633712769|1.3495112657547|-0.747305154800415|-0.01836800575256348|0.200873851776123|-0.2715519666671753|XArbitraryZVertical|0.66304148256359|0.5755859011884756|-0.01611954291707215|-0.4783483195841108|-0.5292852520942688|0.652885913848877|0.5418462753295898|0|0|0|-1|-1|3
2021-03-10 21:14:45.140 +0000|291245.358174375|-0.934722900390625|1.126953125|0.8140869140625|291245.338211375|-1.43360487361877|-2.357849781273216|-0.6755881362351478|-1.516333699226379|1.034413695335388|-0.5337660908699036|-0.07207083702087402|0.3883309364318848|-0.0806041955947876|XArbitraryZVertical|0.6682858024685435|0.5742317553980321|0.00582126831655308|-0.4728829211875833|-0.550869345664978|0.6253563761711121|0.5526960492134094|0|0|0|-1|-1|3
2021-03-10 21:14:45.160 +0000|291245.378137375|-1.180389404296875|1.1492919921875|0.902191162109375|291245.358174375|-1.445273565549708|-2.349867165522003|-0.6552253567210745|-0.5760810375213623|0.4454789161682129|-0.2420470416545868|-0.3080902695655823|0.4670781493186951|0.2131193280220032|XArbitraryZVertical|0.6708309389272036|0.5731865434156224|0.01876840021042071|-0.470203071159276|-0.564208984375|0.6093379259109497|0.5571139454841614|0|0|0|-1|-1|3
2021-03-10 21:14:45.179 +0000|291245.398099375|-1.327438354492188|0.964324951171875|0.74932861328125|291245.378137375|-1.446743533340326|-2.349658083128389|-0.6544138841950216|0.386561781167984|-0.3668586611747742|0.3051039278507233|-0.5575000643730164|0.5572144389152527|0.3492886424064636|XArbitraryZVertical|0.6712186606375329|0.5728323991626427|0.01948311924479|-0.4700520722110745|-0.5646770000457764|0.608694314956665|0.5573428869247437|0|0|0|-1|-1|3
2021-03-10 21:14:45.199 +0000|291245.418062375|-1.257003784179688|1.048431396484375|0.5427398681640625|291245.398099375|-1.4470515245788|-2.367137959457283|-0.6739527348826053|0.8345217108726501|-1.434760332107544|1.069678068161011|-0.7610076665878296|0.3991902470588684|0.2517687678337097|XArbitraryZVertical|0.6721135242910568|0.5722960888059798|0.00648204258943319|-0.4697857128725098|-0.5464264154434204|0.6240793466567993|0.5585188269615173|0|0|0|-1|-1|3
2021-03-10 21:14:45.220 +0000|291245.438025375|-1.047195434570312|1.316864013671875|0.3800201416015625|291245.418062375|-1.45956844970454|-2.419125630641087|-0.7054703317958005|1.1302410364151|-2.987837314605713|1.766994595527649|-0.804395854473114|0.3410946726799011|-0.007866799831390381|XArbitraryZVertical|0.6762827680017925|0.5728864442854176|-0.01973837071869855|-0.4626587483440888|-0.503404438495636|0.6483919620513916|0.5711145401000977|0|0|0|-1|-1|3
2021-03-10 21:14:45.239 +0000|291245.457988375|-0.64825439453125|1.206024169921875|0.32525634765625|291245.438025375|-1.468499057786391|-2.496397986309871|-0.7616000296192788|2.991464138031006|-4.015858173370361|2.216620683670044|-0.6957923173904419|0.5684798359870911|-0.161471426486969|XArbitraryZVertical|0.6774151219082019|0.5746597258374877|-0.06446188653135629|-0.4546643570878383|-0.4352196753025055|0.6900803446769714|0.5782501101493835|0|0|0|-1|-1|3
2021-03-10 21:14:45.259 +0000|291245.477951375|-0.33648681640625|1.278839111328125|0.408935546875|291245.457988375|-1.457051399207905|-2.571934172604314|-0.8540975601962625|4.984251499176025|-4.308178901672363|2.444151639938354|-0.3888079226016998|0.4892926216125488|-0.2242620587348938|XArbitraryZVertical|0.6684042482923183|0.5742982387474388|-0.1263201470372897|-0.4554785048744362|-0.3542951643466949|0.753978431224823|0.5531654357910156|0|0|0|-1|-1|3
2021-03-10 21:14:45.279 +0000|291245.497914375|0.02496337890625|1.271575927734375|0.3153839111328125|291245.477951375|-1.441172361344121|-2.64149621186797|-0.9754496050385904|5.931373596191406|-3.941004991531372|2.969379186630249|-0.1502668857574463|0.438418447971344|-0.06513190269470215|XArbitraryZVertical|0.651897191763356|0.5666474846517645|-0.1969402515723468|-0.4638482261974378|-0.2689072787761688|0.827954113483429|0.492118626832962|0|0|0|-1|-1|3
2021-03-10 21:14:45.299 +0000|291245.517877375|0.29046630859375|1.13604736328125|0.6630859375|291245.497914375|-1.446546854888949|-2.719805945498564|-1.112129246488359|6.40708065032959|-3.250938892364502|3.32125997543335|0.132431298494339|0.4520809650421143|-0.07620656490325928|XArbitraryZVertical|0.6325067243247412|0.5494636785549081|-0.2692582723087394|-0.4748946879586375|-0.181259423494339|0.8966434597969055|0.4039501845836639|0|0|0|-1|-1|3
2021-03-10 21:14:45.319 +0000|291245.537840375|0.0326080322265625|1.126022338867188|1.011062622070312|291245.517877375|-1.468358334827442|-2.794255623944573|-1.269331073665023|8.318831443786621|-2.401312589645386|3.133647918701172|0.3344684243202209|0.1651688814163208|0.3660907447338104|XArbitraryZVertical|0.607456492195519|0.5201833746837554|-0.3403164266532633|-0.4945609809106591|-0.1010699570178986|0.9549024701118469|0.2791882753372192|0|0|0|-1|-1|3
2021-03-10 21:14:45.339 +0000|291245.557802375|-0.1794891357421875|-0.8794708251953125|0.7600250244140625|291245.537840375|-1.307605705902542|-2.672063601721282|-1.464366376872469|10.45787525177002|-0.9012417197227478|1.211723685264587|0.2310025095939636|0.2954836487770081|0.8575989007949829|XArbitraryZVertical|0.5633608137597222|0.4795737172310487|-0.4108603511086085|-0.5327545071470861|-0.04806487634778023|0.9943416714668274|0.09473271667957306|0|0|0|-1|-1|3
2021-03-10 21:14:45.359 +0000|291245.577765375|0.3756103515625|-2.030471801757812|0.2234039306640625|291245.557802375|1.005868568828326|-0.3520002662098881|-1.463819927691519|8.490484237670898|1.543737053871155|0.1051513031125069|-0.2417210340499878|-1.339238882064819|1.001456499099731|XArbitraryZVertical|0.5137119192164707|0.4312618274251611|-0.4555427762620032|-0.5853154627639165|-0.036812923848629|0.9942834973335266|-0.100226603448391|0|0|0|-1|-1|3
2021-03-10 21:14:45.379 +0000|291245.597728375|0.3372955322265625|-1.043106079101562|0.09722900390625|291245.577765375|1.166053749911954|-0.1602547626436509|-1.347821127992584|3.049920558929443|1.420535326004028|-0.5422014594078064|0.2770920693874359|-2.902917146682739|0.5554267168045044|XArbitraryZVertical|0.4848489232204387|0.3946797095360166|-0.4705130508300386|-0.6227093813782901|-0.03528602421283722|0.975243866443634|-0.2182988971471786|0|0|0|-1|-1|3
2021-03-10 21:14:45.399 +0000|291245.617691375|-0.098785400390625|0.1071319580078125|0.1207427978515625|291245.597728375|1.081795624040295|-0.2235512319932342|-1.340695670674031|-2.214138984680176|0.6000108122825623|-1.377977967262268|0.5148573517799377|-2.38233494758606|0.3167909383773804|XArbitraryZVertical|0.4842427372271557|0.3928218252696243|-0.4603699355439339|-0.631869803029698|-0.05056290328502655|0.97364342212677|-0.222399964928627|0|0|0|-1|-1|3
2021-03-10 21:14:45.419 +0000|291245.637654375|-0.2423858642578125|0.7439422607421875|-0.0579833984375|291245.617691375|0.8144423840759569|-0.4716993416157959|-1.396385525108328|-4.394906044006348|0.9700678586959839|-1.782989859580994|0.05613100528717041|-1.128841400146484|0.2923959493637085|XArbitraryZVertical|0.5030343049646409|0.4119068295578197|-0.4329116732612932|-0.6244011555183344|-0.0788513571023941|0.9848289489746094|-0.1545785069465637|0|0|0|-1|-1|3
2021-03-10 21:14:45.440 +0000|291245.657617375|-0.3541107177734375|0.904510498046875|-0.1287078857421875|291245.637654375|0.1740195766212332|-1.078567101971846|-1.436948793561561|-4.961024761199951|1.67830502986908|-2.459315538406372|-0.1010063290596008|-0.3503086566925049|0.05847418308258057|XArbitraryZVertical|0.5290868800782386|0.4342045312023916|-0.3928743369811855|-0.6141525842282389|-0.1176063567399979|0.9910557866096497|-0.0630669966340065|0|0|0|-1|-1|3
2021-03-10 21:14:45.464 +0000|291245.677580375|-0.49407958984375|0.8819580078125|0.0546417236328125|291245.657617375|-0.5439837072560024|-1.750739030403806|-1.393539012134789|-5.178403854370117|2.116183996200562|-3.237546443939209|-0.1472405195236206|-0.08413875102996826|-0.1663697957992554|XArbitraryZVertical|0.5542461551970056|0.4567170495355958|-0.3425961027786276|-0.6056803865791186|-0.1734839677810669|0.9843310117721558|0.03155852854251862|0|0|0|-1|-1|3
2021-03-10 21:14:45.481 +0000|291245.697543375|-0.6304473876953125|0.554168701171875|0.1988067626953125|291245.677580375|-0.8955470436139608|-2.04882827002085|-1.291536272964701|-5.659313678741455|2.351151704788208|-3.633687973022461|-0.2123319804668427|-0.08960139751434326|-0.1252641826868057|XArbitraryZVertical|0.577309175180004|0.4797048891557537|-0.2838355401618567|-0.5966864034498138|-0.2447450459003448|0.961259663105011|0.1268053352832794|0|0|0|-1|-1|3
2021-03-10 21:14:45.500 +0000|291245.717505375|-0.7624359130859375|0.2752838134765625|0.4440460205078125|291245.717505375|-1.17632770215554|-2.208143772454242|-1.040389450307353|-5.268123149871826|2.702927350997925|-3.994340419769287|-0.3183774352073669|-0.5875312089920044|0.0942445695400238|XArbitraryZVertical|0.6160218238364263|0.5206095614378436|-0.1526662077231569|-0.5711180248385249|-0.4065675735473633|0.8626012802124023|0.3010343909263611|0|0|0|-1|-1|3
2021-03-10 21:14:45.519 +0000|291245.737468375|-1.0118408203125|0.6123809814453125|0.4867706298828125||||||||||||||||||||||||3
2021-03-10 21:14:45.539 +0000|291245.757430625|-1.2730712890625|0.8705902099609375|0.294891357421875|291245.737468375|-1.225972081808703|-2.192861625532129|-0.9203499201425113|-3.937732219696045|3.005641937255859|-4.09978199005127|-0.4482284784317017|-0.2547674775123596|0.1542524993419647|XArbitraryZVertical|0.6244715823810363|0.5352236118420897|-0.08768820866211532|-0.5620335498779462|-0.4921096563339233|0.7958135604858398|0.3528581559658051|0|0|0|-1|-1|3
2021-03-10 21:14:45.559 +0000|291245.777393625|-1.561538696289062|1.135238647460938|0.1763916015625|291245.757430625|-1.221505349972977|-2.126766922215827|-0.8198081177529486|-1.348102450370789|3.257293939590454|-4.438763618469238|-0.6323086023330688|0.05069291591644287|-0.01779747009277344|XArbitraryZVertical|0.618345767102668|0.5456306541587843|-0.02975969802614012|-0.5648452211450001|-0.5795901417732239|0.7310149073600769|0.3601286113262177|0|0|0|-1|-1|3
2021-03-10 21:14:45.579 +0000|291245.797356625|-1.837066650390625|1.1387939453125|0.3736572265625|291245.777393625|-1.159563873879582|-2.017791756653073|-0.7387599446328976|1.088621258735657|3.288124084472656|-4.706333160400391|-0.8154797554016113|0.4153124094009399|-0.1369529068470001|XArbitraryZVertical|0.5932620644579878|0.5548199992977916|0.0166027158775211|-0.5830430855033897|-0.6666674613952637|0.6733716726303101|0.3195702135562897|0|0|0|-1|-1|3
2021-03-10 21:14:45.599 +0000|291245.817319625|-1.740936279296875|0.74267578125|0.83917236328125|291245.797356625|-1.067352027551601|-1.892361883679718|-0.666432246583139|2.561318635940552|3.352226972579956|-4.587973594665527|-1.045121431350708|0.5457853674888611|0.03836177289485931|XArbitraryZVertical|0.5546307342155417|0.5626707581555119|0.05268732771963164|-0.6107458113984042|-0.7457416653633118|0.6181855797767639|0.2484272718429565|0|0|0|-1|-1|3
2021-03-10 21:14:45.619 +0000|291245.837282625|-1.410171508789062|0.430908203125|0.88134765625|291245.817319625|-0.970000416377315|-1.767063559858959|-0.5968830055651999|3.168202877044678|3.365617275238037|-4.070436000823975|-0.9858912825584412|0.2966975569725037|0.5590461492538452|XArbitraryZVertical|0.5094697486890285|0.5666445046346145|0.08162992512883516|-0.6424105324891579|-0.8112127780914307|0.5620671510696411|0.1612908393144608|0|0|0|-1|-1|3
2021-03-10 21:14:45.638 +0000|291245.857245625|-1.141372680664062|0.0365753173828125|0.5409698486328125|291245.837282625|-0.8797555865915706|-1.658117288614971|-0.5326813508594166|3.507478475570679|2.5904221534729|-3.413043260574341|-0.6432222723960876|0.005124986171722412|0.8557660579681396|XArbitraryZVertical|0.4637766452261594|0.5678685622861827|0.101949197593156|-0.6723414218439113|-0.8581664562225342|0.5078449845314026|0.07512696087360382|0|0|0|-1|-1|3
2021-03-10 21:14:45.658 +0000|291245.877207625|-1.105667114257812|-0.32598876953125|0.16552734375|291245.857245625|-0.798466800181335|-1.579936159507529|-0.4755570966032454|3.189107179641724|1.319253087043762|-2.509991407394409|-0.2893134355545044|-0.3226408958435059|0.6348189115524292|XArbitraryZVertical|0.4210993813710079|0.5716100799229417|0.1117472685851597|-0.6953056146586558|-0.8890008330345154|0.4578337967395782|0.008125544525682926|0|0|0|-1|-1|3
2021-03-10 21:14:45.678 +0000|291245.897170625|-1.14727783203125|-0.1188507080078125|0.0146484375|291245.877207625|-0.744111377871205|-1.540436946745418|-0.4369660618898388|1.625940084457397|0.2959173619747162|-1.309512376785278|-0.2089712023735046|-0.6642508506774902|0.2765260934829712|XArbitraryZVertical|0.3920358639159849|0.5766771958183379|0.1141298557071572|-0.7076198503146803|-0.9056224822998047|0.42319256067276|-0.02750258706510067|0|0|0|-1|-1|3
2021-03-10 21:14:45.699 +0000|291245.917133625|-1.1988525390625|0.193695068359375|-0.0413665771484375|291245.897170625|-0.7248283905766352|-1.533969817138462|-0.4188125544482612|0.3340849578380585|-0.4097900986671448|-0.5507972836494446|-0.2014573216438293|-0.6697221398353577|0.06461155414581299|XArbitraryZVertical|0.3806113899829917|0.5816501746673141|0.1147986571081057|-0.7096756095218603|-0.91295325756073|0.4066759347915649|-0.03363608941435814|0|0|0|-1|-1|3
2021-03-10 21:14:45.718 +0000|291245.937096625|-1.154388427734375|0.3087615966796875|0.12359619140625|291245.917133625|-0.724271187515996|-1.544487502992673|-0.4111397939786812|-0.0433894656598568|-0.6360219120979309|-0.3266490995883942|-0.2922694683074951|-0.2251091599464417|-0.02060985192656517|XArbitraryZVertical|0.3787273078876982|0.5869487342027803|0.1152486842666701|-0.7062397207482239|-0.9163486957550049|0.3996543884277344|-0.0241136197000742|0|0|0|-1|-1|3
2021-03-10 21:14:45.738 +0000|291245.957059625|-1.113800048828125|0.4669647216796875|0.2782440185546875|291245.937096625|-0.7260339908342481|-1.558743792247899|-0.4054921932259309|-0.1569079011678696|-0.6665550470352173|-0.2379544675350189|-0.2406432032585144|-0.1155709326267242|0.07995313405990601|XArbitraryZVertical|0.3783648461061241|0.5927078448659256|0.1151263070337748|-0.7016291612749318|-0.9188417196273804|0.3944710791110992|-0.01107490807771683|0|0|0|-1|-1|3
2021-03-10 21:14:45.759 +0000|291245.977022625|-1.036773681640625|0.498931884765625|0.35528564453125|291245.957059625|-0.732457751993818|-1.574243820547916|-0.4012334924348322|-0.4239462614059448|-0.616480827331543|-0.2822096347808838|-0.1995427012443542|0.02527830004692078|0.2467653751373291|XArbitraryZVertical|0.3798981082968937|0.5977158781909886|0.1159162072422825|-0.6964026290192382|-0.9205744862556458|0.3905541598796844|0.003173687495291233|0|0|0|-1|-1|3
2021-03-10 21:14:45.779 +0000|291245.996985625|-1.003494262695312|0.4812774658203125|0.378387451171875|291245.977022625|-0.7429078694275065|-1.589747832205017|-0.3943204554797725|-0.6330214738845825|-0.5249330401420593|-0.3659659028053284|-0.1372564435005188|0.1189166009426117|0.3139859437942505|XArbitraryZVertical|0.3818969405247757|0.602414114507229|0.1190078412603154|-0.6907163077165122|-0.9230919480323792|0.384180873632431|0.01749607734382153|0|0|0|-1|-1|3
2021-03-10 21:14:45.799 +0000|291246.016948625|-0.94036865234375|0.4609375|0.373321533203125|291245.996985625|-0.7572571410224976|-1.604654243885807|-0.3844548648214913|-0.7452149391174316|-0.3793004155158997|-0.5828161239624023|-0.0842856764793396|0.1021647453308105|0.3412545919418335|XArbitraryZVertical|0.3842505074683917|0.6066644419123381|0.1245567587825461|-0.6846863613970903|-0.9264717102050781|0.3750538527965546|0.03138039633631706|0|0|0|-1|-1|3
2021-03-10 21:14:45.819 +0000|291246.036911625|-0.8761444091796875|0.3779754638671875|0.3393707275390625|291246.016948625|-0.7743247171152521|-1.61560565215752|-0.3696415513916206|-0.9230623245239258|-0.07707861065864563|-0.8249306082725525|-0.03011846542358398|0.1145183444023132|0.3353065252304077|XArbitraryZVertical|0.3858447441378678|0.6099247711499287|0.1334923004006665|-0.6791873503639217|-0.9315209984779358|0.3612812161445618|0.04176878556609154|0|0|0|-1|-1|3
2021-03-10 21:14:45.838 +0000|291246.056873625|-0.809112548828125|0.334808349609375|0.3338623046875|291246.036911625|-0.7958569809118625|-1.621031788651883|-0.3505523225577527|-1.132036328315735|0.2887739539146423|-1.00680410861969|0.04789215326309204|0.0570962131023407|0.3002669811248779|XArbitraryZVertical|0.3872837827480674|0.6112213245692935|0.14646094234928|-0.6745140353151967|-0.9379985928535461|0.3434166014194489|0.04716047272086143|0|0|0|-1|-1|3
2021-03-10 21:14:45.859 +0000|291246.076836625|-0.8049468994140625|0.345458984375|0.3430328369140625|291246.056873625|-0.8195754595245188|-1.619927921149033|-0.3277491497232017|-1.215128064155579|0.6068655848503113|-1.156609058380127|0.1230560541152954|0.01942631602287292|0.2856405973434448|XArbitraryZVertical|0.3878676514023927|0.6105796215518591|0.1626613370336685|-0.6710384366943822|-0.9456269145011902|0.3219127953052521|0.04649757966399193|0|0|0|-1|-1|3
2021-03-10 21:14:45.879 +0000|291246.096799625|-0.8922271728515625|0.444091796875|0.333221435546875|291246.076836625|-0.8447512882287574|-1.613302300314134|-0.3021523379665869|-1.246019124984741|0.8271452188491821|-1.294583439826965|0.1552214026451111|0.03671377897262573|0.3063404560089111|XArbitraryZVertical|0.3875704852807902|0.6083364171339207|0.1812975491525632|-0.668466189009389|-0.9538357853889465|0.2975757420063019|0.04056815430521965|0|0|0|-1|-1|3
2021-03-10 21:14:45.899 +0000|291246.116762625|-1.025726318359375|0.465301513671875|0.4127960205078125|291246.096799625|-0.868886303666386|-1.601577303500977|-0.2746150224929188|-1.198056697845459|1.048858642578125|-1.355527281761169|0.09961646795272827|0.1529569029808044|0.2971594333648682|XArbitraryZVertical|0.3857599067908268|0.604979964723678|0.2011155682499824|-0.6668891381689954|-0.962073802947998|0.2711763978004456|0.02962292730808258|0|0|0|-1|-1|3
2021-03-10 21:14:45.918 +0000|291246.136725625|-1.091903686523438|0.514495849609375|0.4962158203125|291246.116762625|-0.8927699881224996|-1.583843324016092|-0.2468528805268314|-1.159514546394348|1.347912430763245|-1.380156636238098|-0.02645951509475708|0.2165077477693558|0.3759292364120483|XArbitraryZVertical|0.3829210707512225|0.5997474643748397|0.2219237420611582|-0.6666515610119711|-0.9696037173271179|0.2443534582853317|0.01265113521367311|0|0|0|-1|-1|3
2021-03-10 21:14:45.938 +0000|291246.156688625|-1.119247436523438|0.5858917236328125|0.509002685546875|291246.136725625|-0.9148092032137645|-1.560068337591402|-0.219190471099208|-0.9803131818771362|1.52033543586731|-1.376796841621399|-0.1024736166000366|0.2803173959255219|0.4890325665473938|XArbitraryZVertical|0.3784915106201855|0.5928816261254619|0.2430433903582944|-0.6679561380803093|-0.9760175347328186|0.2174395322799683|-0.01047110743820667|0|0|0|-1|-1|3
2021-03-10 21:14:45.958 +0000|291246.176651625|-1.146713256835938|0.6064605712890625|0.4132843017578125|291246.156688625|-0.9339053077769303|-1.533407742436137|-0.1934223551123201|-0.8538371920585632|1.521625876426697|-1.234111905097961|-0.1337440609931946|0.3748743236064911|0.5532386898994446|XArbitraryZVertical|0.3729489926791789|0.585292781338835|0.2628774511123108|-0.6702513057607518|-0.9806662797927856|0.1922185570001602|-0.03668281808495522|0|0|0|-1|-1|3
2021-03-10 21:14:45.978 +0000|291246.196614625|-1.17242431640625|0.5475006103515625|0.2632904052734375|291246.176651625|-0.9515998008494017|-1.508560392113721|-0.1719171192504243|-0.7408719658851624|1.267670512199402|-0.9779937863349915|-0.1523452401161194|0.4363045692443848|0.5021359324455261|XArbitraryZVertical|0.3681149540380631|0.5777992082176232|0.280318882857161|-0.6723546167223027|-0.9833510518074036|0.1710715144872665|-0.06127890944480896|0|0|0|-1|-1|3
2021-03-10 21:14:45.998 +0000|291246.216576625|-1.08538818359375|0.45489501953125|0.0352020263671875|291246.196614625|-0.9653337807310906|-1.487825761441297|-0.156256891108422|-0.4572506248950958|1.040580272674561|-0.6709163188934326|-0.1891196370124817|0.4244715571403503|0.3896050453186035|XArbitraryZVertical|0.3642155298670045|0.5713266933035459|0.2936712753355125|-0.6743071573856521|-0.9844186305999756|0.1556217968463898|-0.08186571300029755|0|0|0|-1|-1|3
2021-03-10 21:14:46.018 +0000|291246.236539625|-0.9904937744140625|0.4110107421875|-0.1422271728515625|291246.216576625|-0.9723593712171883|-1.470877311504189|-0.1462991410683089|-0.173006996512413|0.7116936445236206|-0.3606062829494476|-0.1357190608978271|0.3312424421310425|0.2017604112625122|XArbitraryZVertical|0.3605615124657703|0.5662612362730144|0.3022061541625611|-0.6767681230964951|-0.9843829274177551|0.1457778215408325|-0.09868721663951874|0|0|0|-1|-1|3
2021-03-10 21:14:46.038 +0000|291246.256502625|-0.86114501953125|0.3711090087890625|-0.241973876953125|291246.236539625|-0.9738866882518921|-1.461399157175499|-0.1418108507171316|0.05409229919314384|0.2711991369724274|-0.1011630669236183|-0.03094035387039185|0.2800354361534119|-0.004694506525993347|XArbitraryZVertical|0.3581324726253849|0.5636484500070952|0.3058067310696028|-0.6786189961951807|-0.9840437173843384|0.1413360238075256|-0.108083114027977|0|0|0|-1|-1|3
2021-03-10 21:14:46.058 +0000|291246.276465625|-0.777496337890625|0.445465087890625|-0.2087860107421875|291246.256502625|-0.9732327939603308|-1.459806818922464|-0.1424930366506196|-0.06289241462945938|-0.1547086387872696|0.1953327655792236|0.08149164915084839|0.2429526597261429|-0.1241253763437271|XArbitraryZVertical|0.3579212744682144|0.5630921328351955|0.3056607789468311|-0.6792578672731426|-0.9837745428085327|0.1420113295316696|-0.1096392199397087|0|0|0|-1|-1|3
2021-03-10 21:14:46.078 +0000|291246.296428625|-0.755035400390625|0.482574462890625|-0.1706695556640625|291246.276465625|-0.9746381375284234|-1.467651829195584|-0.1491522068499355|-0.2290560603141785|-0.5741956830024719|0.4693396687507629|0.1915275454521179|0.2724054455757141|-0.1223176717758179|XArbitraryZVertical|0.3616178396525147|0.5642014270649378|0.3026807375356943|-0.677712158945198|-0.9836418628692627|0.1485998034477234|-0.1018185764551163|0|0|0|-1|-1|3
2021-03-10 21:14:46.098 +0000|291246.316391625|-0.7588653564453125|0.6563873291015625|-0.2092132568359375|291246.296428625|-0.9789552856223548|-1.483046026926751|-0.1613768548494928|-0.2539778053760529|-0.8923994898796082|0.6849167943000793|0.22232985496521|0.2925087213516235|-0.09540087729692459|XArbitraryZVertical|0.3689807841889645|0.5662187291150464|0.2975442117490094|-0.6743271682877831|-0.9832095503807068|0.1606773287057877|-0.08649906516075134|0|0|0|-1|-1|3
2021-03-10 21:14:46.118 +0000|291246.336354625|-0.8134765625|0.5641937255859375|-0.1202392578125|291246.316391625|-0.9808091959712181|-1.503972738315623|-0.1771920004421383|-0.03169186785817146|-1.126861691474915|0.8727518916130066|0.2340834736824036|0.4550966322422028|-0.1556766033172607|XArbitraryZVertical|0.3774662839548415|0.5697850702899578|0.2893087654361192|-0.6701974329849045|-0.9821456074714661|0.1762662380933762|-0.06572835892438889|0|0|0|-1|-1|3
2021-03-10 21:14:46.138 +0000|291246.356317625|-0.83740234375|0.5777435302734375|-0.0972137451171875|291246.336354625|-0.9770907418132911|-1.52517327753709|-0.196006102826449|0.2386229187250137|-1.051440954208374|1.030156254768372|0.1743354201316833|0.387704998254776|-0.08978748321533203|XArbitraryZVertical|0.385134396104714|0.5738506105352412|0.2780455309205623|-0.66712642665488|-0.9798316359519958|0.1947534680366516|-0.04473394900560379|0|0|0|-1|-1|3
2021-03-10 21:14:46.158 +0000|291246.376280625|-0.8696136474609375|0.5695953369140625|-0.0531463623046875|291246.356317625|-0.9687837137050395|-1.543300708862309|-0.2173355013406388|0.4989255368709564|-0.9320083856582642|1.116944909095764|0.1433579325675964|0.3607264161109924|-0.08321613073348999|XArbitraryZVertical|0.3915981112288088|0.5772592233720748|0.2648786531732904|-0.6657793415389464|-0.9761064648628235|0.2156285792589188|-0.0268454160541296|0|0|0|-1|-1|3
2021-03-10 21:14:46.178 +0000|291246.396242625|-0.94891357421875|0.6111297607421875|-0.0712738037109375|291246.376280625|-0.9554391395254188|-1.557560971462712|-0.2395264177858993|0.7511481642723083|-0.8118866682052612|1.13285768032074|0.1131348013877869|0.3265238702297211|-0.04410386085510254|XArbitraryZVertical|0.3961440000808373|0.5802080422168056|0.2503695740270749|-0.6661409387062344|-0.9713654518127441|0.2372425943613052|-0.01285711769014597|0|0|0|-1|-1|3
2021-03-10 21:14:46.198 +0000|291246.416205625|-1.088592529296875|0.5765533447265625|-0.0778350830078125|291246.396242625|-0.9371406590613577|-1.568732489133128|-0.2621816284251412|0.9877484440803528|-0.7448541522026062|1.142658114433289|0.04431605339050293|0.3462347090244293|-0.07115721702575684|XArbitraryZVertical|0.3988229032749483|0.5830468570712277|0.2345417014644714|-0.6678225368780319|-0.9658248424530029|0.2591882348060608|-0.00199330854229629|0|0|0|-1|-1|3
2021-03-10 21:14:46.218 +0000|291246.436168625|-1.224411010742188|0.549468994140625|-0.1080169677734375|291246.416205625|-0.9170884749385623|-1.576980701837337|-0.2847296216040061|0.9382069706916809|-0.6284655928611755|1.087646842002869|-0.08927667140960693|0.3103037774562836|-0.07281458377838135|XArbitraryZVertical|0.4004708208104258|0.585312558950034|0.2186288440372379|-0.6702490639445988|-0.9597193598747253|0.2808979749679565|0.005935340188443661|0|0|0|-1|-1|3
2021-03-10 21:14:46.238 +0000|291246.456131625|-1.257476806640625|0.518951416015625|-0.13360595703125|291246.436168625|-0.8978046618235328|-1.58323253418202|-0.3046586818508049|0.9315007925033569|-0.5484658479690552|0.8962922692298889|-0.2425660490989685|0.2553150057792664|-0.1171640157699585|XArbitraryZVertical|0.4012582146201484|0.5873018383122177|0.2041570026647956|-0.6725982655545093|-0.953875720500946|0.2999675869941711|0.01186320837587118|0|0|0|-1|-1|3
2021-03-10 21:14:46.258 +0000|291246.476094625|-1.145278930664062|0.49664306640625|-0.2435455322265625|291246.456131625|-0.878372602977972|-1.586967765785573|-0.3208160415078719|0.9589557647705078|-0.4321283996105194|0.7066751718521118|-0.3179455399513245|0.209195077419281|-0.129084587097168|XArbitraryZVertical|0.4005859830162805|0.5892399427193779|0.1913498489295|-0.6750648328558184|-0.9488544464111328|0.3153410851955414|0.01534567959606647|0|0|0|-1|-1|3
2021-03-10 21:14:46.278 +0000|291246.496057625|-1.000640869140625|0.376800537109375|-0.2170867919921875|291246.476094625|-0.8587478427173384|-1.588560742781334|-0.3342547512451732|0.8926070928573608|-0.3643154501914978|0.6299148797988892|-0.2340674996376038|0.1852404177188873|-0.2591203451156616|XArbitraryZVertical|0.3988307632732831|0.5910365520948441|0.1797827726020623|-0.6777080505101376|-0.9445062875747681|0.3280652463436127|0.01678036712110043|0|0|0|-1|-1|3
2021-03-10 21:14:46.298 +0000|291246.516020625|-0.8587799072265625|0.32037353515625|-0.1911163330078125|291246.496057625|-0.8427892029614998|-1.589635377924429|-0.3474791345142225|0.638530969619751|-0.2883062660694122|0.6745230555534363|-0.0981406569480896|0.0618150532245636|-0.2353328466415405|XArbitraryZVertical|0.3980332027964364|0.5919675714756248|0.1695922494319594|-0.6799871323151321|-0.9400673508644104|0.3405286967754364|0.0177120715379715|0|0|0|-1|-1|3
2021-03-10 21:14:46.318 +0000|291246.535983625|-0.7542266845703125|0.313690185546875|-0.1580047607421875|291246.516020625|-0.8312537031124144|-1.59149505815107|-0.3616391201159057|0.499659925699234|-0.3123902976512909|0.7111685276031494|0.04400455951690674|-0.02231064438819885|-0.2187297344207764|XArbitraryZVertical|0.3988674196160578|0.5921013766609359|0.1603929740666055|-0.6816119610555573|-0.9351178407669067|0.353807806968689|0.01935851760208607|0|0|0|-1|-1|3
2021-03-10 21:14:46.338 +0000|291246.555946625|-0.745025634765625|0.316253662109375|-0.1315155029296875|291246.535983625|-0.8209444389945318|-1.594974930052172|-0.3763695832816602|0.5264049172401428|-0.4200954437255859|0.7426456809043884|0.1605530381202698|-0.05484828352928162|-0.1902390718460083|XArbitraryZVertical|0.4003338395030472|0.5924312897085083|0.1510611032350206|-0.6825968571103053|-0.9297332167625427|0.3675465881824493|0.02248403243720531|0|0|0|-1|-1|3
2021-03-10 21:14:46.358 +0000|291246.575908625|-0.7907562255859375|0.281402587890625|-0.167999267578125|291246.555946625|-0.8090558121868582|-1.599761468096612|-0.3920503787922671|0.5822129249572754|-0.4987744688987732|0.8077999353408813|0.1813541650772095|-0.0716133713722229|-0.1584775447845459|XArbitraryZVertical|0.4016630047318211|0.5933369241427954|0.1405656284822119|-0.6832712714029572|-0.9237401485443115|0.3820840418338776|0.02676375024020672|0|0|0|-1|-1|3
2021-03-10 21:14:46.378 +0000|291246.595871625|-0.8195953369140625|0.2987213134765625|-0.1247711181640625|291246.575908625|-0.7959205583455005|-1.604696720812185|-0.4089036923885401|0.6880702376365662|-0.5050092339515686|0.8212078809738159|0.1389691829681396|-0.1064354479312897|-0.1979696750640869|XArbitraryZVertical|0.4029162647619821|0.5943132862985609|0.1291681513522073|-0.6839340916913222|-0.9170301556587219|0.3976036310195923|0.03109959699213505|0|0|0|-1|-1|3
2021-03-10 21:14:46.397 +0000|291246.615834625|-0.804595947265625|0.2775115966796875|-0.0562744140625|291246.595871625|-0.7821876432161688|-1.608758054346331|-0.4256299000885171|0.6040223240852356|-0.4521124660968781|0.7875685691833496|0.09594422578811646|-0.1114419102668762|-0.1760001182556152|XArbitraryZVertical|0.4038482596113675|0.5951384722640428|0.1177517684692479|-0.6847272029889026|-0.9101226925849915|0.4128945767879486|0.03456643596291542|0|0|0|-1|-1|3
2021-03-10 21:14:46.417 +0000|291246.635797625|-0.7846832275390625|0.29266357421875|-0.0053253173828125|291246.615834625|-0.770223121539609|-1.612458541680327|-0.4405674777918725|0.508030116558075|-0.4297616481781006|0.6689812541007996|0.09165221452713013|-0.1511232256889343|-0.109343409538269|XArbitraryZVertical|0.4047347957595562|0.5958407826665176|0.1076167435272083|-0.685260716555363|-0.9037250280380249|0.4264528155326843|0.0376729853451252|0|0|0|-1|-1|3
2021-03-10 21:14:46.437 +0000|291246.655760625|-0.779998779296875|0.34332275390625|0.018402099609375|291246.635797625|-0.7614386948247339|-1.617198064973403|-0.4530658010885695|0.3263128399848938|-0.4228875637054443|0.5532564520835876|0.1090027689933777|-0.1525221168994904|-0.06111443787813187|XArbitraryZVertical|0.405895103080012|0.5967426546249256|0.0992052113478385|-0.6850588187310162|-0.8981414437294006|0.4377240836620331|0.04170526191592216|0|0|0|-1|-1|3
2021-03-10 21:14:46.457 +0000|291246.675723625|-0.8494415283203125|0.3751983642578125|0.046478271484375|291246.655760625|-0.756328749211335|-1.623724425058117|-0.4632611585911331|0.20931775867939|-0.457498699426651|0.4497554898262024|0.1174377799034119|-0.1232442557811737|-0.03124451637268066|XArbitraryZVertical|0.4075497563149825|0.5979689650672101|0.09249287336283263|-0.6839455026575101|-0.8933472633361816|0.4468679130077362|0.04732737317681313|0|0|0|-1|-1|3
2021-03-10 21:14:46.477 +0000|291246.695686625|-0.9107513427734375|0.3580169677734375|0.078094482421875|291246.675723625|-0.7531972723994664|-1.631464878735452|-0.4713173444092803|0.1132798865437508|-0.4395008683204651|0.3451535999774933|0.05934512615203857|-0.07323157787322998|-0.01877284795045853|XArbitraryZVertical|0.4092114181460488|0.5996302142633991|0.08695875580150107|-0.6822226415957018|-0.8893316388130188|0.4540604054927826|0.05402075871825218|0|0|0|-1|-1|3
2021-03-10 21:14:46.497 +0000|291246.715649625|-0.9626007080078125|0.3099822998046875|0.1271209716796875|291246.695686625|-0.7532462933553772|-1.639229251439872|-0.4775017426443314|-0.1310636401176453|-0.3351407051086426|0.2445643246173859|-0.0166277289390564|-0.0883459746837616|-0.0005350112915039062|XArbitraryZVertical|0.4112729063992008|0.60101588315542|0.08316097820280657|-0.6802343699518312|-0.8860670328140259|0.4595617949962616|0.06073099002242088|0|0|0|-1|-1|3
2021-03-10 21:14:46.517 +0000|291246.735611625|-0.98406982421875|0.4293060302734375|0.1356353759765625|291246.715649625|-0.7623631734163806|-1.650082423838304|-0.4808090121948493|-0.6973300576210022|-0.3384976387023926|0.1419989764690399|-0.05680757761001587|-0.1504848599433899|0.04932952672243118|XArbitraryZVertical|0.4153748256158738|0.6021422656512715|0.08281863917694018|-0.6767788819240583|-0.8838359117507935|0.4624966084957123|0.07022310793399811|0|0|0|-1|-1|3
2021-03-10 21:14:46.537 +0000|291246.7555751667|-0.95159912109375|0.459808349609375|0.0924072265625|291246.735611625|-0.7831425113774738|-1.665724182402756|-0.4806174042590537|-1.07990300655365|-0.25822713971138|-0.009189738892018795|-0.1103091835975647|-0.06184452772140503|0.05068814754486084|XArbitraryZVertical|0.422246707561626|0.6031013726703151|0.0866149699323818|-0.6711738970454182|-0.8827175498008728|0.4623267352581024|0.0840470939874649|0|0|0|-1|-1|3
2021-03-10 21:14:46.557 +0000|291246.7755381667|-0.9707489013671875|0.490631103515625|0.053985595703125|291246.7555751667|-0.8068894014019408|-1.681862795543184|-0.4770800009700913|-1.10882556438446|-0.2657575607299805|-0.08837395161390305|-0.06807702779769897|-0.008900284767150879|0.009982243180274963|XArbitraryZVertical|0.4291958782590895|0.604170432125849|0.09239753893115303|-0.6650051144665933|-0.8828661441802979|0.4591871798038483|0.09846202284097672|0|0|0|-1|-1|3
2021-03-10 21:14:46.577 +0000|291246.7955011667|-0.8940277099609375|0.426666259765625|0.0764923095703125|291246.7755381667|-0.8322425192523054|-1.697830834760361|-0.4720286122443911|-1.146337151527405|-0.2305068969726562|-0.0009228433482348919|-0.08563005924224854|0.02420315146446228|-0.06289683282375336|XArbitraryZVertical|0.4363073372294131|0.6050251108194934|0.0991730354099853|-0.6585934994111368|-0.8834710717201233|0.454694002866745|0.1128389537334442|0|0|0|-1|-1|3
2021-03-10 21:14:46.597 +0000|291246.8154641667|-0.78668212890625|0.44293212890625|0.0937347412109375|291246.7955011667|-0.8581610923918457|-1.715076898077873|-0.4674073601689137|-1.047559261322021|-0.2600054442882538|0.07442419975996017|-0.02809649705886841|0.004626929759979248|-0.05119478702545166|XArbitraryZVertical|0.4438554877380241|0.6059468462002215|0.105557523848397|-0.6516735330879152|-0.8834636211395264|0.4505732357501984|0.1283585429191589|0|0|0|-1|-1|3
2021-03-10 21:14:46.617 +0000|291246.8354271667|-0.7432861328125|0.5046539306640625|0.0255126953125|291246.8154641667|-0.8796542498278971|-1.732088449089463|-0.4639282320859482|-0.8499777317047119|-0.4164296388626099|0.09911906719207764|0.07474130392074585|-0.02090513706207275|-0.05040311813354492|XArbitraryZVertical|0.4504206453555832|0.607396781006785|0.109997415846262|-0.6450511687302705|-0.8826942443847656|0.4474645853042603|0.1436192095279694|0|0|0|-1|-1|3
2021-03-10 21:14:46.637 +0000|291246.8553901667|-0.7530517578125|0.513031005859375|-0.0066680908203125|291246.8354271667|-0.8976597923784752|-1.750120484221426|-0.4632612626442887|-0.7462217211723328|-0.6679381728172302|0.1572218686342239|0.1378076672554016|0.05973899364471436|-0.1090736538171768|XArbitraryZVertical|0.4567341908998485|0.6092424457099773|0.1119310874574533|-0.6385052334748615|-0.8802545070648193|0.4468680024147034|0.1595649570226669|0|0|0|-1|-1|3
2021-03-10 21:14:46.657 +0000|291246.8753531667|-0.7647552490234375|0.4773406982421875|-0.004730224609375|291246.8553901667|-0.9139504243884654|-1.770520161680944|-0.465077630471497|-0.8205300569534302|-0.8238252997398376|0.226091131567955|0.1235628724098206|0.06041896343231201|-0.1779516935348511|XArbitraryZVertical|0.4632828854356716|0.6115815715649956|0.1117407555561512|-0.6315464914222089|-0.8760195374488831|0.4484921991825104|0.1773260980844498|0|0|0|-1|-1|3
2021-03-10 21:14:46.677 +0000|291246.8953161667|-0.7506256103515625|0.591583251953125|0.026580810546875|291246.8753531667|-0.933925505038998|-1.79607717566462|-0.4666947641003311|-0.9162803888320923|-0.9390745759010315|0.2389129251241684|0.1081191301345825|0.02552694082260132|-0.2022384107112885|XArbitraryZVertical|0.4712099277986506|0.6145788737896944|0.1114336235594244|-0.6227653966430859|-0.8704941868782043|0.4499369859695435|0.1994919776916504|0|0|0|-1|-1|3
2021-03-10 21:14:46.697 +0000|291246.9152781667|-0.7713165283203125|0.6743011474609375|0.093841552734375|291246.8953161667|-0.9541769496384365|-1.824807234263911|-0.4669009974027123|-0.7775238156318665|-1.017213106155396|0.1915198415517807|0.1119034290313721|0.112653523683548|-0.2072869539260864|XArbitraryZVertical|0.4790965438130852|0.6185972836671482|0.1107866315229502|-0.6128052569781879|-0.8643143177032471|0.450121134519577|0.2243921905755997|0|0|0|-1|-1|3
2021-03-10 21:14:46.717 +0000|291246.9352411667|-0.791015625|0.6928863525390625|0.13775634765625|291246.9152781667|-0.9681100116369113|-1.85195866325589|-0.4661011635240424|-0.4581846594810486|-1.066603422164917|0.06009523570537567|0.0951421856880188|0.2194469571113586|-0.1732887178659439|XArbitraryZVertical|0.4847390915100155|0.6236705056587015|0.1087812929345218|-0.6035145001412054|-0.8582494854927063|0.449406772851944|0.2478737682104111|0|0|0|-1|-1|3
2021-03-10 21:14:46.737 +0000|291246.9552041667|-0.79107666015625|0.6342926025390625|0.132232666015625|291246.9352411667|-0.9745196367250604|-1.875812731568748|-0.4643339878076729|-0.1631178110837936|-1.026861190795898|-0.06751172244548798|0.06030780076980591|0.2265805602073669|-0.1371339559555054|XArbitraryZVertical|0.4876487164991702|0.6296465741631261|0.1055708394788277|-0.5954819741589147|-0.8528493642807007|0.4478273987770081|0.2685121595859528|0|0|0|-1|-1|3
2021-03-10 21:14:46.757 +0000|291246.9751671667|-0.7911224365234375|0.6613006591796875|0.1380462646484375|291246.9552041667|-0.9754503234514792|-1.895617967610579|-0.4620780026980627|-0.03501299768686295|-0.9052958488464355|-0.110000416636467|0.06044739484786987|0.2241737246513367|-0.1527363359928131|XArbitraryZVertical|0.4884985728436809|0.63577087993826|0.1018693588196075|-0.5888863575076065|-0.8483196496963501|0.4458091557025909|0.2856709361076355|0|0|0|-1|-1|3
2021-03-10 21:14:46.777 +0000|291246.9951301667|-0.751251220703125|0.7694854736328125|0.1703338623046875|291246.9751671667|-0.975069976515253|-1.912318656929643|-0.4587842364802764|0.04759355261921883|-0.7962308526039124|-0.2404524236917496|0.04648524522781372|0.1988652348518372|-0.1559094190597534|XArbitraryZVertical|0.4885372176877872|0.6414635476826115|0.09893464242575077|-0.5831534466658211|-0.844809889793396|0.4428583979606628|0.300288200378418|0|0|0|-1|-1|3
2021-03-10 21:14:46.797 +0000|291247.0150931667|-0.7521514892578125|0.72332763671875|0.2344512939453125|291246.9951301667|-0.9697328386641565|-1.92564585073311|-0.4555171489151487|0.3006616234779358|-0.7805086374282837|-0.2304179072380066|0.08567643165588379|0.3003838658332825|-0.1573580503463745|XArbitraryZVertical|0.4867993117467943|0.6473306841658468|0.09538593325976177|-0.5786976881579583|-0.8420851826667786|0.43992680311203|0.3120211660861969|0|0|0|-1|-1|3
2021-03-10 21:14:46.817 +0000|291247.0350561667|-0.77886962890625|0.673370361328125|0.2917938232421875|291247.0150931667|-0.9585479696764535|-1.936492538397743|-0.455827993634552|0.6422719955444336|-0.7907447814941406|-0.09693707525730133|0.09406238794326782|0.3113352656364441|-0.1005216538906097|XArbitraryZVertical|0.483727003349658|0.6531094637332236|0.08940652701314605|-0.5757280567956252|-0.8385235667228699|0.4402059316635132|0.3210875689983368|0|0|0|-1|-1|3
2021-03-10 21:14:46.837 +0000|291247.0550191667|-0.8504791259765625|0.6495513916015625|0.3637237548828125|291247.0350561667|-0.9437158588455641|-1.945840726204467|-0.461007134077189|0.7251179218292236|-0.8064092993736267|0.09361076354980469|0.06394350528717041|0.2198530435562134|-0.05381095409393311|XArbitraryZVertical|0.4803063131422829|0.6582872422664839|0.08088809785827707|-0.5739519940944032|-0.8333526849746704|0.4448503255844116|0.3280724883079529|0|0|0|-1|-1|3
