loggingTime(txt)|accelerometerTimestamp_sinceReboot(s)|accelerometerAccelerationX(G)|accelerometerAccelerationY(G)|accelerometerAccelerationZ(G)|motionTimestamp_sinceReboot(s)|motionYaw(rad)|motionRoll(rad)|motionPitch(rad)|motionRotationRateX(rad/s)|motionRotationRateY(rad/s)|motionRotationRateZ(rad/s)|motionUserAccelerationX(G)|motionUserAccelerationY(G)|motionUserAccelerationZ(G)|motionAttitudeReferenceFrame(txt)|motionQuaternionX(R)|motionQuaternionY(R)|motionQuaternionZ(R)|motionQuaternionW(R)|motionGravityX(G)|motionGravityY(G)|motionGravityZ(G)|motionMagneticFieldX(µT)|motionMagneticFieldY(µT)|motionMagneticFieldZ(µT)|motionHeading(°)|motionMagneticFieldCalibrationAccuracy(Z)|label
2021-03-03 00:36:29.156 +0000|217517.06847575|-0.2276763916015625|-0.1231689453125|-0.9613800048828125|217517.04851475|-0.5103617616032574|-0.2387588370971141|0.1216695438035682|-0.6415135264396667|0.09094317257404327|0.0440126433968544|-0.0956805944442749|-0.00802496075630188|-0.006894588470458984|XArbitraryZVertical|0.02840313136947244|-0.1302635169592321|-0.2571665056944254|0.957125985943973|-0.2347485274076462|-0.1213695779442787|-0.9644493460655212|0|0|0|-1|-1|3
2021-03-03 00:36:29.158 +0000|217517.08843775|-0.3388824462890625|-0.2010040283203125|-0.9305877685546875|217517.06847575|-0.5132850267134661|-0.2411029435751255|0.1063399328607833|-0.8252232074737549|-0.1981067061424255|-0.009597852826118469|0.05586068332195282|0.001067601144313812|-0.00810396671295166|XArbitraryZVertical|0.02054831184785062|-0.1295486382155875|-0.2578180142250318|0.9572485223852363|-0.2374250292778015|-0.1061396300792694|-0.9655898213386536|0|0|0|-1|-1|3
2021-03-03 00:36:29.159 +0000|217517.10839875|-0.338226318359375|-0.0937347412109375|-0.9141082763671875|217517.08843775|-0.5150074956039901|-0.2432317821071081|0.08991934384779489|-0.7613788843154907|0.09742977470159531|0.0776151716709137|-0.06633064150810242|-0.1510922908782959|0.02349787950515747|XArbitraryZVertical|0.0122775342275533|-0.128559184414891|-0.2578036928603679|0.9575275364009412|-0.2398675382137299|-0.0897982195019722|-0.9666435718536377|0|0|0|-1|-1|3
2021-03-03 00:36:29.160 +0000|217517.12836075|-0.06927490234375|-0.168701171875|-0.9640350341796875|217517.10839875|-0.5134994502198896|-0.2388400953650533|0.07434315848423789|-0.7022373676300049|0.4442841410636902|0.2259906977415085|-0.06524042785167694|-0.0565846860408783|0.03068161010742188|XArbitraryZVertical|0.005456451400050667|-0.1245214580919844|-0.256237750182129|0.9585441922301647|-0.2359223365783691|-0.0742746964097023|-0.9689292907714844|0|0|0|-1|-1|3
2021-03-03 00:36:29.160 +0000|217517.14832175|-0.26910400390625|-0.0712738037109375|-0.902435302734375|217517.12836075|-0.5142384061340747|-0.2363811023386771|0.06094737689638779|-0.5775609612464905|-0.01150938309729099|0.05747199431061745|0.1411149352788925|-0.09942971169948578|0.009083032608032227|XArbitraryZVertical|-0.0007097014861578016|-0.1216804042642219|-0.2558788649452921|0.9590200436598981|-0.2337510883808136|-0.06090965121984482|-0.9703867435455322|0|0|0|-1|-1|3
2021-03-03 00:36:29.164 +0000|217517.16828375|-0.215240478515625|-0.072235107421875|-0.9201812744140625|217517.14832175|-0.516607927046502|-0.2363699053880927|0.0510462761462727|-0.5435342788696289|-0.03094044514000416|0.001446009147912264|0.01170197129249573|-0.02493415027856827|0.0607871413230896|XArbitraryZVertical|-0.00560765838683942|-0.1204346535017085|-0.2564859271144909|0.9589989689652595|-0.2338699847459793|-0.05102410912513733|-0.9709280729293823|0|0|0|-1|-1|3
2021-03-03 00:36:29.189 +0000|217517.18824475|-0.220733642578125|-0.0322265625|-0.9367523193359375|217517.16828375|-0.5191994401799257|-0.2364513771080194|0.0445400447844314|-0.4594623446464539|0.03467989712953568|-0.03483086079359055|-0.006471917033195496|-0.03746016323566437|0.05919343233108521|XArbitraryZVertical|-0.00889783400887479|-0.1196462139029809|-0.2573771809604466|0.9588339572844772|-0.2340219020843506|-0.04452531784772873|-0.9712111949920654|0|0|0|-1|-1|3
2021-03-03 00:36:29.204 +0000|217517.20820575|-0.2333831787109375|-0.0062408447265625|-0.9525299072265625|217517.18824475|-0.5224413214235953|-0.2382371469257686|0.03855178661034498|-0.3623701930046082|-0.03431706875562668|-0.1004722788929939|0.02779148519039154|-0.003617797046899796|0.03635638952255249|XArbitraryZVertical|-0.01219629103324627|-0.1197268502692455|-0.2585950889504858|0.9584599589639834|-0.2358145862817764|-0.0385422371327877|-0.9710334539413452|0|0|0|-1|-1|3
2021-03-03 00:36:29.224 +0000|217517.22816775|-0.24072265625|-0.02105712890625|-0.967010498046875|217517.20820575|-0.5262847724876374|-0.2379659086333676|0.03523702704943597|-0.2111844122409821|-0.02183099649846554|-0.1541139334440231|-0.001724705100059509|0.02503686025738716|0.02425581216812134|XArbitraryZVertical|-0.01398072011283452|-0.1191487903964046|-0.2602561638162274|0.9580579005693236|-0.2355800122022629|-0.03522973507642746|-0.9712162017822266|0|0|0|-1|-1|3
2021-03-03 00:36:29.244 +0000|217517.24812875|-0.2590179443359375|-0.020843505859375|-0.96136474609375|217517.22816775|-0.5304447530064859|-0.2372587441596303|0.03470809527163327|-0.09241057932376862|-0.04872402548789978|-0.1950970590114594|0.0005224347114562988|0.01799274608492851|0.005503952503204346|XArbitraryZVertical|-0.01438931928444469|-0.1187125869021364|-0.2622243644053504|0.9575692076615573|-0.2348974943161011|-0.03470112755894661|-0.9714005589485168|0|0|0|-1|-1|3
2021-03-03 00:36:29.264 +0000|217517.26809075|-0.264678955078125|-0.049346923828125|-0.9450225830078125|217517.24812875|-0.5348893449465775|-0.2389631209483436|0.03591752161437511|-0.003093115985393524|-0.04519049078226089|-0.243212029337883|-0.01972872018814087|0.01990332826972008|0.007776796817779541|XArbitraryZVertical|-0.01429907380500025|-0.119653228784137|-0.2644058602657279|0.9568532450953734|-0.236542671918869|-0.03590979799628258|-0.9709572792053223|0|0|0|-1|-1|3
2021-03-03 00:36:29.284 +0000|217517.28805175|-0.24761962890625|-0.069091796875|-0.940460205078125|217517.26809075|-0.5397136332680574|-0.2390526814074768|0.03796672271162753|0.04630688950419426|-0.02582254260778427|-0.2638006806373596|-0.02899807691574097|-0.00513322651386261|0.02156752347946167|XArbitraryZVertical|-0.01361868599167208|-0.1199301868982357|-0.2668252208064431|0.9561566797280688|-0.2366117089986801|-0.03795760124921799|-0.9708625674247742|0|0|0|-1|-1|3
2021-03-03 00:36:29.303 +0000|217517.30801375|-0.2603302001953125|-0.0710601806640625|-0.9419097900390625|217517.28805175|-0.5447433383593042|-0.239418804878752|0.03967988782877631|0.04314916580915451|-0.03195585682988167|-0.2723835706710815|-0.01449824869632721|-0.0264163464307785|0.03029686212539673|XArbitraryZVertical|-0.01315005420403177|-0.1202972995380733|-0.2693204814062605|0.955417248837379|-0.2369513809680939|-0.03966947644948959|-0.9707112908363342|0|0|0|-1|-1|3
2021-03-03 00:36:29.324 +0000|217517.32797475|-0.27862548828125|-0.0822906494140625|-0.945098876953125|217517.32797475|-0.5551250703299914|-0.2411777130774|0.04164613559879329|-0.03481151536107063|-0.04595870524644852|-0.266337126493454|-0.03598839044570923|-0.03429364413022995|0.02444517612457275|XArbitraryZVertical|-0.01307643397310701|-0.1213314399806916|-0.2743723306826575|0.9538488041761667|-0.2386393249034882|-0.04163409769535065|-0.970215380191803|0|0|0|-1|-1|3
2021-03-03 00:36:29.344 +0000|217517.34793675|-0.2803802490234375|-0.0898895263671875|-0.942413330078125||||||||||||||||||||||||3
2021-03-03 00:36:29.363 +0000|217517.36789775|-0.27508544921875|-0.099517822265625|-0.922332763671875|217517.34793675|-0.5606008377214835|-0.2423669259740711|0.0415163259841048|-0.1021571680903435|-0.0402994342148304|-0.2688998281955719|-0.04018932580947876|-0.0486445352435112|0.02421164512634277|XArbitraryZVertical|-0.01363521128002159|-0.1218442088231766|-0.2769676244703561|0.953025255504022|-0.2397942394018173|-0.0415044017136097|-0.9699361324310303|0|0|0|-1|-1|3
2021-03-03 00:36:29.384 +0000|217517.38785875|-0.274749755859375|-0.110443115234375|-0.8929290771484375|217517.36789775|-0.5664191853357509|-0.2432420289771875|0.04046691396084463|-0.1884271949529648|-0.03179356455802917|-0.2644681334495544|-0.03823162615299225|-0.05701728537678719|0.03820335865020752|XArbitraryZVertical|-0.01461235861957589|-0.1220763995844118|-0.2796746873447996|0.9521901359739657|-0.2406533062458038|-0.04045587033033371|-0.969767689704895|0|0|0|-1|-1|3
2021-03-03 00:36:29.404 +0000|217517.407819875|-0.2865753173828125|-0.12725830078125|-0.859039306640625|217517.38785875|-0.5728866210302082|-0.2441285266460925|0.03773969537875175|-0.2948301136493683|-0.04895486682653427|-0.2832748591899872|-0.03209725022315979|-0.07252927869558334|0.06848859786987305|XArbitraryZVertical|-0.01643136190361266|-0.1220709365133517|-0.2825939097965431|0.951298781202883|-0.2415386736392975|-0.03773073852062225|-0.9696574211120605|0|0|0|-1|-1|3
2021-03-03 00:36:29.423 +0000|217517.427780875|-0.270477294921875|-0.0802154541015625|-0.875335693359375|217517.407819875|-0.580238987357462|-0.245572734684877|0.03285766212892041|-0.4367019832134247|-0.05427559465169907|-0.2974249422550201|-0.03999359905719757|-0.08802838623523712|0.1044386625289917|XArbitraryZVertical|-0.01940912366537433|-0.1220079768791461|-0.2858026589601449|0.950291701252768|-0.2429806888103485|-0.03285175189375877|-0.9694746732711792|0|0|0|-1|-1|3
2021-03-03 00:36:29.443 +0000|217517.447742875|-0.246307373046875|-0.0416107177734375|-0.8967742919921875|217517.427780875|-0.5885869863127824|-0.2469067721641018|0.02629178541182812|-0.5185062289237976|-0.03066805750131607|-0.3278347849845886|-0.03821054100990295|-0.07684540748596191|0.101433277130127|XArbitraryZVertical|-0.02323077461266056|-0.121619755223533|-0.2893804823938665|0.949172189841926|-0.2443212419748306|-0.02628875710070133|-0.9693379402160645|0|0|0|-1|-1|3
2021-03-03 00:36:29.463 +0000|217517.467703875|-0.255096435546875|-0.0305023193359375|-0.9031219482421875|217517.447742875|-0.5978245714831265|-0.2488544021714292|0.01911901719967762|-0.5378273725509644|-0.0993950292468071|-0.3587401211261749|0.001299411058425903|-0.02928303554654121|0.07669937610626221|XArbitraryZVertical|-0.02748043727640472|-0.1213910426225802|-0.2933246536104808|0.9478764492814725|-0.246248796582222|-0.01911785267293453|-0.9690181016921997|0|0|0|-1|-1|3
2021-03-03 00:36:29.483 +0000|217517.487665875|-0.26812744140625|-0.0207977294921875|-0.8957672119140625|217517.467703875|-0.6078974660361048|-0.2516183129739491|0.01229407898595361|-0.5586777329444885|-0.1116840243339539|-0.4009447693824768|-0.007669538259506226|-0.01262384280562401|0.06859630346298218|XArbitraryZVertical|-0.03173460894468134|-0.1215488388660687|-0.2976551386395886|0.9463722048939043|-0.2489528208971024|-0.01229376904666424|-0.9684376120567322|0|0|0|-1|-1|3
2021-03-03 00:36:29.504 +0000|217517.507626875|-0.2824249267578125|-0.0508880615234375|-0.8685760498046875|217517.487665875|-0.6189837187637386|-0.2550838532649552|0.005978684584589883|-0.5670782327651978|-0.1225940436124802|-0.4595358967781067|-0.01022070646286011|-0.01829809322953224|0.06589150428771973|XArbitraryZVertical|-0.03591645324513344|-0.1220556635289467|-0.3024616021052755|0.9446318883978325|-0.2523220479488373|-0.005978649016469717|-0.967624843120575|0|0|0|-1|-1|3
2021-03-03 00:36:29.523 +0000|217517.527588875|-0.2883758544921875|-0.06494140625|-0.837615966796875|217517.507626875|-0.6314073883796687|-0.2579175925158624|-0.001551088458826877|-0.6199836134910583|-0.09696830064058304|-0.5104765892028809|-0.02500784397125244|-0.04287189990282059|0.0910065770149231|XArbitraryZVertical|-0.04066002399300524|-0.1220070857185732|-0.3078123917492507|0.9427155475958472|-0.2550672590732574|0.00155108782928437|-0.9669220447540283|0|0|0|-1|-1|3
2021-03-03 00:36:29.543 +0000|217517.547549875|-0.3023529052734375|-0.0476531982421875|-0.828948974609375|217517.527588875|-0.6453977352826263|-0.259711626385024|-0.01161901484090883|-0.710627019405365|-0.08212176710367203|-0.5854960083961487|-0.02962297201156616|-0.07634654641151428|0.1243426203727722|XArbitraryZVertical|-0.04652771342981001|-0.1209783239815275|-0.3137385018613351|0.9406207957251875|-0.2567845284938812|0.01161875296384096|-0.9663988351821899|0|0|0|-1|-1|3
2021-03-03 00:36:29.563 +0000|217517.567510875|-0.2843017578125|-0.0040283203125|-0.8581695556640625|217517.547549875|-0.6612726148548963|-0.2614846360675313|-0.02348952700102288|-0.8502061367034912|-0.06517953425645828|-0.6377574801445007|-0.0396062433719635|-0.06808882206678391|0.1355406045913696|XArbitraryZVertical|-0.0533346576926568|-0.1195200359998065|-0.3204038304606592|0.9381959686605665|-0.258443683385849|0.02348736673593521|-0.9657407402992249|0|0|0|-1|-1|3
2021-03-03 00:36:29.583 +0000|217517.587472875|-0.2648468017578125|0.0092315673828125|-0.8756103515625|217517.567510875|-0.6786525021906442|-0.2627157988791842|-0.03701952613015852|-0.9054245948791504|-0.01658137328922749|-0.6922950148582458|-0.03968346118927002|-0.06488889455795288|0.1153562068939209|XArbitraryZVertical|-0.06089257051526799|-0.1173830982651038|-0.3276417089107307|0.9355022134205847|-0.2595261931419373|0.03701107203960419|-0.9650266170501709|0|0|0|-1|-1|3
2021-03-03 00:36:29.603 +0000|217517.607433875|-0.28973388671875|-0.0011749267578125|-0.8549346923828125|217517.587472875|-0.6971117206153294|-0.2644442654799337|-0.05095561895464531|-0.9282048940658569|-0.07376034557819366|-0.7214576005935669|0.001466333866119385|-0.03962681815028191|0.08715403079986572|XArbitraryZVertical|-0.06874734802398362|-0.1152443867073352|-0.3352932088467303|0.9325079083861497|-0.2610336542129517|0.05093356966972351|-0.9639850854873657|0|0|0|-1|-1|3
2021-03-03 00:36:29.623 +0000|217517.627395875|-0.2591705322265625|-0.0579071044921875|-0.8206329345703125|217517.607433875|-0.7163609513270069|-0.2665407053678845|-0.06544034871021802|-0.9918510913848877|-0.01467854529619217|-0.7545575499534607|-0.02697813510894775|-0.05759642273187637|0.0996774435043335|XArbitraryZVertical|-0.07692405550375919|-0.1130097744046506|-0.3432050569399818|0.9292587507671273|-0.2628321051597595|0.06539364904165268|-0.9626229405403137|0|0|0|-1|-1|3
2021-03-03 00:36:29.643 +0000|217517.647356875|-0.253997802734375|-0.0191497802734375|-0.7968597412109375|217517.627395875|-0.7370426519877914|-0.2680842819757067|-0.08164947367797408|-1.131880044937134|-0.004286624491214752|-0.8128008842468262|-0.002950400114059448|-0.1288762986660004|0.130028247833252|XArbitraryZVertical|-0.08583397218245159|-0.1099941123243248|-0.3516194042234208|0.9256877383885731|-0.2640021741390228|0.08155878633260727|-0.9610676765441895|0|0|0|-1|-1|3
2021-03-03 00:36:29.663 +0000|217517.667318875|-0.296600341796875|-0.0045318603515625|-0.78277587890625|217517.647356875|-0.7597414346251689|-0.2711992731842192|-0.1001160218063195|-1.272201776504517|-0.0948641374707222|-0.8815174102783203|0.0198567807674408|-0.1400947570800781|0.1528398394584656|XArbitraryZVertical|-0.09610716682225071|-0.1070067821054688|-0.3606543527520982|0.921543041443834|-0.2665456533432007|0.09994886070489883|-0.9586259126663208|0|0|0|-1|-1|3
2021-03-03 00:36:29.704 +0000|217517.687279875|-0.3079986572265625|0.0138702392578125|-0.76031494140625|217517.687279875|-0.8124894175927281|-0.2807314852912374|-0.1471771319578139|-1.727841258049011|-0.01427257340401411|-0.9986095428466797|-0.03724658489227295|-0.134179949760437|0.1834059357643127|XArbitraryZVertical|-0.1220097248894398|-0.09940326938842711|-0.3807680800838059|0.9111796407150776|-0.2740632891654968|0.1466463655233383|-0.9504652619361877|0|0|0|-1|-1|3
2021-03-03 00:36:29.706 +0000|217517.707241875|-0.267974853515625|-0.0026397705078125|-0.7268218994140625||||||||||||||||||||||||3
2021-03-03 00:36:29.724 +0000|217517.727202875|-0.252410888671875|-0.0117034912109375|-0.6886444091796875|217517.707241875|-0.8434568519859006|-0.2857784033631194|-0.1770021123950949|-2.001356601715088|-0.0149601474404335|-1.102572083473206|-0.000912010669708252|-0.1720357537269592|0.207330584526062|XArbitraryZVertical|-0.1378826457190475|-0.09360712020945469|-0.3920970397704197|0.9047022150747842|-0.2774998843669891|0.1760793179273605|-0.944452166557312|0|0|0|-1|-1|3
2021-03-03 00:36:29.743 +0000|217517.747163875|-0.298004150390625|0.156219482421875|-0.707916259765625|217517.727202875|-0.8784779977459383|-0.293602935103237|-0.2112724823037842|-2.28313684463501|-0.103342741727829|-1.216889023780823|0.03164038062095642|-0.2263363599777222|0.2358505725860596|XArbitraryZVertical|-0.1562613197100346|-0.08729560667797566|-0.4043726810996548|0.8969083818466175|-0.2829679548740387|0.209704264998436|-0.9359237551689148|0|0|0|-1|-1|3
2021-03-03 00:36:29.763 +0000|217517.767125875|-0.4368133544921875|0.3164215087890625|-0.696929931640625|217517.747163875|-0.9175739258607041|-0.3065958324918461|-0.2483028259825348|-2.435518741607666|-0.3178891837596893|-1.335926532745361|0.01555049419403076|-0.1657420992851257|0.2059879899024963|XArbitraryZVertical|-0.1768287442605007|-0.08165643145880896|-0.4173450059936977|0.8876300055502178|-0.2925585806369781|0.2457591891288757|-0.9241276383399963|0|0|0|-1|-1|3
2021-03-03 00:36:29.783 +0000|217517.787086875|-0.440704345703125|0.388092041015625|-0.66082763671875|217517.767125875|-0.9613825184132405|-0.3237290789137073|-0.288600486945841|-2.691693782806396|-0.1594908684492111|-1.409513473510742|-0.1004319489002228|0.01523956656455994|0.2127564549446106|XArbitraryZVertical|-0.1995812678794909|-0.07578744468659615|-0.431056762465871|0.8767061545755184|-0.3049483597278595|0.2846108675003052|-0.9088471531867981|0|0|0|-1|-1|3
2021-03-03 00:36:29.803 +0000|217517.807048875|-0.312591552734375|0.4826507568359375|-0.5710906982421875|217517.787086875|-1.008257977492166|-0.3374859921696495|-0.3313999085246335|-2.792006731033325|0.2094436138868332|-1.423407316207886|-0.1448781490325928|0.03637301921844482|0.2184649109840393|XArbitraryZVertical|-0.2223848747183042|-0.06649319065460263|-0.445406990521245|0.864717412884905|-0.313099205493927|0.3253670930862427|-0.8922472596168518|0|0|0|-1|-1|3
2021-03-03 00:36:29.823 +0000|217517.827009875|-0.170684814453125|0.4506378173828125|-0.51641845703125|217517.807048875|-1.057174360309037|-0.347354544558323|-0.3749102647772893|-2.875597953796387|0.447064608335495|-1.452793121337891|-0.03478056192398071|0.10680291056633|0.2919270992279053|XArbitraryZVertical|-0.2441255183929254|-0.05403730746878144|-0.460216390431041|0.8518706692864685|-0.3167667388916016|0.366189032793045|-0.8749654293060303|0|0|0|-1|-1|3
2021-03-03 00:36:29.843 +0000|217517.846971875|-0.151123046875|0.436248779296875|-0.465423583984375|217517.827009875|-1.108732521157702|-0.3608722465391959|-0.4204946874093356|-3.095680236816406|0.1496308743953705|-1.410009384155273|0.1246082782745361|0.05396133661270142|0.306281566619873|XArbitraryZVertical|-0.2669522538558863|-0.04114389355576953|-0.4746109539348342|0.8377280495456992|-0.3223317265510559|0.4082120954990387|-0.8540873527526855|0|0|0|-1|-1|3
2021-03-03 00:36:29.863 +0000|217517.866932875|-0.1607666015625|0.6085968017578125|-0.5622406005859375|217517.846971875|-1.162431026070346|-0.3846692738539438|-0.4726631400117923|-3.529883861541748|-0.2008156627416611|-1.210301041603088|0.1939422786235809|-0.0191170871257782|0.3398966193199158|XArbitraryZVertical|-0.2941152967017757|-0.0291417093011732|-0.4865296852382909|0.8221531937974549|-0.3341095447540283|0.4552590548992157|-0.8252938985824585|0|0|0|-1|-1|3
2021-03-03 00:36:29.883 +0000|217517.886894875|-0.3772735595703125|0.872802734375|-0.6931915283203125|217517.866932875|-1.221914197211088|-0.4219451140933967|-0.5321322328901025|-3.883900165557861|-0.7410101890563965|-1.198694229125977|0.2046841382980347|0.04644584655761719|0.2958226799964905|XArbitraryZVertical|-0.3264990267146035|-0.018002301382104|-0.4960934870123713|0.8043416705726149|-0.3529080748558044|0.5073719024658203|-0.7861486077308655|0|0|0|-1|-1|3
2021-03-03 00:36:29.903 +0000|217517.906855875|-0.62725830078125|0.935699462890625|-0.7326812744140625|217517.906855875|-1.345452623404764|-0.5375303157095025|-0.6531711214056479|-3.957316637039185|-0.9721600413322449|-0.4216795861721039|-0.1934135556221008|0.3136483430862427|-0.05527716875076294|XArbitraryZVertical|-0.3986247959923173|-0.003981663278365494|-0.5023684738012932|0.7672733449598782|-0.4066230952739716|0.6077078580856323|-0.6821648478507996|0|0|0|-1|-1|3
2021-03-03 00:36:29.923 +0000|217517.926816875|-0.7629547119140625|1.065994262695312|-0.8261260986328125||||||||||||||||||||||||3
2021-03-03 00:36:29.943 +0000|217517.946778875|-0.7949371337890625|1.31341552734375|-0.8274078369140625|217517.926816875|-1.410500390630195|-0.5983346453181707|-0.7209628886096381|-4.499803066253662|-0.8194263577461243|-0.1865449249744415|-0.3081372678279877|0.3380759358406067|-0.2153710126876831|XArbitraryZVertical|-0.4354207150692442|0.00849497211956067|-0.500461285135872|0.7482481189775727|-0.4231097400188446|0.6601082682609558|-0.6206732988357544|0|0|0|-1|-1|3
2021-03-03 00:36:29.962 +0000|217517.966739875|-0.779296875|1.209625244140625|-0.811920166015625|217517.946778875|-1.483790018161182|-0.6612625233797988|-0.7925092771871244|-4.400604248046875|-0.5011026263237|0.07140672206878662|-0.3647991418838501|0.5428266525268555|-0.2613816261291504|XArbitraryZVertical|-0.4714768660764228|0.02588964935392303|-0.4971983801102881|0.7278963647469945|-0.4311451017856598|0.7121171951293945|-0.5540785789489746|0|0|0|-1|-1|3
2021-03-03 00:36:29.982 +0000|217517.986701875|-0.653900146484375|0.99896240234375|-0.647552490234375|217517.966739875|-1.563968169172302|-0.7271996210302956|-0.863828679332702|-4.608408451080322|-0.190113753080368|0.2811637818813324|-0.357190728187561|0.518427848815918|-0.3317456841468811|XArbitraryZVertical|-0.5051941546404967|0.04654357716564891|-0.4925051598115897|0.7071430515776332|-0.4317955076694489|0.7603349685668945|-0.485225111246109|0|0|0|-1|-1|3
2021-03-03 00:36:30.002 +0000|217518.006662875|-0.5045928955078125|1.176651000976562|-0.4019622802734375|217517.986701875|-1.663051542042921|-0.806050587675842|-0.9399554284819565|-5.139422416687012|0.09769087284803391|0.5989425182342529|-0.2719326019287109|0.2200712561607361|-0.3026012778282166|XArbitraryZVertical|-0.5390712857906536|0.07224128944924786|-0.4863853767214572|0.6838219895229651|-0.4255924224853516|0.8075318336486816|-0.4083666801452637|0|0|0|-1|-1|3
2021-03-03 00:36:30.022 +0000|217518.026624875|-0.3902587890625|1.147369384765625|-0.1900787353515625|217518.006662875|-1.788975464454349|-0.9080665398938361|-1.018837360727504|-5.403501510620117|0.148867666721344|0.7653399705886841|-0.1244834959506989|0.2628046274185181|-0.1622114181518555|XArbitraryZVertical|-0.5729390568220309|0.1021281920418858|-0.4780061919885601|0.6578912146467709|-0.4133583605289459|0.8514989614486694|-0.3226213455200195|0|0|0|-1|-1|3
2021-03-03 00:36:30.042 +0000|217518.046585875|-0.2678070068359375|1.034347534179688|-0.064483642578125|217518.026624875|-1.948115898811013|-1.042174001402826|-1.092051276454442|-5.210713386535645|0.3168132603168488|0.8831536769866943|-0.02190691232681274|0.2943110466003418|-0.01659779250621796|XArbitraryZVertical|-0.6049963197749505|0.1334631416160955|-0.4678044216991137|0.6303380808190937|-0.3977861106395721|0.8875737190246582|-0.232334092259407|0|0|0|-1|-1|3
2021-03-03 00:36:30.062 +0000|217518.066547875|-0.1628875732421875|1.035202026367188|-0.0061492919921875|217518.046585875|-2.143147861223863|-1.210578087941937|-1.153393512930891|-5.037519454956055|0.4439589083194733|0.9859461784362793|0.08399033546447754|0.1324554681777954|0.04466968774795532|XArbitraryZVertical|-0.6334239011361631|0.1653146053519161|-0.4566785549937076|0.6024035545573153|-0.3793700039386749|0.9141448736190796|-0.1428904831409454|0|0|0|-1|-1|3
2021-03-03 00:36:30.082 +0000|217518.086508875|-0.105712890625|1.022064208984375|-0.00421142578125|217518.066547875|-2.377579786221411|-1.417746810171196|-1.196564563117707|-4.790401458740234|0.4322355687618256|0.916078507900238|0.1710682809352875|0.1203891634941101|0.04903162270784378|XArbitraryZVertical|-0.6585136209412075|0.1962006639101757|-0.4453515760962986|0.5740444520123246|-0.3612843453884125|0.9307887554168701|-0.05573021993041039|0|0|0|-1|-1|3
2021-03-03 00:36:30.102 +0000|217518.106469875|-0.0915679931640625|0.9744415283203125|0.009918212890625|217518.086508875|-2.635394557009224|-1.650006469891263|-1.217113401157823|-4.465746402740479|0.4066762626171112|0.8088089823722839|0.2270437777042389|0.08235847949981689|-0.02760458365082741|XArbitraryZVertical|-0.6806153728499024|0.2246459085151911|-0.4338463692687438|0.5459617016235664|-0.3452689051628113|0.9381034970283508|0.02740613929927349|0|0|0|-1|-1|3
2021-03-03 00:36:30.122 +0000|217518.126431875|-0.0641937255859375|0.923797607421875|0.09906005859375|217518.106469875|-2.891544888210567|-1.88307767889572|-1.215770464213803|-4.232339859008789|0.3547544181346893|0.7521796822547913|0.2393719553947449|0.05685412883758545|-0.1068589687347412|XArbitraryZVertical|-0.7003704257716236|0.2507592991964672|-0.4217623847348656|0.5183798402642997|-0.3308026790618896|0.9376375079154968|0.10679791867733|0|0|0|-1|-1|3
2021-03-03 00:36:30.142 +0000|217518.146392875|-0.0365753173828125|0.93194580078125|0.2076416015625|217518.126431875|-3.124585050454866|-2.093368557922949|-1.194290611577481|-4.284108638763428|0.3733833730220795|0.684945285320282|0.2457575798034668|0.005073010921478271|-0.1008375883102417|XArbitraryZVertical|-0.7183093325011317|0.275293630857784|-0.4096850734153022|0.4903094325648382|-0.3186030983924866|0.9299550652503967|0.1835097670555115|0|0|0|-1|-1|3
2021-03-03 00:36:30.162 +0000|217518.166354875|-0.0557403564453125|0.9476318359375|0.31396484375|217518.146392875|2.955487800589539|-2.274163553173077|-1.154161883769867|-4.505512237548828|0.2675553858280182|0.6087384819984436|0.268952488899231|0.01187443733215332|-0.08395054936408997|XArbitraryZVertical|-0.7358698108966275|0.298945872182628|-0.3966663457039944|0.4601986411882567|-0.3086405992507935|0.9144561290740967|0.2617460191249847|0|0|0|-1|-1|3
2021-03-03 00:36:30.204 +0000|217518.186315875|-0.0754241943359375|0.957122802734375|0.3937530517578125|217518.186315875|2.638475231371337|-2.546841909604124|-1.017996707982646|-5.11699104309082|0.2565659880638123|0.3219656944274902|0.2219944894313812|0.08737307786941528|-0.07019549608230591|XArbitraryZVertical|-0.7730864326743772|0.3461111224493478|-0.3637869796633698|0.3875610752781402|-0.2941991686820984|0.8510578870773315|0.4349110722541809|0|0|0|-1|-1|3
2021-03-03 00:36:30.205 +0000|217518.206277875|-0.1040191650390625|1.140853881835938|0.555328369140625|217518.206277875|2.538380244227804|-2.62580813515157|-0.9370777186827448|-4.665245056152344|0.1518325656652451|0.2147634327411652|0.2036318480968475|0.3056344985961914|0.003611385822296143|XArbitraryZVertical|-0.7895673576624369|0.3662498880129788|-0.3469936376797776|0.34934218147075|-0.2920566201210022|0.8058311343193054|0.5151112079620361|0|0|0|-1|-1|3
2021-03-03 00:36:30.222 +0000|217518.226238875|-0.1868896484375|1.075912475585938|0.8076324462890625||||||||||||||||||||||||3
2021-03-03 00:36:30.242 +0000|217518.246200875|-0.2588653564453125|1.341278076171875|0.931732177734375|217518.226238875|2.464026371291272|-2.680297788412249|-0.8605034926435444|-4.185508728027344|0.3150927126407623|0.2942832112312317|0.1283548772335052|0.3430559635162354|0.1530831456184387|XArbitraryZVertical|-0.8028117621822188|0.3839842605119836|-0.330910865425414|0.3139228024057599|-0.2902354300022125|0.7581709623336792|0.5839012861251831|0|0|0|-1|-1|3
2021-03-03 00:36:30.262 +0000|217518.266161875|-0.307464599609375|1.38104248046875|0.9268035888671875|217518.246200875|2.415494414476478|-2.705127155059568|-0.7980377312615871|-2.760124921798706|0.7189258337020874|0.1008532047271729|0.0422050952911377|0.5593114495277405|0.2908264994621277|XArbitraryZVertical|-0.8110793511174362|0.3980995167263625|-0.3211922776651656|0.2837297011869601|-0.2951195240020752|0.7159875631332397|0.6326658725738525|0|0|0|-1|-1|3
2021-03-03 00:36:30.282 +0000|217518.286123875|-0.3597412109375|1.179534912109375|0.885406494140625|217518.266161875|2.394355249517912|-2.703557529935446|-0.7666519754269017|-0.7501115202903748|0.9116544723510742|-0.08310047537088394|0.009628653526306152|0.7187936305999756|0.2822564840316772|XArbitraryZVertical|-0.8131595669850749|0.4060668942757711|-0.3208481399380688|0.2663414175542546|-0.3054966032505035|0.6937277317047119|0.652237594127655|0|0|0|-1|-1|3
2021-03-03 00:36:30.302 +0000|217518.306084875|-0.420379638671875|0.7784271240234375|0.79351806640625|217518.286123875|2.400990723934117|-2.680616857486754|-0.7679406882991714|0.990170955657959|0.8303080201148987|-0.1929519772529602|-0.03016370534896851|0.536133885383606|0.2507930397987366|XArbitraryZVertical|-0.8105104622138739|0.406449753689717|-0.3294432742311547|0.2633223791213991|-0.3199798166751862|0.6946553587913513|0.6442572474479675|0|0|0|-1|-1|3
2021-03-03 00:36:30.322 +0000|217518.326045875|-0.499969482421875|0.5422821044921875|0.7337799072265625|217518.306084875|2.421883089794977|-2.652114315169062|-0.7965357942917352|1.971015453338623|0.5508305430412292|0.2426792234182358|-0.08256661891937256|0.1989717483520508|0.1940845847129822|XArbitraryZVertical|-0.8038967383106966|0.4028573930889244|-0.3415314413756781|0.2735185396071845|-0.3287340998649597|0.7149382829666138|0.6170880794525146|0|0|0|-1|-1|3
2021-03-03 00:36:30.342 +0000|217518.346007875|-0.536407470703125|0.7859649658203125|0.646240234375|217518.326045875|2.438746324843085|-2.630842209987623|-0.8342366596468501|1.736092209815979|0.3762257397174835|0.5446309447288513|-0.1497034132480621|-0.2064821720123291|0.1596828699111938|XArbitraryZVertical|-0.7953169605923371|0.4005970746908196|-0.35177107696125|0.2885308957014068|-0.3283697366714478|0.7407839298248291|0.5860141515731812|0|0|0|-1|-1|3
2021-03-03 00:36:30.362 +0000|217518.365968875|-0.4819183349609375|0.9245147705078125|0.5512542724609375|217518.346007875|2.444164080488485|-2.619325770265275|-0.8693140130388339|1.534924268722534|0.3678761422634125|0.9177819490432739|-0.2256005108356476|-0.04126077890396118|0.1104041934013367|XArbitraryZVertical|-0.7863772561358905|0.4015849308990079|-0.3590824572030845|0.3023244908104842|-0.3219306468963623|0.7638863921165466|0.5593193173408508|0|0|0|-1|-1|3
2021-03-03 00:36:30.382 +0000|217518.385930875|-0.42559814453125|0.8975830078125|0.508056640625|217518.365968875|2.440009031345179|-2.61626734110216|-0.9078115542886211|1.70172107219696|0.2709626257419586|1.189131498336792|-0.1852864921092987|0.121249794960022|0.03078067302703857|XArbitraryZVertical|-0.7759366277892024|0.4051708687243097|-0.3646608469277547|0.317460717153688|-0.3086557388305664|0.7881587147712708|0.5324821472167969|0|0|0|-1|-1|3
2021-03-03 00:36:30.403 +0000|217518.4058917917|-0.352386474609375|0.805908203125|0.53118896484375|217518.385930875|2.434872814779405|-2.615292953106729|-0.9523500371820623|2.019370317459106|0.2391793429851532|1.310082077980042|-0.1470686793327332|0.08771616220474243|0.01051473617553711|XArbitraryZVertical|-0.763876690806498|0.4088371065419323|-0.3700658809143526|0.3352549649075977|-0.2912400662899017|0.8147802352905273|0.5013107657432556|0|0|0|-1|-1|3
2021-03-03 00:36:30.422 +0000|217518.4258537917|-0.3199005126953125|0.686492919921875|0.592742919921875|217518.4058917917|2.4301119124407|-2.614809008849491|-1.002707216935191|2.150977373123169|0.1994660794734955|1.456476449966431|-0.1012409031391144|0.00200951099395752|0.0604308545589447|XArbitraryZVertical|-0.7500962051222924|0.4121851283510177|-0.3756375728896159|0.3554651849747912|-0.2704937160015106|0.8429306149482727|0.4650817811489105|0|0|0|-1|-1|3
2021-03-03 00:36:30.441 +0000|217518.4458147917|-0.2779388427734375|0.68359375|0.6196746826171875|217518.4258537917|2.419028779785089|-2.620608756063956|-1.053215963281187|1.87264883518219|0.1885857284069061|1.560905575752258|-0.07802705466747284|-0.1621861457824707|0.1504534780979156|XArbitraryZVertical|-0.7356677696639958|0.4163664918904974|-0.3799510236781459|0.3755915241781531|-0.2462679892778397|0.8690189123153687|0.4291362464427948|0|0|0|-1|-1|3
2021-03-03 00:36:30.461 +0000|217518.4657767917|-0.2248992919921875|0.768280029296875|0.573394775390625|217518.4458147917|2.395164732589467|-2.636709628446452|-1.097497256281903|1.444593787193298|0.3115173578262329|1.582854390144348|-0.07269746065139771|-0.2242063283920288|0.2236520648002625|XArbitraryZVertical|-0.7217628671349848|0.4225334537549665|-0.3825876665437554|0.3926200590626925|-0.2204849272966385|0.890069305896759|0.398952305316925|0|0|0|-1|-1|3
2021-03-03 00:36:30.482 +0000|217518.4857377917|-0.1825714111328125|0.6902008056640625|0.530914306640625|217518.4657767917|2.361692263597288|-2.659546691481417|-1.13553575806914|1.248792767524719|0.4123854339122772|1.517962455749512|-0.0410541445016861|-0.1509009599685669|0.2124451994895935|XArbitraryZVertical|-0.7084741880668005|0.4299580156878955|-0.384650741222107|0.4065023652146401|-0.1954723447561264|0.9067602157592773|0.3735991418361664|0|0|0|-1|-1|3
2021-03-03 00:36:30.501 +0000|217518.5056997917|-0.1850738525390625|0.6854095458984375|0.5262603759765625|217518.4857377917|2.321445809230481|-2.687678004847738|-1.169803829295104|1.074155569076538|0.4627751111984253|1.486321806907654|-0.01756477355957031|-0.2014966011047363|0.1819233000278473|XArbitraryZVertical|-0.6955020231850612|0.4378131459429321|-0.3865264134631481|0.4185619409747597|-0.1711559593677521|0.9206740260124207|0.3508068323135376|0|0|0|-1|-1|3
2021-03-03 00:36:30.521 +0000|217518.5256607917|-0.168792724609375|0.6878204345703125|0.523529052734375|217518.5056997917|2.273950358624025|-2.721110128526918|-1.19807845356781|0.7112600803375244|0.5991954803466797|1.339849829673767|-0.03575676679611206|-0.2510126233100891|0.2065581083297729|XArbitraryZVertical|-0.6834100122428721|0.4462788854402217|-0.3881814041212017|0.4279032639307601|-0.1486457288265228|0.9313410520553589|0.3324281871318817|0|0|0|-1|-1|3
2021-03-03 00:36:30.544 +0000|217518.5456217917|-0.1727294921875|0.749267578125|0.5259552001953125|217518.5256607917|2.218806084476073|-2.75988687837073|-1.218934623941285|0.4520433247089386|0.6842749714851379|1.280627727508545|-0.04460681974887848|-0.2555204033851624|0.1971865594387054|XArbitraryZVertical|-0.6725388870599969|0.4556452057190861|-0.3894942940855883|0.434019732694099|-0.1283821016550064|0.9387326836585999|0.3198422193527222|0|0|0|-1|-1|3
2021-03-03 00:36:30.561 +0000|217518.5655837917|-0.175048828125|0.7967987060546875|0.547821044921875|217518.5456217917|2.159798057899278|-2.800049499487837|-1.234099052133126|0.274309903383255|0.8728455901145935|1.104699492454529|-0.06091468781232834|-0.2161592841148376|0.221883624792099|XArbitraryZVertical|-0.6624573867155235|0.4656121949717549|-0.39104487256434|0.4375378905489345|-0.1106551736593246|0.9438509345054626|0.3112890124320984|0|0|0|-1|-1|3
2021-03-03 00:36:30.581 +0000|217518.5855447917|-0.2110137939453125|0.8371124267578125|0.60333251953125|217518.5655837917|2.105061768396383|-2.832695681084271|-1.24485700382582|0.1385874003171921|1.016291618347168|0.9101908802986145|-0.07173964381217957|-0.1617974042892456|0.2288155555725098|XArbitraryZVertical|-0.6529419321412466|0.4755929917530418|-0.3939427739620034|0.4385057087227454|-0.09734302759170532|0.9473503828048706|0.3050437271595001|0|0|0|-1|-1|3
2021-03-03 00:36:30.601 +0000|217518.6055067917|-0.2432708740234375|0.8244476318359375|0.6658935546875|217518.5855447917|2.058467007508816|-2.854240126295775|-1.25103885641177|0.04883907362818718|1.240025639533997|0.6994329690933228|-0.1160515919327736|-0.116685152053833|0.2789044678211212|XArbitraryZVertical|-0.6442842261391001|0.4854091371242548|-0.3981735268402453|0.436730811388689|-0.0890875905752182|0.9493116736412048|0.3014483749866486|0|0|0|-1|-1|3
2021-03-03 00:36:30.622 +0000|217518.6254677917|-0.2503662109375|0.7243804931640625|0.6304168701171875|217518.6055067917|2.018047321899149|-2.866932830103716|-1.252775657963446|-0.2731327712535858|1.343041062355042|0.5622784495353699|-0.1438918113708496|-0.116771936416626|0.3639498054981232|XArbitraryZVertical|-0.6364350716992142|0.4954129528431767|-0.4031963173055414|0.4323762610277131|-0.08480695635080338|0.949856162071228|0.3009671866893768|0|0|0|-1|-1|3
2021-03-03 00:36:30.641 +0000|217518.6454297917|-0.1696929931640625|0.6410064697265625|0.5235137939453125|217518.6254677917|1.980428539331311|-2.874077408672126|-1.247087212357157|-0.5875527262687683|1.506468296051025|0.4429452121257782|-0.1741888821125031|-0.1974059343338013|0.3410100936889648|XArbitraryZVertical|-0.630017438974153|0.5064224612546884|-0.4079464218163276|0.424492746347367|-0.08408139646053314|0.9480621218681335|0.3067713677883148|0|0|0|-1|-1|3
2021-03-03 00:36:30.661 +0000|217518.6653907917|-0.138824462890625|0.5761260986328125|0.4400482177734375|217518.6454297917|1.944814775245737|-2.877284291845614|-1.235448561925982|-0.8579772710800171|1.500498414039612|0.3754743039608002|-0.1062562689185143|-0.2893887758255005|0.2262000739574432|XArbitraryZVertical|-0.6246887599208907|0.5182648192547962|-0.4121690228699408|0.4138625048610213|-0.08597395569086075|0.9442959427833557|0.3176689445972443|0|0|0|-1|-1|3
2021-03-03 00:36:30.681 +0000|217518.6853527917|-0.1439208984375|0.617340087890625|0.38092041015625|217518.6653907917|1.908089733683241|-2.883906096970891|-1.21771234178615|-1.116861820220947|1.309917092323303|0.3496506810188293|-0.04880904406309128|-0.3484517931938171|0.1283927857875824|XArbitraryZVertical|-0.6211217123592766|0.5304674292516763|-0.4140352712278133|0.4017298814660806|-0.08812335878610611|0.9383107423782349|0.3343757390975952|0|0|0|-1|-1|3
2021-03-03 00:36:30.701 +0000|217518.7053137917|-0.1298980712890625|0.697662353515625|0.3184814453125|217518.6853527917|1.873792210335542|-2.891437426166606|-1.197249412498434|-1.136228561401367|1.151088118553162|0.3148203492164612|-0.05416316539049149|-0.3323754072189331|0.04623368382453918|XArbitraryZVertical|-0.6187804136937799|0.5421177997982054|-0.4141900881972923|0.3894428584418029|-0.09033761918544769|0.9310388565063477|0.3535618185997009|0|0|0|-1|-1|3
2021-03-03 00:36:30.721 +0000|217518.7252757917|-0.1500396728515625|0.69207763671875|0.2783355712890625|217518.7053137917|1.845206844845428|-2.896914528401577|-1.178231024271597|-0.9875327348709106|0.9414246082305908|0.2670200765132904|-0.04223009943962097|-0.2402454018592834|-0.04459702968597412|XArbitraryZVertical|-0.6169070482316705|0.5522757423850717|-0.4138340989681885|0.3783630388015533|-0.09267289191484451|0.9239307045936584|0.3711656033992767|0|0|0|-1|-1|3
2021-03-03 00:36:30.741 +0000|217518.7452367917|-0.1377716064453125|0.7501068115234375|0.323150634765625|217518.7252757917|1.822085274509847|-2.901877408907883|-1.160880088157725|-0.8801274299621582|0.729059100151062|0.167305201292038|-0.04675065726041794|-0.230279803276062|-0.09422913193702698|XArbitraryZVertical|-0.6158040078836483|0.5606726661851194|-0.4127148087355923|0.3689147662790022|-0.09462201595306396|0.9171541929244995|0.3871368169784546|0|0|0|-1|-1|3
2021-03-03 00:36:30.761 +0000|217518.7651977917|-0.165130615234375|0.8602447509765625|0.356414794921875|217518.7452367917|1.807526388685419|-2.902228401635899|-1.147950287666612|-0.6111955642700195|0.5337501168251038|0.1069864556193352|-0.0431675985455513|-0.1917558312416077|-0.1033999621868134|XArbitraryZVertical|-0.6149312211285928|0.566734788571128|-0.4122852662879327|0.3615135481635616|-0.0972895547747612|0.9119247198104858|0.3986574411392212|0|0|0|-1|-1|3
2021-03-03 00:36:30.781 +0000|217518.7851597917|-0.181732177734375|0.9410247802734375|0.37164306640625|217518.7651977917|1.799799331542154|-2.900011577295931|-1.138133199777287|-0.3724914789199829|0.4018525779247284|-0.03501754626631737|-0.05714531242847443|-0.0654146671295166|-0.05700129270553589|XArbitraryZVertical|-0.6146518955099705|0.5707540306131021|-0.4120605087830262|0.3558778216541304|-0.1003101468086243|0.9078523516654968|0.4071142375469208|0|0|0|-1|-1|3
2021-03-03 00:36:30.801 +0000|217518.8051207917|-0.1819305419921875|0.99395751953125|0.4177093505859375|217518.7851597917|1.801071060990752|-2.891634228350822|-1.13209485927363|-0.2001524120569229|0.3329422771930695|-0.1676267236471176|-0.07356338948011398|0.02662652730941772|-0.03569403290748596|XArbitraryZVertical|-0.6147433771196357|0.5726015082070293|-0.4129960648769881|0.3516423871578613|-0.1050712689757347|0.9053040146827698|0.4115638136863708|0|0|0|-1|-1|3
2021-03-03 00:36:30.821 +0000|217518.8250827917|-0.1704254150390625|1.020751953125|0.451141357421875|217518.8250827917|1.823765926082024|-2.858414125913492|-1.123543021495037|-0.1516815274953842|0.3247063457965851|-0.3848021924495697|-0.05367301404476166|0.1159090995788574|0.02984875440597534|XArbitraryZVertical|-0.6164238364678083|0.5724110147343061|-0.4173051151418642|0.3438367466033477|-0.1208417564630508|0.9016384482383728|0.4152654409408569|0|0|0|-1|-1|3
2021-03-03 00:36:30.841 +0000|217518.8450437917|-0.1537322998046875|1.097869873046875|0.4514617919921875||||||||||||||||||||||||3
2021-03-03 00:36:30.861 +0000|217518.8650057917|-0.1453094482421875|1.103195190429688|0.3699188232421875|217518.8450437917|1.839466545931629|-2.837800953679825|-1.11674445077727|-0.3211065232753754|0.3165846765041351|-0.4515723288059235|-0.02722574770450592|0.1756637096405029|0.04085451364517212|XArbitraryZVertical|-0.6182764720732576|0.5718369810226791|-0.4194624544751023|0.3388039338538903|-0.131206288933754|0.8986772894859314|0.4185266494750977|0|0|0|-1|-1|3
2021-03-03 00:36:30.881 +0000|217518.8849667917|-0.122314453125|1.045639038085938|0.3193206787109375|217518.8650057917|1.852880122032436|-2.819407357238536|-1.106232964626692|-0.4901241958141327|0.3181804120540619|-0.426906943321228|-0.007960841059684753|0.21918785572052|-0.03147071599960327|XArbitraryZVertical|-0.6208530311005708|0.5718666179094481|-0.4205926992918964|0.3325838879296128|-0.1418652534484863|0.8940172791481018|0.4249798357486725|0|0|0|-1|-1|3
2021-03-03 00:36:30.901 +0000|217518.9049287917|-0.1093292236328125|1.030105590820312|0.271453857421875|217518.8849667917|1.860882932934724|-2.806188998548353|-1.092887397007205|-0.6440569162368774|0.2966942489147186|-0.3620836436748505|0.02386628091335297|0.1738395094871521|-0.1025998890399933|XArbitraryZVertical|-0.6236757444738955|0.5728667247126435|-0.4204827257432683|0.3256479631753569|-0.1513839960098267|0.8879585862159729|0.4342954456806183|0|0|0|-1|-1|3
2021-03-03 00:36:30.921 +0000|217518.9248897917|-0.11199951171875|1.056365966796875|0.227752685546875|217518.9049287917|1.864371548009281|-2.798000564001106|-1.077358226692791|-0.7561279535293579|0.2031972706317902|-0.2958178818225861|0.04852317273616791|0.1516085267066956|-0.1645996868610382|XArbitraryZVertical|-0.6267988010007095|0.5745512581920533|-0.4191130841391075|0.318368260912296|-0.1595613807439804|0.8807095885276794|0.4459717571735382|0|0|0|-1|-1|3
2021-03-03 00:36:30.941 +0000|217518.9448517917|-0.104888916015625|1.135498046875|0.203704833984375|217518.9248897917|1.86408072263904|-2.794788727284139|-1.061895283824599|-0.6777469515800476|0.1403043866157532|-0.2099990397691727|0.05309930443763733|0.170146107673645|-0.218022346496582|XArbitraryZVertical|-0.6298417422907379|0.5765456193843477|-0.416804793712188|0.311718392155895|-0.165602371096611|0.8732804656028748|0.4582109451293945|0|0|0|-1|-1|3
2021-03-03 00:36:30.961 +0000|217518.9648127917|-0.08209228515625|1.1256103515625|0.1913604736328125|217518.9448517917|1.862533585580707|-2.79365451887472|-1.049844849022083|-0.4748125374317169|0.1122707203030586|-0.1274414956569672|0.06317627429962158|0.2545565366744995|-0.2637653350830078|XArbitraryZVertical|-0.6320952508395155|0.5782704286981484|-0.4147647493835195|0.3066417894572025|-0.1696978956460953|0.8673459887504578|0.4678821861743927|0|0|0|-1|-1|3
2021-03-03 00:36:30.980 +0000|217518.9847737917|-0.080474853515625|1.079360961914062|0.1645050048828125|217518.9648127917|1.861378918733525|-2.792211892805945|-1.041736504251114|-0.3128450512886047|0.07357003539800644|-0.05414152890443802|0.07777324318885803|0.2835686802864075|-0.2636884450912476|XArbitraryZVertical|-0.6334255398480957|0.5795573738629159|-0.4136135458486441|0.3030004279612331|-0.1727745085954666|0.8632819652557373|0.4742293357849121|0|0|0|-1|-1|3
2021-03-03 00:36:31.001 +0000|217519.0047357917|-0.0726318359375|1.0299072265625|0.1351776123046875|217518.9847737917|1.858624300717476|-2.794158474889133|-1.036387882186224|-0.244242861866951|-0.01641481928527355|-0.007558759301900864|0.09358668327331543|0.2208203077316284|-0.2985556125640869|XArbitraryZVertical|-0.6343172535555965|0.5805956016474908|-0.4122301946530811|0.3010260244760226|-0.1734206825494766|0.8605700731277466|0.4788992702960968|0|0|0|-1|-1|3
2021-03-03 00:36:31.020 +0000|217519.0246967917|-0.076141357421875|1.107986450195312|0.164031982421875|217519.0047357917|1.850502712850744|-2.803328737119458|-1.032135232590782|-0.3123956918716431|-0.1812020689249039|0.2310215085744858|0.1026384085416794|0.1727623343467712|-0.3439945578575134|XArbitraryZVertical|-0.6348583143643824|0.5821630091179608|-0.4095925208322432|0.300458428685565|-0.1702348738908768|0.8583962917327881|0.4839176833629608|0|0|0|-1|-1|3
2021-03-03 00:36:31.040 +0000|217519.0446587917|-0.0362091064453125|1.097610473632812|0.196136474609375|217519.0246967917|1.833830882363183|-2.82220525236989|-1.026485097681372|-0.4439751505851746|-0.266358494758606|0.3990029692649841|0.08377894759178162|0.2285003066062927|-0.3288760185241699|XArbitraryZVertical|-0.6351722465906068|0.5851298888067064|-0.4048173630670839|0.3005032760591538|-0.1625906080007553|0.8554841876029968|0.4916415512561798|0|0|0|-1|-1|3
2021-03-03 00:36:31.060 +0000|217519.0646197917|0.0222320556640625|1.015335083007812|0.2410125732421875|217519.0446587917|1.810773010006539|-2.847761070908994|-1.023586068444584|-0.15639927983284|-0.3076812326908112|0.634518563747406|0.1043055206537247|0.2622470259666443|-0.3151461482048035|XArbitraryZVertical|-0.6342167743180858|0.5888742323012133|-0.3995026719269911|0.3023143837489133|-0.1506922841072083|0.8539793491363525|0.4980075657367706|0|0|0|-1|-1|3
2021-03-03 00:36:31.081 +0000|217519.0845817917|0.03070068359375|1.035842895507812|0.3085479736328125|217519.0646197917|1.784926083543177|-2.877083376733034|-1.028646293428818|0.2368356734514236|-0.4302293062210083|0.7856525182723999|0.1433029323816299|0.1667906045913696|-0.2814354300498962|XArbitraryZVertical|-0.631259219700339|0.5920546939718102|-0.395390746948296|0.3076512649238046|-0.1348953545093536|0.8566012978553772|0.4980339407920837|0|0|0|-1|-1|3
2021-03-03 00:36:31.100 +0000|217519.1045427917|0.0082244873046875|1.083816528320312|0.460662841796875|217519.0845817917|1.756324722493777|-2.912982675317873|-1.040074197249313|0.5504640340805054|-0.6716105341911316|0.8724184036254883|0.1515723913908005|0.1726841330528259|-0.2031010985374451|XArbitraryZVertical|-0.6272811555728892|0.5941482671211078|-0.3914111122672729|0.3167075188844957|-0.1147071793675423|0.8624417781829834|0.4929876327514648|0|0|0|-1|-1|3
2021-03-03 00:36:31.120 +0000|217519.1245047917|0.051422119140625|1.053268432617188|0.460906982421875|217519.1045427917|1.727820958764247|-2.95092667476454|-1.057449853208441|0.8313937187194824|-0.6133434772491455|0.8321719169616699|0.1046808063983917|0.1924164295196533|-0.05150127410888672|XArbitraryZVertical|-0.6223914961133874|0.594749293251894|-0.3886226938478693|0.3284426354570708|-0.09306886792182922|0.871105968952179|0.4821957945823669|0|0|0|-1|-1|3
2021-03-03 00:36:31.140 +0000|217519.1444657917|0.0396728515625|0.9717559814453125|0.42578125|217519.1245047917|1.703185050905958|-2.983966906189695|-1.079655344077931|1.179751515388489|-0.5753887295722961|0.7425128221511841|0.112989641726017|0.1904398202896118|0.00427672266960144|XArbitraryZVertical|-0.6166847402807738|0.5937951738732052|-0.3883660950656415|0.3409971538374161|-0.0740339607000351|0.8817952871322632|0.4657855629920959|0|0|0|-1|-1|3
2021-03-03 00:36:31.160 +0000|217519.1644277917|0.0030517578125|0.9765777587890625|0.4309234619140625|217519.1444657917|1.681362001476791|-3.015626436807082|-1.106464370912258|1.290039777755737|-0.6312391757965088|0.6295989155769348|0.1082332655787468|0.09470975399017334|-0.01367455720901489|XArbitraryZVertical|-0.6106372620678469|0.5909830535350217|-0.3896521596788158|0.3550105054145922|-0.05626187101006508|0.8941209316253662|0.4442776739597321|0|0|0|-1|-1|3
2021-03-03 00:36:31.180 +0000|217519.1843887917|-0.0059661865234375|0.948211669921875|0.3590087890625|217519.1644277917|1.662115171757685|-3.044463135936828|-1.133893545939745|1.315708756446838|-0.5137650370597839|0.506550669670105|0.04980809614062309|0.05487078428268433|0.01680198311805725|XArbitraryZVertical|-0.6047702297707096|0.587216468114687|-0.3918497470663443|0.3686237173128512|-0.04103428870439529|0.9060665369033813|0.4211404323577881|0|0|0|-1|-1|3
2021-03-03 00:36:31.200 +0000|217519.2043497917|-0.043975830078125|0.76275634765625|0.3237457275390625|217519.1843887917|1.646027594125352|-3.069013590916611|-1.16088010920559|1.33677339553833|-0.4898445308208466|0.4266352355480194|0.02278093062341213|0.05916398763656616|-0.02912062406539917|XArbitraryZVertical|-0.5991827543543315|0.5828563418832077|-0.3949138309815047|0.3811843306224988|-0.02889970503747463|0.9171541929244995|0.3974829912185669|0|0|0|-1|-1|3
2021-03-03 00:36:31.220 +0000|217519.2243117917|-0.0149078369140625|0.612152099609375|0.3319091796875|217519.2043497917|1.628306806715979|-3.095458366092434|-1.184482402115747|0.8550410866737366|-0.4626621305942535|0.3856873512268066|-0.01384335570037365|-0.1094706654548645|-0.0510888397693634|XArbitraryZVertical|-0.5943066028194918|0.5787810748383189|-0.397023919152121|0.3926629056824618|-0.01737615652382374|0.9263041615486145|0.3763757348060608|0|0|0|-1|-1|3
2021-03-03 00:36:31.240 +0000|217519.2442727917|0.006744384765625|0.6883087158203125|0.3314056396484375|217519.2243117917|1.610075702854091|-3.120780687189574|-1.196026004864416|0.3021568655967712|-0.4164194464683533|0.3284630179405212|-0.01940545439720154|-0.3037758469581604|-0.04411089420318604|XArbitraryZVertical|-0.5916637695221805|0.5769955817316601|-0.3963854442869328|0.3998609062081128|-0.007617860101163387|0.9305917024612427|0.3659798204898834|0|0|0|-1|-1|3
2021-03-03 00:36:31.260 +0000|217519.2642347917|-0.0169830322265625|0.8164215087890625|0.3646392822265625|217519.2442727917|1.59431632565503|3.138568164872554|-1.197284119558173|-0.1026928573846817|-0.5273237228393555|0.2466363161802292|0.003901243209838867|-0.2624419331550598|-0.0262782871723175|XArbitraryZVertical|-0.5915657854069796|0.5766219971304097|-0.3928620686216211|0.4040004679597933|0.001103596994653344|0.9310515522956848|0.3648860156536102|0|0|0|-1|-1|3
2021-03-03 00:36:31.280 +0000|217519.2841957917|-0.0299835205078125|0.8742218017578125|0.336700439453125|217519.2642347917|1.583532065200907|3.117140614986221|-1.19496492754615|-0.07176461815834045|-0.5894171595573425|0.1452725976705551|-0.02104386687278748|-0.1522945165634155|-0.01432088017463684|XArbitraryZVertical|-0.5931027749429889|0.57593160604976|-0.3880287823464006|0.4073886705999864|0.008974127471446991|0.9302027821540833|0.3669362366199493|0|0|0|-1|-1|3
2021-03-03 00:36:31.300 +0000|217519.3041577917|-0.0402374267578125|0.86102294921875|0.34014892578125|217519.2841957917|1.579778369084889|3.101422282497664|-1.195141188984923|0.1153754070401192|-0.6165727972984314|0.01476865075528622|-0.04557189345359802|-0.04850763082504272|-0.01558861136436462|XArbitraryZVertical|-0.5950238910350465|0.5737942869102236|-0.3841799367706275|0.4112330319015303|0.01473384723067284|0.9302674531936646|0.3665866255760193|0|0|0|-1|-1|3
2021-03-03 00:36:31.320 +0000|217519.3241187917|-0.0635223388671875|0.960601806640625|0.3453369140625|217519.3041577917|1.582516455315156|3.090947973234954|-1.198635554936269|0.168384775519371|-0.670742928981781|-0.141281858086586|-0.05359482765197754|-0.08051532506942749|-0.03436672687530518|XArbitraryZVertical|-0.5971356135044625|0.5700970624356024|-0.3815231338983522|0.4157626461019233|0.0184080246835947|0.9315438270568848|0.3631632030010223|0|0|0|-1|-1|3
2021-03-03 00:36:31.340 +0000|217519.3440807917|-0.106292724609375|1.025054931640625|0.3820648193359375|217519.3241187917|1.595670416206301|3.089542897407568|-1.201120058018723|0.0483645498752594|-0.7017004489898682|-0.3435461819171906|-0.07423299551010132|0.0007221102714538574|-0.01144388318061829|XArbitraryZVertical|-0.6006548759529767|0.5653546735544162|-0.3790869700429674|0.4193815806135117|0.01879779994487762|0.9324443340301514|0.3608243763446808|0|0|0|-1|-1|3
2021-03-03 00:36:31.360 +0000|217519.3640417917|-0.131561279296875|0.9920501708984375|0.35504150390625|217519.3440807917|1.618973249763316|3.097074420961503|-1.200858147617488|-0.1099289730191231|-0.708798885345459|-0.4945616126060486|-0.111976832151413|0.08733409643173218|0.009253352880477905|XArbitraryZVertical|-0.6058396773947043|0.5599625552987191|-0.3763831655234381|0.4215873934740989|0.01609059795737267|0.932349681854248|0.3611995577812195|0|0|0|-1|-1|3
2021-03-03 00:36:31.380 +0000|217519.3840027917|-0.0848541259765625|0.935699462890625|0.35675048828125|217519.3640417917|1.649166689398379|3.111954438519958|-1.197522043898168|-0.2295950353145599|-0.606697142124176|-0.5849396586418152|-0.1403993964195251|0.07601821422576904|0.004328995943069458|XArbitraryZVertical|-0.6121315598588108|0.5545702915164057|-0.373590491302948|0.4221101943956324|0.01080648694187403|0.9311383366584778|0.3645065128803253|0|0|0|-1|-1|3
2021-03-03 00:36:31.400 +0000|217519.4039665|-0.0290374755859375|0.903472900390625|0.2919921875|217519.3840027917|1.682378214644726|3.1317760711542|-1.193155442921661|-0.1939313560724258|-0.514458954334259|-0.6006671786308289|-0.1047701239585876|0.02790629863739014|-0.0031718909740448|XArbitraryZVertical|-0.6185026584126379|0.5493725626213857|-0.3714613642293797|0.4214983757658877|0.003619603114202619|0.9295371174812317|0.3687115013599396|0|0|0|-1|-1|3
2021-03-03 00:36:31.420 +0000|217519.4239275|-0.00164794921875|0.831787109375|0.256591796875|217519.4039665|1.716179820513196|-3.130419001966124|-1.191524951567859|-0.01230194419622421|-0.5588757991790771|-0.6327851414680481|-0.03538340330123901|-0.03684490919113159|-0.06773024797439575|XArbitraryZVertical|-0.6241897681476541|0.5435967085340583|-0.3704133915327329|0.4215253732671004|-0.004136886913329363|0.928934633731842|0.3702204823493958|0|0|0|-1|-1|3
2021-03-03 00:36:31.440 +0000|217519.4438895|-0.036590576171875|0.7752685546875|0.319091796875|217519.4239275|1.754050931283315|-3.107081814185386|-1.193646486195315|0.08660224825143814|-0.7020998001098633|-0.6031354665756226|0.01034173369407654|-0.0579376220703125|-0.1095690727233887|XArbitraryZVertical|-0.6296315626723954|0.5362747234571841|-0.3702962828416312|0.4229115905758357|-0.01270686183124781|0.929718017578125|0.3680529594421387|0|0|0|-1|-1|3
2021-03-03 00:36:31.459 +0000|217519.4638505|-0.0565185546875|0.8787384033203125|0.3152313232421875|217519.4438895|1.792703177687886|-3.084693760212709|-1.194176601059383|-0.04202275350689888|-0.7021800875663757|-0.6444489359855652|-0.005131838843226433|-0.1755186319351196|-0.06690624356269836|XArbitraryZVertical|-0.6356643680507998|0.5286991577677718|-0.369327891013624|0.4242698488414429|-0.02091493830084801|0.9299131631851196|0.3671839833259583|0|0|0|-1|-1|3
2021-03-03 00:36:31.480 +0000|217519.4838125|-0.0584869384765625|0.8964691162109375|0.3731689453125|217519.4638505|1.832127059171622|-3.060157281104281|-1.191544889595494|-0.08089503645896912|-0.5687762498855591|-0.6622124910354614|-0.02748582139611244|-0.06683552265167236|-0.04502412676811218|XArbitraryZVertical|-0.6420986557386094|0.5217362538319881|-0.3681524624904647|0.424222239466326|-0.03011615760624409|0.9289420247077942|0.368998795747757|0|0|0|-1|-1|3
2021-03-03 00:36:31.500 +0000|217519.5037735|-0.089263916015625|0.971038818359375|0.4089508056640625|217519.4838125|1.866895824957736|-3.038744530239536|-1.190259877457969|-0.01002602279186249|-0.58402019739151|-0.5691816806793213|-0.0168602243065834|-0.03008878231048584|-0.01359108090400696|XArbitraryZVertical|-0.6474774870869824|0.5152681321134807|-0.367370956454711|0.4246297669322814|-0.03813247382640839|0.9284655451774597|0.3694566786289215|0|0|0|-1|-1|3
2021-03-03 00:36:31.519 +0000|217519.5237355|-0.0627288818359375|0.837493896484375|0.37115478515625|217519.5037735|1.896988757692603|-3.022361517538755|-1.191132937664984|0.07110273838043213|-0.5285190343856812|-0.6053318977355957|-0.0417473316192627|0.02802824974060059|0.03067421913146973|XArbitraryZVertical|-0.6519671284794268|0.5088489987431829|-0.3664934028447332|0.4262560276261995|-0.04408339783549309|0.9287894368171692|0.3679768741130829|0|0|0|-1|-1|3
2021-03-03 00:36:31.539 +0000|217519.5436965|-0.064361572265625|0.7456817626953125|0.3532562255859375|217519.5237355|1.931197817229014|-3.000514054744441|-1.194139754759066|0.3095273673534393|-0.4816178679466248|-0.637934148311615|-0.02182871103286743|-0.04870450496673584|0.01204597949981689|XArbitraryZVertical|-0.6558698704663969|0.5019108076935517|-0.3670006230610405|0.4280547526207906|-0.05171868950128555|0.9298995733261108|0.364159494638443|0|0|0|-1|-1|3
2021-03-03 00:36:31.560 +0000|217519.5636575|-0.09149169921875|0.7890472412109375|0.3423309326171875|217519.5436965|1.965539491598711|-2.979315481709419|-1.197641216559902|0.2328384071588516|-0.5943161249160767|-0.5573074817657471|0.003449264913797379|-0.1757343411445618|0.003683179616928101|XArbitraryZVertical|-0.6596598829198481|0.4947037313147007|-0.3673521183790462|0.4303133006765156|-0.05889971926808357|0.931181788444519|0.359765887260437|0|0|0|-1|-1|3
2021-03-03 00:36:31.579 +0000|217519.5836195|-0.1114959716796875|0.840911865234375|0.3677978515625|217519.5636575|1.995148590153425|-2.964072777890741|-1.199040979651756|0.06485292315483093|-0.6368791460990906|-0.4744380712509155|-0.02086054533720016|-0.1615191102027893|-0.01899591088294983|XArbitraryZVertical|-0.6637828706097116|0.4880201497295446|-0.3662965284872524|0.4324990904557473|-0.06414618343114853|0.9316911697387695|0.3575427234172821|0|0|0|-1|-1|3
2021-03-03 00:36:31.599 +0000|217519.6035805|-0.09051513671875|0.8738861083984375|0.404754638671875|217519.5836195|2.019463848146061|-2.954048112371114|-1.19740470505479|-0.06514514982700348|-0.6172937154769897|-0.4399459660053253|-0.04229436814785004|-0.1049538850784302|-0.001812368631362915|XArbitraryZVertical|-0.6682715658665086|0.4822893999993092|-0.3640422123866843|0.4339165035031204|-0.06801145523786545|0.9310955405235291|0.3583799004554749|0|0|0|-1|-1|3
2021-03-03 00:36:31.619 +0000|217519.6235425|-0.0692596435546875|0.9162139892578125|0.425933837890625|217519.6035805|2.041661517231707|-2.945353322299157|-1.193389093346855|-0.1518229693174362|-0.5884000062942505|-0.4327451288700104|-0.02566578239202499|-0.06115400791168213|0.03626665472984314|XArbitraryZVertical|-0.6730587188206709|0.4771908976032293|-0.3613598228249418|0.4343959675935253|-0.0718531534075737|0.9296232461929321|0.3614383935928345|0|0|0|-1|-1|3
2021-03-03 00:36:31.639 +0000|217519.6435035|-0.0717926025390625|0.9392852783203125|0.4463348388671875|217519.6235425|2.062981230418273|-2.937298929676812|-1.188416093411784|-0.166102260351181|-0.5909507274627686|-0.4415567219257355|0.004501484334468842|-0.01988101005554199|0.05778589844703674|XArbitraryZVertical|-0.6779634304854391|0.472282757150395|-0.3585071904484732|0.4344965917257977|-0.07569903135299683|0.9277791380882263|0.3653708398342133|0|0|0|-1|-1|3
2021-03-03 00:36:31.659 +0000|217519.6634655|-0.1010894775390625|1.012863159179688|0.4758758544921875|217519.6435035|2.083928075442115|-2.929483856202939|-1.182560090282512|-0.1370472460985184|-0.5753715038299561|-0.4213533401489258|0.01118248701095581|0.004918098449707031|0.07165372371673584|XArbitraryZVertical|-0.6830183442840917|0.4674638097223749|-0.3555336957970368|0.4342342460075449|-0.0796944797039032|0.9255781769752502|0.3700729310512543|0|0|0|-1|-1|3
2021-03-03 00:36:31.679 +0000|217519.6834265|-0.1332244873046875|1.087188720703125|0.5050811767578125|217519.6634655|2.105833433066339|-2.919773604233396|-1.178542713902618|-0.01708043739199638|-0.4989479780197144|-0.4070859253406525|-0.01030466705560684|0.0660470724105835|0.09526452422142029|XArbitraryZVertical|-0.6874430312227087|0.4624660983700012|-0.3533795253195825|0.4343616755195507|-0.08410148322582245|0.9240499138832092|0.3729056119918823|0|0|0|-1|-1|3
2021-03-03 00:36:31.699 +0000|217519.7033885|-0.1740570068359375|1.152313232421875|0.5455169677734375|217519.6834265|2.127351925674972|-2.908646492784127|-1.177145609490253|0.1458610594272614|-0.3921395242214203|-0.3895213901996613|-0.03587661683559418|0.1445850729942322|0.121120810508728|XArbitraryZVertical|-0.6907980094214786|0.4576019731189145|-0.3522917008944785|0.4350737668358107|-0.08854358643293381|0.9235149621963501|0.373202919960022|0|0|0|-1|-1|3
2021-03-03 00:36:31.719 +0000|217519.7233495|-0.2142791748046875|1.165008544921875|0.557403564453125|217519.7033885|2.149060320708615|-2.895258837138898|-1.179441007051222|0.2616296112537384|-0.2686474919319153|-0.3640870451927185|-0.06849977374076843|0.2123256921768188|0.1638866066932678|XArbitraryZVertical|-0.692769705511191|0.4528062832669295|-0.3525798400588821|0.4367195873271483|-0.09301451593637466|0.9243929386138916|0.369926780462265|0|0|0|-1|-1|3
2021-03-03 00:36:31.739 +0000|217519.7433115|-0.2233428955078125|1.08868408203125|0.5323638916015625|217519.7233495|2.170642652245119|-2.879007415685237|-1.183304898509118|0.3080384433269501|-0.09601910412311554|-0.3261463344097137|-0.1099217534065247|0.2462899684906006|0.1943806707859039|XArbitraryZVertical|-0.6937246923391264|0.4485572103338019|-0.354121588922085|0.4383383647664919|-0.09808611124753952|0.9258598685264587|0.3649150431156158|0|0|0|-1|-1|3
2021-03-03 00:36:31.759 +0000|217519.7632725|-0.2136993408203125|1.049087524414062|0.5097808837890625|217519.7433115|2.189669673529732|-2.861807462551969|-1.187775446976699|0.31049445271492|0.04975536093115807|-0.2368182092905045|-0.1210853382945061|0.1839407682418823|0.1790619790554047|XArbitraryZVertical|-0.693707753357791|0.4453823620817701|-0.3566112332090673|0.4395822188985761|-0.1032036244869232|0.9275398850440979|0.3591918051242828|0|0|0|-1|-1|3
2021-03-03 00:36:31.779 +0000|217519.7832335|-0.1996917724609375|1.015548706054688|0.48284912109375|217519.7632725|2.202238508320964|-2.848196533860453|-1.192181306091515|0.240017756819725|0.1365861296653748|-0.08360851556062698|-0.1095764189958572|0.1244115829467773|0.1644411385059357|XArbitraryZVertical|-0.692858988599918|0.4436957033040474|-0.3592293905491822|0.4404939517166868|-0.1069000735878944|0.929177463054657|0.3538389205932617|0|0|0|-1|-1|3
2021-03-03 00:36:31.799 +0000|217519.8031955|-0.1797637939453125|1.000015258789062|0.4550628662109375|217519.7832335|2.205345792785572|-2.841852673263291|-1.196050677537653|0.1660552620887756|0.2113418579101562|0.07990282773971558|-0.09710484743118286|0.09376758337020874|0.1363224983215332|XArbitraryZVertical|-0.6913391041945407|0.443743271066076|-0.361311522330336|0.4411305799250544|-0.108080118894577|0.9306007623672485|0.3497157096862793|0|0|0|-1|-1|3
2021-03-03 00:36:31.819 +0000|217519.8231565|-0.162689208984375|0.9663848876953125|0.439361572265625|217519.8031955|2.200365348450968|-2.841581605026203|-1.199960330192525|0.1650435924530029|0.2744199335575104|0.2076021879911423|-0.07680022716522217|0.07171356678009033|0.1135855615139008|XArbitraryZVertical|-0.6891020513819819|0.4452438985089062|-0.3630794353108358|0.4416667334383439|-0.1070987284183502|0.9320247173309326|0.3462075293064117|0|0|0|-1|-1|3
2021-03-03 00:36:31.839 +0000|217519.8431185|-0.157501220703125|0.92938232421875|0.4392852783203125|217519.8231565|2.189604841821307|-2.845644509470331|-1.205404478279887|0.2586391270160675|0.3265765011310577|0.3194129467010498|-0.06136319041252136|0.04515743255615234|0.1011506319046021|XArbitraryZVertical|-0.6859320836088119|0.4476471283095739|-0.3648702150035367|0.4426951486967008|-0.1042099520564079|0.9339838027954102|0.3417815566062927|0|0|0|-1|-1|3
2021-03-03 00:36:31.859 +0000|217519.8630795|-0.1504058837890625|0.8817291259765625|0.430694580078125|217519.8431185|2.175412632730175|-2.851794576405377|-1.213992343647865|0.4238401353359222|0.3907849192619324|0.4057005345821381|-0.05856077373027802|-0.001501500606536865|0.1042935848236084|XArbitraryZVertical|-0.681490160147566|0.4504771641918363|-0.3672125700220877|0.4447431506215742|-0.09981024265289307|0.9370179176330566|0.3347170352935791|0|0|0|-1|-1|3
2021-03-03 00:36:31.879 +0000|217519.8830415|-0.13995361328125|0.8565673828125|0.4430389404296875|217519.8630795|2.159211639421383|-2.858376854708091|-1.226516329489135|0.6203579902648926|0.4799023866653442|0.4766919016838074|-0.05741535127162933|-0.04813015460968018|0.1073994636535645|XArbitraryZVertical|-0.6755617600469624|0.4534898297036798|-0.3705203556437143|0.4479710968012736|-0.09431809186935425|0.941318690776825|0.3240734338760376|0|0|0|-1|-1|3
2021-03-03 00:36:31.899 +0000|217519.9030025|-0.1342010498046875|0.84197998046875|0.4585418701171875|217519.8830415|2.141921352751303|-2.864157859321304|-1.242539043822989|0.7530664205551147|0.572874903678894|0.5128084421157837|-0.05285882204771042|-0.0853385329246521|0.1294635236263275|XArbitraryZVertical|-0.6682317725614058|0.4566171679858516|-0.3749745945651225|0.4520631702093585|-0.08830026537179947|0.9466056227684021|0.3100658655166626|0|0|0|-1|-1|3
2021-03-03 00:36:31.919 +0000|217519.9229645|-0.138671875|0.842742919921875|0.4815826416015625|217519.9030025|2.12436632842956|-2.868423445101187|-1.260505099386717|0.8121380805969238|0.6715938448905945|0.5101304054260254|-0.05213121324777603|-0.1072585582733154|0.1598578989505768|XArbitraryZVertical|-0.6599693998776281|0.4598345804132911|-0.3803975199825341|0.4563884478541411|-0.08237506449222565|0.9522446990013123|0.2940149009227753|0|0|0|-1|-1|3
2021-03-03 00:36:31.939 +0000|217519.9429255|-0.1356201171875|0.821929931640625|0.502655029296875|217519.9229645|2.106488141803636|-2.870810481572222|-1.278404524440124|0.7526599168777466|0.7976018190383911|0.4818541705608368|-0.06111317873001099|-0.1137918829917908|0.1985013484954834|XArbitraryZVertical|-0.6512401354601047|0.4634184536904816|-0.3865893000394119|0.4600852513033011|-0.07710094749927521|0.957557201385498|0.2777407467365265|0|0|0|-1|-1|3
2021-03-03 00:36:31.959 +0000|217519.9628865|-0.13958740234375|0.838592529296875|0.509857177734375|217519.9429255|2.086925214572732|-2.872565143134716|-1.293744561439027|0.5744763612747192|0.9036666750907898|0.4540692269802094|-0.06337752938270569|-0.1342750191688538|0.2321516275405884|XArbitraryZVertical|-0.6426662737482384|0.4677835697703546|-0.393031534730423|0.4622606298283816|-0.07270036637783051|0.961866021156311|0.2636828124523163|0|0|0|-1|-1|3
2021-03-03 00:36:31.979 +0000|217519.9828485|-0.1475067138671875|0.8284912109375|0.5018310546875|217519.9628865|2.066362448035164|-2.873144098969783|-1.302850714632886|0.3639985322952271|1.010036706924438|0.4064775705337524|-0.06750434637069702|-0.1330026984214783|0.2543443441390991|XArbitraryZVertical|-0.6353466500397138|0.4732536489892331|-0.39910295021526|0.4616086170742335|-0.07022152096033096|0.9643168449401855|0.2552687525749207|0|0|0|-1|-1|3
2021-03-03 00:36:31.999 +0000|217520.0028095|-0.1579132080078125|0.8106842041015625|0.477081298828125|217519.9828485|2.043109319775431|-2.874755285008894|-1.305068783723091|0.1434868276119232|1.062461018562317|0.3957743942737579|-0.07650610059499741|-0.1309020519256592|0.2544645965099335|XArbitraryZVertical|-0.6294970389881578|0.4799918334413654|-0.4043149996888342|0.4581164513131888|-0.06924588233232498|0.9649016857147217|0.2533173561096191|0|0|0|-1|-1|3
2021-03-03 00:36:32.019 +0000|217520.0227715|-0.1595306396484375|0.8012542724609375|0.4761810302734375|217520.0028095|2.015056272223263|-2.880290367207494|-1.308271150851994|-0.02067185938358307|1.098539471626282|0.3952517211437225|-0.08891583234071732|-0.1534206867218018|0.229696661233902|XArbitraryZVertical|-0.6229326722976846|0.4871451711019913|-0.4095418588128998|0.4548846701535215|-0.06704426556825638|0.9657377004623413|0.250711053609848|0|0|0|-1|-1|3
2021-03-03 00:36:32.038 +0000|217520.0427325|-0.1522674560546875|0.8323974609375|0.4779815673828125|217520.0227715|1.98335172471723|-2.888715640844528|-1.308288228944344|-0.1544650793075562|1.131950736045837|0.3854367136955261|-0.09365919232368469|-0.1633739471435547|0.2226414680480957|XArbitraryZVertical|-0.6168775184207901|0.4950631564308908|-0.4141091346329021|0.4504312354372351|-0.0649254098534584|0.9657421708106995|0.2512508034706116|0|0|0|-1|-1|3
2021-03-03 00:36:32.059 +0000|217520.0626945|-0.1529541015625|0.824981689453125|0.4949493408203125|217520.0427325|1.953230593707576|-2.894985602729025|-1.306328486254731|-0.2171130627393723|1.139228224754333|0.3263089656829834|-0.09066930413246155|-0.1399600505828857|0.2268437147140503|XArbitraryZVertical|-0.6112117940987568|0.5031540840172458|-0.4185618346406613|0.4450417628893661|-0.06381069868803024|0.965231716632843|0.253487765789032|0|0|0|-1|-1|3
2021-03-03 00:36:32.078 +0000|217520.0826555|-0.146881103515625|0.8305206298828125|0.49420166015625|217520.0626945|1.927161869468095|-2.897676678555401|-1.3034312515773|-0.2169499844312668|1.119106769561768|0.2605151236057281|-0.08963897824287415|-0.1344990134239197|0.2343513965606689|XArbitraryZVertical|-0.6059689823109775|0.5108690947118446|-0.4229490195104872|0.4392363448504996|-0.06380342692136765|0.964470386505127|0.2563712894916534|0|0|0|-1|-1|3
2021-03-03 00:36:32.098 +0000|217520.1026175|-0.123138427734375|0.7983551025390625|0.46160888671875|217520.0826555|1.907236952752208|-2.894584929060429|-1.300016729706928|-0.254453718662262|1.104933261871338|0.1748856157064438|-0.08544773608446121|-0.1307225227355957|0.2391703426837921|XArbitraryZVertical|-0.601122185107143|0.5180102163213358|-0.4275560533311771|0.4330283143812153|-0.06540067493915558|0.9635626673698425|0.2593649327754974|0|0|0|-1|-1|3
2021-03-03 00:36:32.118 +0000|217520.1225785|-0.0985565185546875|0.801727294921875|0.38458251953125|217520.1026175|1.892049407323185|-2.887580697940572|-1.295422087260129|-0.2936614453792572|1.060116291046143|0.1063573360443115|-0.06106708198785782|-0.1592838168144226|0.2109993994235992|XArbitraryZVertical|-0.5969112764708702|0.5246792491627487|-0.4320013118240361|0.4263609005629501|-0.06832747161388397|0.9623234868049622|0.2631827592849731|0|0|0|-1|-1|3
2021-03-03 00:36:32.138 +0000|217520.1425405|-0.057373046875|0.7855224609375|0.281768798828125|217520.1225785|1.880992934155131|-2.877788207995706|-1.290013543789286|-0.2954457104206085|0.9860354661941528|0.04721438512206078|-0.03263162821531296|-0.1587606072425842|0.1356923282146454|XArbitraryZVertical|-0.5933394824041429|0.5307625323339291|-0.4361665529843906|0.4195212890643951|-0.07225731015205383|0.960838794708252|0.2675212025642395|0|0|0|-1|-1|3
2021-03-03 00:36:32.158 +0000|217520.1625015|-0.006866455078125|0.817779541015625|0.2364501953125|217520.1425405|1.874122269889019|-2.865448829556901|-1.284705665064435|-0.2801742255687714|0.906161904335022|-0.002471145475283265|0.007576003670692444|-0.1713902950286865|0.03311330080032349|XArbitraryZVertical|-0.5902458005710152|0.5360657886092772|-0.4401779244137611|0.4129006775113221|-0.07694248855113983|0.9593544602394104|0.2715132832527161|0|0|0|-1|-1|3
2021-03-03 00:36:32.178 +0000|217520.1824625|0.018280029296875|0.9232025146484375|0.2665863037109375|217520.1625015|1.869872132655958|-2.852269694343871|-1.27894582961698|-0.3138643801212311|0.8241502642631531|-0.05215765163302422|0.06435821205377579|-0.1569012999534607|-0.03498271107673645|XArbitraryZVertical|-0.5877547399296688|0.5407657427860803|-0.4437697771590401|0.4064298103896137|-0.08208893984556198|0.9577130675315857|0.2757664322853088|0|0|0|-1|-1|3
2021-03-03 00:36:32.198 +0000|217520.2024245|0.0418243408203125|1.013473510742188|0.33941650390625|217520.1824625|1.869306672811715|-2.836688283888998|-1.272014372094679|-0.3506636917591095|0.8084681630134583|-0.1531165838241577|0.1032436788082123|-0.05957752466201782|-0.02730047702789307|XArbitraryZVertical|-0.5860176324514602|0.5449523579999962|-0.4470659613615142|0.3996777671516565|-0.08836638927459717|0.9556957483291626|0.2807794809341431|0|0|0|-1|-1|3
2021-03-03 00:36:32.218 +0000|217520.2223855|0.015716552734375|1.203125|0.438079833984375|217520.2024245|1.877305657524061|-2.812564190190493|-1.264133959663359|-0.2936760485172272|0.8385189771652222|-0.3359884023666382|0.1341192871332169|0.03331726789474487|0.04137247800827026|XArbitraryZVertical|-0.5849414949068745|0.5483481012838511|-0.4509841175041704|0.3921365403564299|-0.09754399210214615|0.9533464312553406|0.2856843769550323|0|0|0|-1|-1|3
2021-03-03 00:36:32.238 +0000|217520.2423475|-0.096923828125|1.367889404296875|0.43096923828125|217520.2223855|1.898532042500324|-2.775676169744069|-1.256347810857336|-0.2406846880912781|0.8183879256248474|-0.5356405973434448|0.1410618126392365|0.1927401423454285|0.1269862353801727|XArbitraryZVertical|-0.584554497764633|0.5501853440639872|-0.4561541502146643|0.3840774801318391|-0.1106663197278976|0.9509670734405518|0.2888157367706299|0|0|0|-1|-1|3
2021-03-03 00:36:32.258 +0000|217520.2623085|-0.1223297119140625|1.222427368164062|0.274658203125|217520.2423475|1.928343712088977|-2.73107711803525|-1.246998776552971|-0.2665098905563354|0.8446977138519287|-0.6727617979049683|0.05875366926193237|0.4078620672225952|0.1569807529449463|XArbitraryZVertical|-0.5851431272990736|0.550885425514736|-0.4618264169329925|0.3752988705623594|-0.1269757449626923|0.9480339884757996|0.2917344570159912|0|0|0|-1|-1|3
2021-03-03 00:36:32.278 +0000|217520.2822705|-0.0474090576171875|1.059906005859375|0.090789794921875|217520.2623085|1.957938834193493|-2.684942409761813|-1.234587607733515|-0.5158244371414185|0.9597039222717285|-0.7020348310470581|0.01598590612411499|0.3330720067024231|0.02588504552841187|XArbitraryZVertical|-0.5861037344463119|0.5518472212724564|-0.4677181109232806|0.3649476410306512|-0.1454719752073288|0.9440122246742249|0.2961058914661407|0|0|0|-1|-1|3
2021-03-03 00:36:32.298 +0000|217520.3022315|-0.0092010498046875|1.068954467773438|0.006317138671875|217520.2822705|1.972842063470416|-2.652461190121755|-1.215982773811798|-0.9013103246688843|0.8507826328277588|-0.5880333185195923|0.09748633205890656|0.1449150443077087|-0.1742928326129913|XArbitraryZVertical|-0.5879157943182165|0.5547017687573602|-0.4715158350928893|0.3526099726090544|-0.1632364690303802|0.9377112984657288|0.3066780567169189|0|0|0|-1|-1|3
2021-03-03 00:36:32.318 +0000|217520.3221935|0.013671875|1.13201904296875|-0.0203399658203125|217520.3022315|1.971115639575445|-2.639608738606981|-1.193425584928911|-1.044636607170105|0.5953050255775452|-0.4441395401954651|0.1648324877023697|0.1269431114196777|-0.3042504489421844|XArbitraryZVertical|-0.5908275174684448|0.5589563616391094|-0.4719354361831787|0.3402465437249145|-0.1772989481687546|0.9296366572380066|0.3230187296867371|0|0|0|-1|-1|3
2021-03-03 00:36:32.338 +0000|217520.3421545|0.0592041015625|1.12255859375|-0.01226806640625|217520.3221935|1.965065191624334|-2.63567678307842|-1.172762760194746|-0.7995334267616272|0.3690020143985748|-0.3683409988880157|0.1948718726634979|0.2007489204406738|-0.3494884967803955|XArbitraryZVertical|-0.5940341637215968|0.562715889049926|-0.4707119074755964|0.330006978452492|-0.1878375709056854|0.9218249917030334|0.3390515148639679|0|0|0|-1|-1|3
2021-03-03 00:36:32.358 +0000|217520.3621155|0.0782318115234375|1.06890869140625|-0.01239013671875|217520.3421545|1.967866111683888|-2.627865982909495|-1.160117376540725|-0.23704694211483|0.1400258094072342|-0.3461934626102448|0.2437850534915924|0.212254524230957|-0.3643153309822083|XArbitraryZVertical|-0.5965273029552699|0.5639187824422122|-0.470478647439717|0.3237290913397762|-0.1961928904056549|0.9168499708175659|0.3476984202861786|0|0|0|-1|-1|3
2021-03-03 00:36:32.378 +0000|217520.3820775|0.06488037109375|1.013427734375|-0.0051727294921875|217520.3621155|1.983457034165649|-2.613435047594942|-1.157721671339807|0.3187184035778046|-0.1122832372784615|-0.3098003566265106|0.2791856527328491|0.170107901096344|-0.360109955072403|XArbitraryZVertical|-0.5981862370871929|0.5617270556013351|-0.4718783268917724|0.3224390943421117|-0.20229671895504|0.9158909320831299|0.34672811627388|0|0|0|-1|-1|3
2021-03-03 00:36:32.398 +0000|217520.4020375417|0.050201416015625|1.009506225585938|0.0341339111328125|217520.3820775|2.009809966094032|-2.593294944569489|-1.163704742908216|0.6935550570487976|-0.2692337036132812|-0.2813130617141724|0.2747834920883179|0.1056650280952454|-0.3491010963916779|XArbitraryZVertical|-0.5991003574147927|0.5568028147308798|-0.4745792671175209|0.3253061993335661|-0.2063784003257751|0.9182762503623962|0.33790123462677|0|0|0|-1|-1|3
2021-03-03 00:36:32.418 +0000|217520.4219995417|0.0546722412109375|0.99169921875|0.100677490234375|217520.4020375417|2.042744835136709|-2.568980533584981|-1.174618191356851|0.8991078734397888|-0.3188632428646088|-0.2297965437173843|0.2605728209018707|0.08339327573776245|-0.3027345836162567|XArbitraryZVertical|-0.5993047115934816|0.5504583501202949|-0.4780714956531465|0.3305711323509107|-0.2090897262096405|0.9225425720214844|0.3243410587310791|0|0|0|-1|-1|3
2021-03-03 00:36:32.438 +0000|217520.4419605417|0.034637451171875|0.9781341552734375|0.17193603515625|217520.4219995417|2.079425351136417|-2.541732706438612|-1.188124542507996|0.9711834192276001|-0.351483941078186|-0.1872269660234451|0.2654365301132202|0.07110917568206787|-0.2260267436504364|XArbitraryZVertical|-0.5988755226204017|0.5435562634447935|-0.4819414249916527|0.3370865289077776|-0.2107948511838913|0.9276703000068665|0.3082106113433838|0|0|0|-1|-1|3
2021-03-03 00:36:32.458 +0000|217520.4619225417|0.014434814453125|0.974151611328125|0.240997314453125|217520.4419605417|2.116224846743236|-2.514610924940174|-1.201558879043915|0.8869304656982422|-0.3543825149536133|-0.14988012611866|0.2540258169174194|0.04376125335693359|-0.1379335224628448|XArbitraryZVertical|-0.598296460672909|0.5368163979673014|-0.4854452722790614|0.3438202356735549|-0.2117436975240707|0.9326028227806091|0.292261004447937|0|0|0|-1|-1|3
2021-03-03 00:36:32.478 +0000|217520.4818835417|0.0023651123046875|0.9516754150390625|0.2619781494140625|217520.4619225417|2.147137454487116|-2.49269277629557|-1.221047085807452|0.7065485119819641|-0.3111036717891693|-0.1247658133506775|0.2256596684455872|0.03647828102111816|-0.04738426208496094|XArbitraryZVertical|-0.5953850951812926|0.5310598921352188|-0.4887588594990271|0.3529969233516022|-0.2070744633674622|0.9394586682319641|0.2730160355567932|0|0|0|-1|-1|3
2021-03-03 00:36:32.498 +0000|217520.5018455417|-0.0089569091796875|0.9332122802734375|0.2540130615234375|217520.4818835417|2.171062296698389|-2.476253323250706|-1.232483591540537|0.4113503396511078|-0.2876076102256775|-0.08553887158632278|0.2096488773822784|0.01429510116577148|-0.001293659210205078|XArbitraryZVertical|-0.5942281236069121|0.5267309692838933|-0.490541225578875|0.3589105571898509|-0.204888179898262|0.9433159828186035|0.2611051499843597|0|0|0|-1|-1|3
2021-03-03 00:36:32.518 +0000|217520.5218065417|-0.0131988525390625|0.9206695556640625|0.2460784912109375|217520.5018455417|2.183249096544257|-2.47034132691246|-1.235689773913693|0.09521437436342239|-0.2705536782741547|-0.03751994296908379|0.1967029124498367|-0.005547761917114258|0.0004455745220184326|XArbitraryZVertical|-0.5950047609108151|0.5241460549386261|-0.4904070038311776|0.3615815439575512|-0.2045459300279617|0.9443752765655518|0.2575195133686066|0|0|0|-1|-1|3
2021-03-03 00:36:32.538 +0000|217520.5417675417|-0.0171661376953125|0.9217681884765625|0.2293548583984375|217520.5218065417|2.182454592392518|-2.476565634296878|-1.235054337123542|-0.1447416841983795|-0.2852979600429535|0.02377563901245594|0.1893628835678101|-0.02165019512176514|-0.01188433170318604|XArbitraryZVertical|-0.5965135999872695|0.5232604195186665|-0.4886374799963976|0.3627719475407852|-0.2033094018697739|0.9441661238670349|0.2592598795890808|0|0|0|-1|-1|3
2021-03-03 00:36:32.557 +0000|217520.5617295417|-0.0295867919921875|0.919952392578125|0.216156005859375|217520.5417675417|2.16349273296609|-2.50182242100824|-1.236071169222315|-0.2509512901306152|-0.3601546585559845|0.09241275489330292|0.1798428446054459|-0.0250975489616394|-0.03284373879432678|XArbitraryZVertical|-0.5973843970858854|0.5243115203929863|-0.4846489332938761|0.3651640364751478|-0.1961240023374557|0.9445006251335144|0.2635413706302643|0|0|0|-1|-1|3
2021-03-03 00:36:32.577 +0000|217520.5816905417|-0.048187255859375|0.927642822265625|0.23052978515625|217520.5617295417|2.137347680266881|-2.535883175753729|-1.236453268764144|-0.2367631494998932|-0.457249253988266|0.1600335240364075|0.1615310907363892|-0.02484148740768433|-0.05457603931427002|XArbitraryZVertical|-0.5986128080154618|0.5258784148183757|-0.4792970575551897|0.3679524798709902|-0.1868301779031754|0.9446260929107666|0.2697708010673523|0|0|0|-1|-1|3
2021-03-03 00:36:32.597 +0000|217520.6016525417|-0.0679473876953125|0.954559326171875|0.2494354248046875|217520.5816905417|2.111495642689861|-2.571457787287095|-1.237178784211571|-0.1885267049074173|-0.5640296339988708|0.2263738363981247|0.1334120631217957|-0.01897579431533813|-0.04829692840576172|XArbitraryZVertical|-0.6000641192792904|0.5270266718780919|-0.4734993689692476|0.3714355757507442|-0.176747053861618|0.9448639154434204|0.2756681144237518|0|0|0|-1|-1|3
2021-03-03 00:36:32.617 +0000|217520.6216135417|-0.0858306884765625|0.980499267578125|0.2750701904296875|217520.6016525417|2.085485564306295|-2.609055918242221|-1.239144469272977|-0.1244807094335556|-0.6590718030929565|0.2902936041355133|0.1020691245794296|0.001668572425842285|-0.03497225046157837|XArbitraryZVertical|-0.6014642295903903|0.527730201789848|-0.4673145622619265|0.3759772746429876|-0.1653168648481369|0.9455057978630066|0.2805167734622955|0|0|0|-1|-1|3
2021-03-03 00:36:32.647 +0000|217520.6415755417|-0.1164703369140625|1.024765014648438|0.308258056640625|217520.6216135417|2.059637024318146|-2.648297813128307|-1.242656151533112|-0.06080314889550209|-0.7525470852851868|0.3288260698318481|0.07170876860618591|0.02579927444458008|-0.0151829719543457|XArbitraryZVertical|-0.6027141170029028|0.5278878380995127|-0.4608776535481416|0.3816568593366758|-0.1526109129190445|0.9466433525085449|0.2838597595691681|0|0|0|-1|-1|3
2021-03-03 00:36:32.658 +0000|217520.6615365417|-0.15875244140625|1.026596069335938|0.312103271484375|217520.6415755417|2.033941563735336|-2.689239005465776|-1.247106860079221|-0.04139703139662743|-0.850602388381958|0.355126827955246|0.03123389184474945|0.06796878576278687|0.01436927914619446|XArbitraryZVertical|-0.6040023126782729|0.527465046598824|-0.4541274326335172|0.3882399724446484|-0.1390220075845718|0.948068380355835|0.2860763370990753|0|0|0|-1|-1|3
2021-03-03 00:36:32.677 +0000|217520.6814985417|-0.17694091796875|1.02227783203125|0.296783447265625|217520.6615365417|2.007165555606549|-2.73260985562926|-1.251733585671375|-0.04817157983779907|-0.8902885913848877|0.3622361421585083|-0.02604536712169647|0.08284950256347656|0.02788212895393372|XArbitraryZVertical|-0.6053832706352577|0.5267016510986399|-0.4469890557380982|0.395344657895582|-0.1247420236468315|0.9495298266410828|0.2878070771694183|0|0|0|-1|-1|3
2021-03-03 00:36:32.697 +0000|217520.7014595417|-0.1807098388671875|1.052093505859375|0.284423828125|217520.6814985417|1.981279528109696|-2.775380473385985|-1.25465014923516|-0.1048933938145638|-0.9012977480888367|0.3573078811168671|-0.06458889693021774|0.06881594657897949|0.009361952543258667|XArbitraryZVertical|-0.6072245146637674|0.5257598589296351|-0.4396729623516317|0.4019237107969224|-0.111329697072506|0.9504406452178955|0.2902900874614716|0|0|0|-1|-1|3
2021-03-03 00:36:32.717 +0000|217520.7214205417|-0.1992340087890625|1.074142456054688|0.28826904296875|217520.7214205417|1.936212696725846|-2.855442189731966|-1.254844989023782|-0.1245021373033524|-0.9559090733528137|0.2578820586204529|-0.1037474051117897|0.1221765279769897|-0.0121370255947113|XArbitraryZVertical|-0.6126481029915525|0.5231689099637322|-0.4244745201073826|0.4132531073995274|-0.08770466595888138|0.9505012035369873|0.2980868220329285|0|0|0|-1|-1|3
2021-03-03 00:36:32.737 +0000|217520.7413825417|-0.206787109375|1.031280517578125|0.294219970703125||||||||||||||||||||||||3
2021-03-03 00:36:32.757 +0000|217520.7613435417|-0.174591064453125|0.967376708984375|0.2877960205078125|217520.7413825417|1.922138812972168|-2.887372381884274|-1.254274105875912|-0.06176738068461418|-0.9120025634765625|0.1817694455385208|-0.132001519203186|0.09650552272796631|-0.007497102022171021|XArbitraryZVertical|-0.6158495878812745|0.5209212331035157|-0.4174820621861873|0.4184245124841529|-0.07827988266944885|0.9503236413002014|0.3012592792510986|0|0|0|-1|-1|3
2021-03-03 00:36:32.777 +0000|217520.7813055417|-0.14013671875|0.914093017578125|0.2718658447265625|217520.7613435417|1.911395198861918|-2.915467705366239|-1.254160882533074|-0.02189316973090172|-0.8879106640815735|0.1452386081218719|-0.114134319126606|0.03195053339004517|-0.01143750548362732|XArbitraryZVertical|-0.6189078565752172|0.5183392132622393|-0.4110476341942043|0.4234590010623928|-0.0698104128241539|0.9502884149551392|0.3034449517726898|0|0|0|-1|-1|3
2021-03-03 00:36:32.797 +0000|217520.8012665417|-0.13201904296875|0.88934326171875|0.2691192626953125|217520.7813055417|1.902552216381054|-2.94161754641534|-1.254681104277236|0.01440094038844109|-0.8959588408470154|0.134425088763237|-0.08538639545440674|-0.02814793586730957|-0.03006923198699951|XArbitraryZVertical|-0.6218200820109364|0.5154421641235312|-0.4049279742095491|0.428593725224054|-0.06175413727760315|0.9504503011703491|0.3046816885471344|0|0|0|-1|-1|3
2021-03-03 00:36:32.817 +0000|217520.8212285417|-0.13873291015625|0.865203857421875|0.280975341796875|217520.8012665417|1.895194956510588|-2.966711850071363|-1.255915840651561|0.06698876619338989|-0.9099640846252441|0.1115312352776527|-0.07828620076179504|-0.05856043100357056|-0.0398576557636261|XArbitraryZVertical|-0.6246525201765205|0.5121511466369408|-0.398956645640805|0.4339862362877951|-0.05388545244932175|0.9508333802223206|0.304979145526886|0|0|0|-1|-1|3
2021-03-03 00:36:32.836 +0000|217520.8411895417|-0.1326446533203125|0.814910888671875|0.2767791748046875|217520.8212285417|1.898703181886851|-2.980587541679615|-1.258466997932702|0.1248819157481194|-0.8933414816856384|0.08125855028629303|-0.08724553138017654|-0.07469767332077026|-0.02220508456230164|XArbitraryZVertical|-0.6276413373280736|0.5076589537072763|-0.3943950056658435|0.4390916120734761|-0.04925964027643204|0.9516203999519348|0.303302526473999|0|0|0|-1|-1|3
2021-03-03 00:36:32.857 +0000|217520.8611505417|-0.126678466796875|0.7756195068359375|0.259521484375|217520.8411895417|1.904309945733067|-2.99194234033114|-1.261658043666762|0.1678455173969269|-0.8659780621528625|0.05955130234360695|-0.08784976601600647|-0.125447690486908|-0.01848867535591125|XArbitraryZVertical|-0.6304644157670556|0.5029246938766025|-0.390272996202059|0.4441489655517054|-0.04535950720310211|0.9525960683822632|0.3008372485637665|0|0|0|-1|-1|3
2021-03-03 00:36:32.876 +0000|217520.8811125417|-0.10986328125|0.73974609375|0.26190185546875|217520.8611505417|1.909590443659101|-3.003128987930688|-1.265450184867511|0.1957800537347794|-0.8210698366165161|0.05237292870879173|-0.08855819702148438|-0.1681137681007385|-0.0361340343952179|XArbitraryZVertical|-0.6329836047818033|0.4982015064758578|-0.3863778138151521|0.4492651383459422|-0.04149250686168671|0.9537429809570312|0.2977459728717804|0|0|0|-1|-1|3
2021-03-03 00:36:32.896 +0000|217520.9010735417|-0.089599609375|0.7346649169921875|0.2847442626953125|217520.8811125417|1.91491356877123|-3.01329398694889|-1.269525438920398|0.206909567117691|-0.7665349841117859|0.04141632840037346|-0.07604748010635376|-0.2070964574813843|-0.03501775860786438|XArbitraryZVertical|-0.6352115904008588|0.4936129564391969|-0.382831781983051|0.4541940811089065|-0.03796620294451714|0.9549601674079895|0.2942950427532196|0|0|0|-1|-1|3
2021-03-03 00:36:32.916 +0000|217520.9210355417|-0.0742340087890625|0.76556396484375|0.3177490234375|217520.9010735417|1.91475043941599|-3.028258000320171|-1.273673759355289|0.1972989439964294|-0.714069128036499|0.008961006067693233|-0.06035003438591957|-0.2240355014801025|-0.0106646716594696|XArbitraryZVertical|-0.6369582834252768|0.4896226618153621|-0.3790079915008774|0.4592459855197762|-0.03311007469892502|0.9561828970909119|0.2908924221992493|0|0|0|-1|-1|3
2021-03-03 00:36:32.936 +0000|217520.9409965417|-0.0661773681640625|0.79315185546875|0.3572998046875|217520.9210355417|1.916833715544048|-3.039779309565702|-1.277096240917841|0.1421996355056763|-0.634936511516571|-0.04478992894291878|-0.04699233546853065|-0.2027997970581055|0.02000132203102112|XArbitraryZVertical|-0.6387651664785904|0.4857754584451821|-0.3755978260975649|0.4636029713383769|-0.02942372485995293|0.9571792483329773|0.2879974544048309|0|0|0|-1|-1|3
2021-03-03 00:36:32.956 +0000|217520.9609585417|-0.0690155029296875|0.862091064453125|0.421966552734375|217520.9409965417|1.924185096999177|-3.044547728179817|-1.279017662911624|0.073551245033741|-0.5441422462463379|-0.1501068621873856|-0.03902271762490273|-0.1714482307434082|0.05697372555732727|XArbitraryZVertical|-0.6409451148598764|0.4820177087997866|-0.3727805904680475|0.4667794800497471|-0.02787184529006481|0.9577337503433228|0.2863034307956696|0|0|0|-1|-1|3
2021-03-03 00:36:32.976 +0000|217520.9809195417|-0.0797119140625|0.916717529296875|0.466461181640625|217520.9609585417|1.939111366195285|-3.040207521742411|-1.279133793789681|-0.01265717670321465|-0.4533395171165466|-0.2755537331104279|-0.03870716691017151|-0.1138034462928772|0.1199522018432617|XArbitraryZVertical|-0.6436917948652163|0.4782209894578168|-0.3707092727875018|0.4685512855404727|-0.02910291589796543|0.957767128944397|0.2860688865184784|0|0|0|-1|-1|3
2021-03-03 00:36:32.996 +0000|217521.0008815417|-0.087249755859375|0.9730377197265625|0.487762451171875|217520.9809195417|1.961599404405107|-3.026705662767984|-1.277790001458305|-0.04621701687574387|-0.3486545979976654|-0.3886746764183044|-0.0428939200937748|-0.05235040187835693|0.1735513508319855|XArbitraryZVertical|-0.6468962036068043|0.4743305739667687|-0.369510362032879|0.469039510116416|-0.03311014175415039|0.9573798775672913|0.2869283854961395|0|0|0|-1|-1|3
2021-03-03 00:36:33.016 +0000|217521.0208425417|-0.0934295654296875|1.003921508789062|0.47955322265625|217521.0008815417|1.990136102132322|-3.005432660375666|-1.274894151041822|-0.135316014289856|-0.2511211633682251|-0.4672084450721741|-0.04528731107711792|0.007861852645874023|0.1960964202880859|XArbitraryZVertical|-0.6504672956586821|0.4704725284505264|-0.3691293744459914|0.4682856450713873|-0.03958210721611977|0.9565394520759583|0.288904219865799|0|0|0|-1|-1|3
2021-03-03 00:36:33.036 +0000|217521.0408035417|-0.096038818359375|1.007110595703125|0.467926025390625|217521.0208425417|2.020965240008736|-2.980149739936281|-1.269310807693695|-0.2780485451221466|-0.1664775013923645|-0.5031111836433411|-0.04539364576339722|0.04511886835098267|0.1928685903549194|XArbitraryZVertical|-0.6545113164083177|0.4670695322780425|-0.3690754575374005|0.4660947918872425|-0.04773077368736267|0.9548964500427246|0.2930780351161957|0|0|0|-1|-1|3
2021-03-03 00:36:33.056 +0000|217521.0607655417|-0.0831756591796875|1.024612426757812|0.4587860107421875|217521.0408035417|2.04960139608304|-2.955408306546677|-1.260828180504293|-0.4056600034236908|-0.09116106480360031|-0.4904033541679382|-0.03884240984916687|0.05398917198181152|0.1698626279830933|XArbitraryZVertical|-0.6588970870373092|0.4644708776852103|-0.3689456258210396|0.4626020522464122|-0.05646403506398201|0.9523432850837708|0.2997571229934692|0|0|0|-1|-1|3
2021-03-03 00:36:33.076 +0000|217521.0807265417|-0.0767822265625|1.062423706054688|0.442169189453125|217521.0607655417|2.073350576731623|-2.934145527139568|-1.248761644294968|-0.4691470563411713|-0.04226527363061905|-0.4507386684417725|-0.02130009233951569|0.0697174072265625|0.1513167023658752|XArbitraryZVertical|-0.6637542648172274|0.4629109001456735|-0.3683115375656136|0.4577014356010022|-0.06518673896789551|0.9485934376716614|0.3097124397754669|0|0|0|-1|-1|3
2021-03-03 00:36:33.096 +0000|217521.1006885417|-0.0869293212890625|1.048355102539062|0.440399169921875|217521.0807265417|2.091458451342929|-2.917832302276565|-1.23474485589753|-0.4716720283031464|-0.02781778201460838|-0.4008452296257019|-0.003166362643241882|0.110379159450531|0.1257399916648865|XArbitraryZVertical|-0.6687504757344223|0.4621073231601794|-0.3671424261763826|0.4521459877801119|-0.0731734037399292|0.9440640807151794|0.3215407431125641|0|0|0|-1|-1|3
2021-03-03 00:36:33.116 +0000|217521.1206495417|-0.0804443359375|1.010513305664062|0.44476318359375|217521.1006885417|2.105432858217083|-2.905051096336378|-1.222932710433187|-0.4317810833454132|0.000192226842045784|-0.3167127668857574|-0.006174661219120026|0.1160188317298889|0.1069869101047516|XArbitraryZVertical|-0.6728425787290454|0.4614996543050694|-0.3662369913666316|0.4474052765528305|-0.07988492399454117|0.9401031136512756|0.3313981294631958|0|0|0|-1|-1|3
2021-03-03 00:36:33.136 +0000|217521.1406115417|-0.067291259765625|0.9611358642578125|0.4375|217521.1206495417|2.11481494434855|-2.895992218248635|-1.213966471864703|-0.3533141016960144|0.02447152137756348|-0.2067006230354309|0.001189582049846649|0.08644402027130127|0.1071905195713043|XArbitraryZVertical|-0.6757828804102213|0.4612260449504372|-0.3656694735050858|0.4437048693999324|-0.08492985367774963|0.9370088577270508|0.3388239443302155|0|0|0|-1|-1|3
2021-03-03 00:36:33.156 +0000|217521.1605725417|-0.0662078857421875|0.9590606689453125|0.4270782470703125|217521.1406115417|2.118195760546071|-2.89232369765901|-1.20761965292536|-0.2329798936843872|0.02624055184423923|-0.06887368857860565|0.01839317381381989|0.03672361373901367|0.09540045261383057|XArbitraryZVertical|-0.6776123206893885|0.4614918137348109|-0.3650871961243319|0.4411102928256238|-0.08763758838176727|0.9347730278968811|0.3442662954330444|0|0|0|-1|-1|3
2021-03-03 00:36:33.176 +0000|217521.1805345417|-0.0715484619140625|0.9789581298828125|0.427398681640625|217521.1605725417|2.116573950258906|-2.893277785653385|-1.204544634806113|-0.07452701777219772|0.03409048542380333|0.04539358243346214|0.02237173914909363|0.02074581384658813|0.08066117763519287|XArbitraryZVertical|-0.6782431180050412|0.4621183611134393|-0.3645995694045087|0.4398864597043821|-0.08801507949829102|0.9336762428283691|0.3471342027187347|0|0|0|-1|-1|3
2021-03-03 00:36:33.196 +0000|217521.2004955417|-0.071533203125|0.9687347412109375|0.4341583251953125|217521.1805345417|2.112232584917715|-2.896128058889622|-1.205333471974533|0.1116918846964836|0.08796772360801697|0.1194030940532684|0.01659469306468964|0.04046767950057983|0.07941776514053345|XArbitraryZVertical|-0.6775459697990218|0.4628885576058729|-0.3647229311668495|0.4400485936901478|-0.08684618771076202|0.9339584708213806|0.3466687202453613|0|0|0|-1|-1|3
2021-03-03 00:36:33.216 +0000|217521.2204565417|-0.090179443359375|0.9464111328125|0.4389495849609375|217521.2004955417|2.107167120822372|-2.898482494609915|-1.209944703329118|0.2826896011829376|0.1470388323068619|0.159211665391922|0.01551889628171921|0.03849411010742188|0.09302589297294617|XArbitraryZVertical|-0.6755583786191612|0.4636434594315167|-0.3658333759450874|0.4413859661891167|-0.0849921703338623|0.9355964660644531|0.3426887691020966|0|0|0|-1|-1|3
2021-03-03 00:36:33.236 +0000|217521.2404185417|-0.1028900146484375|0.94219970703125|0.4503021240234375|217521.2204565417|2.101731116465861|-2.899860872279828|-1.21722089795358|0.3578544557094574|0.2322229146957397|0.1954043954610825|-0.002805463969707489|0.01228344440460205|0.09871909022331238|XArbitraryZVertical|-0.6725821873060485|0.4644638709361946|-0.3678238127617372|0.4434097214375261|-0.08288789540529251|0.9381406903266907|0.3361869752407074|0|0|0|-1|-1|3
2021-03-03 00:36:33.256 +0000|217521.2603795417|-0.10357666015625|0.9208984375|0.45648193359375|217521.2404185417|2.094941616623781|-2.900647319968324|-1.225299876209432|0.3573405742645264|0.3257276713848114|0.2251375168561935|-0.0209638774394989|0.001612722873687744|0.120169997215271|XArbitraryZVertical|-0.6689563365694566|0.465765906503215|-0.37046394944953|0.4453268858143621|-0.0808122530579567|0.9409074187278748|0.3288809061050415|0|0|0|-1|-1|3
2021-03-03 00:36:33.276 +0000|217521.2803415417|-0.1077728271484375|0.918243408203125|0.4512481689453125|217521.2603795417|2.086068878712022|-2.901599309754675|-1.233043780414981|0.3223356008529663|0.4141875505447388|0.2466874569654465|-0.02328609675168991|-0.01717126369476318|0.1341693103313446|XArbitraryZVertical|-0.6649549231442945|0.4677285744359756|-0.3734691649150217|0.4467501178192834|-0.07876472920179367|0.9435017704963684|0.3218701481819153|0|0|0|-1|-1|3
2021-03-03 00:36:33.296 +0000|217521.3003025417|-0.1002655029296875|0.907806396484375|0.4379730224609375|217521.2803415417|2.073518907832358|-2.904498046521367|-1.238332057065235|0.2850292325019836|0.5033767819404602|0.2559270262718201|-0.03149581700563431|-0.02791291475296021|0.1361410915851593|XArbitraryZVertical|-0.6611126538035935|0.470692831307677|-0.3762387959040521|0.4470154449831276|-0.07665852457284927|0.9452409148216248|0.317243367433548|0|0|0|-1|-1|3
2021-03-03 00:36:33.316 +0000|217521.3202645417|-0.0943450927734375|0.8989410400390625|0.4320526123046875|217521.3003025417|2.060862402278616|-2.905739847336211|-1.243051344934207|0.2931768298149109|0.5812476873397827|0.2590480744838715|-0.02827915549278259|-0.03472226858139038|0.1290651559829712|XArbitraryZVertical|-0.6570716890764277|0.4740837873524458|-0.3794938366570709|0.4466384106126141|-0.07522125542163849|0.9467706680297852|0.3129972815513611|0|0|0|-1|-1|3
2021-03-03 00:36:33.336 +0000|217521.3402255417|-0.0931243896484375|0.8956146240234375|0.4377593994140625|217521.3202645417|2.049556472115898|-2.904252581358429|-1.247676740253725|0.3223400115966797|0.6425603032112122|0.2435357868671417|-0.02177941054105759|-0.04616516828536987|0.1263572871685028|XArbitraryZVertical|-0.6528368650400969|0.4776154542160822|-0.383331292675671|0.4458078391498638|-0.0746561735868454|0.9482494592666626|0.3086249828338623|0|0|0|-1|-1|3
2021-03-03 00:36:33.356 +0000|217521.3601875417|-0.0941314697265625|0.8898468017578125|0.45172119140625|217521.3402255417|2.03980734294997|-2.900105127231856|-1.252488491019083|0.3519585132598877|0.7008171677589417|0.2220896184444427|-0.0179450586438179|-0.05366325378417969|0.1292717754840851|XArbitraryZVertical|-0.648386421026111|0.4811806177560558|-0.3877174101189901|0.4446747591773799|-0.07484365999698639|0.9497663378715515|0.3038794696331024|0|0|0|-1|-1|3
2021-03-03 00:36:33.376 +0000|217521.3801485417|-0.0934295654296875|0.873291015625|0.4561920166015625|217521.3601875417|2.032330064561419|-2.892737270528391|-1.25729285304874|0.3618866801261902|0.749937117099762|0.1823153048753738|-0.01663469523191452|-0.06077128648757935|0.1497456729412079|XArbitraryZVertical|-0.6438273683165474|0.4846987884257391|-0.3926238064223452|0.443170346624838|-0.07595564424991608|0.9512589573860168|0.2988931834697723|0|0|0|-1|-1|3
2021-03-03 00:36:33.396 +0000|217521.4001096667|-0.0928955078125|0.8774871826171875|0.447113037109375|217521.3801485417|2.02682220569311|-2.882644711946611|-1.261457443471687|0.3272285759449005|0.793242871761322|0.1516903638839722|-0.01495753973722458|-0.07361352443695068|0.1607377231121063|XArbitraryZVertical|-0.6393476223196142|0.4882359077240515|-0.397828350546378|0.4411269000743485|-0.07795323431491852|0.9525350332260132|0.2942793667316437|0|0|0|-1|-1|3
2021-03-03 00:36:33.416 +0000|217521.4200716667|-0.1022186279296875|0.8912200927734375|0.4440155029296875|217521.4001096667|2.022107999617197|-2.871078734874712|-1.264827065996884|0.2614105343818665|0.8246777057647705|0.1141015440225601|-0.01060152053833008|-0.08075261116027832|0.1587719917297363|XArbitraryZVertical|-0.6349451466844946|0.4919110901767637|-0.4031528013149804|0.4385613285335251|-0.08049346506595612|0.9535554647445679|0.2902637124061584|0|0|0|-1|-1|3
2021-03-03 00:36:33.436 +0000|217521.4400326667|-0.1060943603515625|0.9083251953125|0.4714813232421875|217521.4200716667|2.018969387675379|-2.857164306926574|-1.266778840073109|0.2183421850204468|0.8941885828971863|0.05080193281173706|-0.01691970229148865|-0.06488978862762451|0.1550542116165161|XArbitraryZVertical|-0.6308043829952841|0.4957319370205502|-0.4085881554069263|0.4351912839512444|-0.08400196582078934|0.9541415572166443|0.2873286604881287|0|0|0|-1|-1|3
2021-03-03 00:36:33.456 +0000|217521.4599946667|-0.1345672607421875|0.9239349365234375|0.4771270751953125|217521.4400326667|2.019662277484135|-2.83805645483254|-1.26727330234015|0.1760012954473495|0.9700186252593994|-0.03647544980049133|-0.01694205403327942|-0.04955005645751953|0.1806453466415405|XArbitraryZVertical|-0.6269066292703104|0.4995982745807673|-0.4145329462401015|0.430757566662419|-0.08933542668819427|0.954289436340332|0.2852207124233246|0|0|0|-1|-1|3
2021-03-03 00:36:33.476 +0000|217521.4799556667|-0.2387237548828125|0.957244873046875|0.4904937744140625|217521.4599946667|2.025600302870803|-2.812931457579291|-1.266316189253684|0.1676409542560577|1.00049901008606|-0.1541956067085266|-0.02229669690132141|-0.03812456130981445|0.1970837116241455|XArbitraryZVertical|-0.6234167489555625|0.5032169032622626|-0.4209514219270996|0.4253520568493934|-0.09676764160394669|0.9540029168128967|0.2837513983249664|0|0|0|-1|-1|3
2021-03-03 00:36:33.496 +0000|217521.4999176667|-0.241546630859375|0.8611602783203125|0.482452392578125|217521.4799556667|2.037901661873638|-2.781091032369513|-1.264191191791138|0.1334819942712784|1.094741702079773|-0.2689754664897919|-0.1073395162820816|0.003713488578796387|0.2045916616916656|XArbitraryZVertical|-0.6203679179042422|0.506315342030812|-0.4279017944715068|0.4191522571191065|-0.1064666509628296|0.9533637166023254|0.2824231684207916|0|0|0|-1|-1|3
2021-03-03 00:36:33.516 +0000|217521.5198786667|-0.161163330078125|0.7769927978515625|0.434661865234375|217521.4999176667|2.053577756541776|-2.743086222781134|-1.259750371888942|-0.04745252430438995|1.237345218658447|-0.3423751890659332|-0.1350525617599487|-0.05877971649169922|0.2089093923568726|XArbitraryZVertical|-0.6174189160989187|0.5097354616352237|-0.4357017089922576|0.4112513681161335|-0.1187621429562569|0.9520139694213867|0.2820727229118347|0|0|0|-1|-1|3
2021-03-03 00:36:33.536 +0000|217521.5398396667|-0.0996246337890625|0.7533111572265625|0.34625244140625|217521.5198786667|2.063427712195751|-2.709541546709782|-1.250201775118515|-0.3637335896492004|1.210678815841675|-0.3264570236206055|-0.05137820541858673|-0.1580783724784851|0.1646324098110199|XArbitraryZVertical|-0.6153362042303719|0.5142450521628207|-0.4425848265972743|0.4012880327607297|-0.131956160068512|0.9490482211112976|0.2861732244491577|0|0|0|-1|-1|3
2021-03-03 00:36:33.556 +0000|217521.5598016667|-0.074066162109375|0.8095855712890625|0.3148956298828125|217521.5398396667|2.062637420847476|-2.687762182489541|-1.236585100642827|-0.6881922483444214|1.071808099746704|-0.2582904100418091|0.03133721649646759|-0.1895727515220642|0.0701242983341217|XArbitraryZVertical|-0.6142297483487464|0.5197421601233205|-0.4474109515536067|0.3904016964194069|-0.1438097953796387|0.9446693658828735|0.2948201894760132|0|0|0|-1|-1|3
2021-03-03 00:36:33.576 +0000|217521.5797626667|-0.0637969970703125|0.8717193603515625|0.302215576171875|217521.5598016667|2.054079022561475|-2.675799891870814|-1.220262867728009|-0.8483003377914429|0.9351291656494141|-0.2207895517349243|0.07563319802284241|-0.1508442759513855|0.01116251945495605|XArbitraryZVertical|-0.6140158018449899|0.5257302135201273|-0.4503014275281919|0.3792374109623671|-0.1542312502861023|0.9391896724700928|0.3068153262138367|0|0|0|-1|-1|3
2021-03-03 00:36:33.595 +0000|217521.5997246667|-0.082122802734375|0.895172119140625|0.2889556884765625|217521.5797626667|2.043269723912388|-2.669070511362781|-1.203732068868221|-0.7607110142707825|0.7486938834190369|-0.1958867758512497|0.1011570990085602|-0.07307928800582886|-0.01101928949356079|XArbitraryZVertical|-0.6143740526852047|0.5313383692351688|-0.4518905655777152|0.3688073590494829|-0.1633366793394089|0.9333849549293518|0.3195518851280212|0|0|0|-1|-1|3
2021-03-03 00:36:33.615 +0000|217521.6196856667|-0.083160400390625|0.9117279052734375|0.2450103759765625|217521.5997246667|2.036226840181235|-2.662098332418295|-1.190440389117268|-0.5382895469665527|0.612999439239502|-0.1797101050615311|0.09485338628292084|-0.03441333770751953|-0.03444722294807434|XArbitraryZVertical|-0.6146959262267395|0.5355754566424278|-0.453275881011262|0.3603453832742601|-0.1712693870067596|0.9285325407981873|0.3293842971324921|0|0|0|-1|-1|3
2021-03-03 00:36:33.635 +0000|217521.6396476667|-0.068695068359375|0.9437408447265625|0.224945068359375|217521.6196856667|2.033528730426159|-2.653139521850373|-1.181365450876583|-0.341916412115097|0.5388081073760986|-0.1518526524305344|0.09323000907897949|-0.02401745319366455|-0.08062565326690674|XArbitraryZVertical|-0.614505128840758|0.5385309890237708|-0.4551077298089359|0.3538994487857114|-0.1781604290008545|0.9251253008842468|0.3352643549442291|0|0|0|-1|-1|3
2021-03-03 00:36:33.655 +0000|217521.6596086667|-0.066131591796875|0.988250732421875|0.2375946044921875|217521.6396476667|2.032447923511752|-2.644185098317422|-1.175256201080348|-0.230476126074791|0.4583343863487244|-0.1020448729395866|0.1138412803411484|0.01085090637207031|-0.1147239506244659|XArbitraryZVertical|-0.6138971192175764|0.5407757369022772|-0.457103268746877|0.3489248096583898|-0.1838486194610596|0.9227885603904724|0.3386161327362061|0|0|0|-1|-1|3
2021-03-03 00:36:33.675 +0000|217521.6795706667|-0.0677642822265625|1.045974731445312|0.28466796875|217521.6596086667|2.032013653196895|-2.636022394515581|-1.171179216342172|-0.1314024031162262|0.4076662063598633|-0.08528835326433182|0.1211511492729187|0.05686324834823608|-0.1078645884990692|XArbitraryZVertical|-0.6130609999076015|0.5425429675280723|-0.4590543622198439|0.3450689237197249|-0.188427209854126|0.9212100505828857|0.3403933346271515|0|0|0|-1|-1|3
2021-03-03 00:36:33.695 +0000|217521.6995316667|-0.0882110595703125|1.136383056640625|0.35150146484375|217521.6795706667|2.034362420285239|-2.626061627107178|-1.168951916918405|-0.01001054421067238|0.3762043118476868|-0.1096997782588005|0.1264132559299469|0.1070332527160645|-0.06823500990867615|XArbitraryZVertical|-0.612036165729022|0.5436485665101546|-0.4613609309126368|0.3420588412055956|-0.1928195506334305|0.9203411936759949|0.3402840495109558|0|0|0|-1|-1|3
2021-03-03 00:36:33.715 +0000|217521.7194926667|-0.1291656494140625|1.155303955078125|0.40313720703125|217521.6995316667|2.04165426600996|-2.612197512385689|-1.168685743769848|0.1183191016316414|0.3464228212833405|-0.1514894813299179|0.1179147660732269|0.193959653377533|-0.005223661661148071|XArbitraryZVertical|-0.610885535103629|0.5437953036485862|-0.4643162752595763|0.3398762941341427|-0.1976419240236282|0.9202370643615723|0.3377889394760132|0|0|0|-1|-1|3
2021-03-03 00:36:33.735 +0000|217521.7394546667|-0.154541015625|1.089141845703125|0.419189453125|217521.7194926667|2.053466559374056|-2.594443327105842|-1.169547271683153|0.1740509867668152|0.3496085107326508|-0.1990940123796463|0.0844968855381012|0.2400400042533875|0.06044751405715942|XArbitraryZVertical|-0.6097125046910838|0.5431624776214254|-0.4678579067827451|0.3381332577639029|-0.2031950354576111|0.920573890209198|0.3335496187210083|0|0|0|-1|-1|3
2021-03-03 00:36:33.755 +0000|217521.7594156667|-0.1805419921875|1.07525634765625|0.4117431640625|217521.7394546667|2.064794008904432|-2.577211203751134|-1.170934792694461|0.04232078790664673|0.3460753262042999|-0.2381695955991745|0.05835708975791931|0.1884583830833435|0.08848494291305542|XArbitraryZVertical|-0.6083432835196541|0.5425662002872462|-0.4713909283703916|0.3366465511485271|-0.2082289308309555|0.9211149215698242|0.3289192616939545|0|0|0|-1|-1|3
2021-03-03 00:36:33.775 +0000|217521.7793776667|-0.21295166015625|1.123641967773438|0.368927001953125|217521.7594156667|2.071925827232584|-2.564388943050413|-1.166920462344968|-0.2283579558134079|0.2817970514297485|-0.208278015255928|0.04366898536682129|0.1509966850280762|0.08524751663208008|XArbitraryZVertical|-0.6084034419955293|0.5426827043659748|-0.4735436342211467|0.333312436073145|-0.2144453674554825|0.9195447564125061|0.3293185234069824|0|0|0|-1|-1|3
2021-03-03 00:36:33.795 +0000|217521.7993386667|-0.2118377685546875|1.1158447265625|0.291351318359375|217521.7793776667|2.069346370493973|-2.561576649408428|-1.159036028783657|-0.4817178845405579|0.2380240261554718|-0.1236488819122314|0.01175670325756073|0.2008002996444702|0.04760167002677917|XArbitraryZVertical|-0.6093009401588519|0.5441842435610594|-0.4737470221744456|0.3289067641575652|-0.2193372547626495|0.9164177179336548|0.3347682654857635|0|0|0|-1|-1|3
2021-03-03 00:36:33.815 +0000|217521.8193006667|-0.1893157958984375|1.076187133789062|0.2076263427734375|217521.7993386667|2.057516865420034|-2.568184041684793|-1.149268863419608|-0.5743016004562378|0.1767732203006744|-0.003299654694274068|0.008480340242385864|0.2069960832595825|-0.02807009220123291|XArbitraryZVertical|-0.6104261587726377|0.5470252554219275|-0.4722995874350681|0.3241550395740312|-0.2219660580158234|0.9124650359153748|0.3437134623527527|0|0|0|-1|-1|3
2021-03-03 00:36:33.835 +0000|217521.8392616667|-0.16168212890625|1.010467529296875|0.1488494873046875|217521.8193006667|2.039875953812134|-2.581691352097161|-1.14066672449871|-0.513582706451416|0.07351890951395035|0.1522704064846039|0.02694493532180786|0.1813137531280518|-0.1245277225971222|XArbitraryZVertical|-0.6112034568313301|0.5505355653608123|-0.4697696785713397|0.3204022155692716|-0.221464067697525|0.9089117050170898|0.3533181548118591|0|0|0|-1|-1|3
2021-03-03 00:36:33.855 +0000|217521.8592226667|-0.126617431640625|0.9841766357421875|0.1159515380859375|217521.8392616667|2.019852720146231|-2.599507743424045|-1.135667111680277|-0.3399958908557892|-0.03338613361120224|0.2955772578716278|0.04853063821792603|0.1172323226928711|-0.1990623474121094|XArbitraryZVertical|-0.6112491687109677|0.5540055925786744|-0.466765866358725|0.3187192730109772|-0.2174759805202484|0.9068155884742737|0.3610954880714417|0|0|0|-1|-1|3
2021-03-03 00:36:33.875 +0000|217521.8791846667|-0.1156768798828125|0.988677978515625|0.081085205078125|217521.8592226667|1.999707535810211|-2.619458965856208|-1.135078752891495|-0.1447078585624695|-0.1367221623659134|0.4011265635490417|0.07569879293441772|0.0811036229133606|-0.2476453483104706|XArbitraryZVertical|-0.6104590122783751|0.5570028488641721|-0.4637924466995259|0.3193498496299885|-0.2104950100183487|0.906567394733429|0.3658247590065002|0|0|0|-1|-1|3
2021-03-03 00:36:33.895 +0000|217521.8991456667|-0.0950164794921875|0.9613037109375|0.054595947265625|217521.8791846667|1.981131014687557|-2.639745185328742|-1.138994635155604|0.1078899577260017|-0.2005791217088699|0.4662212431430817|0.08350834250450134|0.07964074611663818|-0.2781892120838165|XArbitraryZVertical|-0.608883539449018|0.5592072215069216|-0.4612326991153842|0.3221994555993427|-0.201321467757225|0.908213198184967|0.3669037520885468|0|0|0|-1|-1|3
2021-03-03 00:36:33.915 +0000|217521.9191076667|-0.0796051025390625|0.941314697265625|0.015960693359375|217521.8991456667|1.966311471188372|-2.657625475733457|-1.147298619643583|0.3372030556201935|-0.2492427378892899|0.4536243081092834|0.08981901407241821|0.06130445003509521|-0.2971520125865936|XArbitraryZVertical|-0.6065650376501045|0.560318855909001|-0.4596144049340202|0.3269195152603336|-0.1912137269973755|0.9116571545600891|0.3637567162513733|0|0|0|-1|-1|3
2021-03-03 00:36:33.935 +0000|217521.9390686667|-0.072662353515625|0.9671173095703125|-0.033966064453125|217521.9191076667|1.957506215324519|-2.671283146788537|-1.159144098534069|0.5330202579498291|-0.3085940480232239|0.4008052945137024|0.09854240715503693|0.02345007658004761|-0.3308187425136566|XArbitraryZVertical|-0.6039753500909011|0.5599597820485449|-0.4589835837748125|0.3331562145586913|-0.181321382522583|0.9164609909057617|0.3566823601722717|0|0|0|-1|-1|3
2021-03-03 00:36:33.955 +0000|217521.9590306667|-0.089141845703125|0.9773406982421875|-0.033905029296875|217521.9390686667|1.955563000563827|-2.680385618541738|-1.173433402558855|0.6996517777442932|-0.4278742372989655|0.3047409951686859|0.09926877915859222|0.0345650315284729|-0.3728753626346588|XArbitraryZVertical|-0.6015772365494132|0.5580159767641819|-0.4590549395043391|0.3405753327027725|-0.1722210496664047|0.9220846891403198|0.3465540111064911|0|0|0|-1|-1|3
2021-03-03 00:36:33.975 +0000|217521.9789916667|-0.0888671875|0.976593017578125|-0.0266876220703125|217521.9590306667|1.964736121238245|-2.680979606927584|-1.193763137238957|0.784745454788208|-0.5122722387313843|0.1665962636470795|0.08065517246723175|0.05082976818084717|-0.3620049059391022|XArbitraryZVertical|-0.5986049465758655|0.5536866647090961|-0.4607907552732311|0.3503926982384821|-0.1636477261781693|0.9297609925270081|0.3297936022281647|0|0|0|-1|-1|3
2021-03-03 00:36:33.995 +0000|217521.9989536667|-0.0556182861328125|0.9429931640625|0.0230865478515625|217521.9789916667|1.984681346286376|-2.671780056700204|-1.215222858715445|0.8678223490715027|-0.4799319207668304|0.02389441430568695|0.06512081623077393|0.0409618616104126|-0.3433228731155396|XArbitraryZVertical|-0.5959121768592306|0.5478079327576086|-0.4635643835626611|0.3604209865421791|-0.1576043665409088|0.9374470114707947|0.3104096949100494|0|0|0|-1|-1|3
2021-03-03 00:36:34.015 +0000|217522.0189146667|-0.0429840087890625|0.9204559326171875|0.082855224609375|217521.9989536667|2.014934261010046|-2.652138639871535|-1.236445707950527|0.9121873378753662|-0.4537999927997589|-0.09157518297433853|0.09162801504135132|0.00457996129989624|-0.2870179414749146|XArbitraryZVertical|-0.5934722538616017|0.5409290757627816|-0.4672169346253671|0.3699929987302455|-0.1542806327342987|0.944623589515686|0.2896271646022797|0|0|0|-1|-1|3
2021-03-03 00:36:34.035 +0000|217522.0388756667|-0.0361785888671875|0.8892059326171875|0.1222076416015625|217522.0189146667|2.054111092536486|-2.623458181386124|-1.256770178085822|0.8643671274185181|-0.4452723860740662|-0.1646106094121933|0.1069456785917282|-0.02415657043457031|-0.2003236711025238|XArbitraryZVertical|-0.5912964762281959|0.5334249593908093|-0.4713193085908251|0.379057456882575|-0.1529814749956131|0.9510976672172546|0.2683474123477936|0|0|0|-1|-1|3
2021-03-03 00:36:34.055 +0000|217522.0588376667|-0.041229248046875|0.884002685546875|0.116973876953125|217522.0388756667|2.095291814461796|-2.592563713961625|-1.273962523219179|0.6383157968521118|-0.4578066170215607|-0.1692028790712357|0.1171486526727676|-0.05934053659439087|-0.1338449865579605|XArbitraryZVertical|-0.5897465753461939|0.5262625390112535|-0.4748010067789123|0.387053885888412|-0.1526406109333038|0.9562673568725586|0.2495065629482269|0|0|0|-1|-1|3
2021-03-03 00:36:34.075 +0000|217522.0787986667|-0.0501251220703125|0.8813934326171875|0.1246185302734375|217522.0588376667|2.128439350651937|-2.56935207735738|-1.285514974092431|0.2769789695739746|-0.4719543159008026|-0.1409119367599487|0.1124197691679001|-0.07905882596969604|-0.1080379635095596|XArbitraryZVertical|-0.5893842402689333|0.5205024984219073|-0.4765398453531968|0.393208808779194|-0.1523978114128113|0.959582507610321|0.2365932613611221|0|0|0|-1|-1|3
2021-03-03 00:36:34.095 +0000|217522.0987606667|-0.0380859375|0.9038238525390625|0.1295928955078125|217522.0787986667|2.140960007074765|-2.566376277665552|-1.28671485599279|0.02141986601054668|-0.435318797826767|-0.09411761909723282|0.1036771535873413|-0.07785463333129883|-0.1147348880767822|XArbitraryZVertical|-0.5915571450864019|0.5173455561459962|-0.4750815018970541|0.3958678340555077|-0.1524747908115387|0.9599195122718811|0.2351725548505783|0|0|0|-1|-1|3
2021-03-03 00:36:34.114 +0000|217522.1187216667|-0.0279388427734375|0.9416961669921875|0.1455841064453125|217522.0987606667|2.142988044870997|-2.573062685930506|-1.285158756200332|-0.08954565227031708|-0.4359950125217438|-0.03944327682256699|0.1083376407623291|-0.07349580526351929|-0.1152836084365845|XArbitraryZVertical|-0.5941418155306711|0.5154786810181561|-0.4725264855555503|0.3974872063450174|-0.1517031192779541|0.9594821929931641|0.2374455332756042|0|0|0|-1|-1|3
2021-03-03 00:36:34.134 +0000|217522.1386836667|-0.0520172119140625|0.9419097900390625|0.163848876953125|217522.1187216667|2.140742829605523|-2.584190411257554|-1.283071758448213|-0.08908615261316299|-0.4831840395927429|-0.01617062278091908|0.1223088204860687|-0.009062886238098145|-0.09117460250854492|XArbitraryZVertical|-0.5968225287943725|0.5140151939073745|-0.469427879639728|0.3990348142563781|-0.1501103490591049|0.9588920474052429|0.2408175021409988|0|0|0|-1|-1|3
2021-03-03 00:36:34.154 +0000|217522.1586446667|-0.078704833984375|1.041091918945312|0.1762237548828125|217522.1386836667|2.138568135643878|-2.596643476524728|-1.282452378911891|-0.001196578959934413|-0.5640682578086853|0.048756442964077|0.1045456081628799|-0.02788424491882324|-0.08254638314247131|XArbitraryZVertical|-0.5993658665410977|0.5121995822295076|-0.4660685157938274|0.401487590297567|-0.1474075615406036|0.958716094493866|0.2431757152080536|0|0|0|-1|-1|3
2021-03-03 00:36:34.174 +0000|217522.1786056667|-0.0861968994140625|1.102996826171875|0.2135467529296875|217522.1586446667|2.135260734535381|-2.611615388612873|-1.284364296231352|0.1091555133461952|-0.6218342781066895|0.1274010986089706|0.06744545698165894|0.05502444505691528|-0.07234150171279907|XArbitraryZVertical|-0.6014146870479404|0.5100856863228559|-0.4624635780622613|0.4052660751431447|-0.1428239345550537|0.9592580199241638|0.2437740713357925|0|0|0|-1|-1|3
2021-03-03 00:36:34.194 +0000|217522.1985676667|-0.108428955078125|1.190948486328125|0.2453155517578125|217522.1786056667|2.129786576202441|-2.630028034624065|-1.290060159704908|0.2067009210586548|-0.6898107528686523|0.1825951188802719|0.05161948502063751|0.1302891969680786|-0.03964385390281677|XArbitraryZVertical|-0.602532985642685|0.5076918242138363|-0.4587174094220049|0.4108302690458788|-0.1356344074010849|0.9608517289161682|0.2415939718484879|0|0|0|-1|-1|3
2021-03-03 00:36:34.214 +0000|217522.2185286667|-0.1962738037109375|1.215667724609375|0.2500457763671875|217522.1985676667|2.12428598723379|-2.649962790861377|-1.298500856699417|0.2773513793945312|-0.7811020016670227|0.1661614626646042|0.02863070368766785|0.2029358744621277|-0.0005645751953125|XArbitraryZVertical|-0.6031333425123526|0.5047531114064351|-0.4548807010112041|0.4177775873890231|-0.126958355307579|0.9631561040878296|0.237091064453125|0|0|0|-1|-1|3
2021-03-03 00:36:34.234 +0000|217522.2384906667|-0.2388153076171875|1.104263305664062|0.221160888671875|217522.2185286667|2.122399240888622|-2.668548009709039|-1.305744051412268|0.3345105350017548|-0.8714956045150757|0.2180343270301819|-0.05109230428934097|0.2561277747154236|0.01845546066761017|XArbitraryZVertical|-0.6046695911449383|0.5009699297847171|-0.4505718573274185|0.4247219574299533|-0.1193483397364616|0.9650788307189941|0.2331923693418503|0|0|0|-1|-1|3
2021-03-03 00:36:34.254 +0000|217522.2584516667|-0.1554412841796875|0.98699951171875|0.17144775390625|217522.2384906667|2.115793352249415|-2.691320645941386|-1.313710368920353|0.3044923543930054|-0.7436099648475647|0.2753381729125977|-0.1316361725330353|0.173459529876709|0.006186604499816895|XArbitraryZVertical|-0.6057122327183843|0.4975671765494328|-0.4461163323393664|0.4318794482480525|-0.110658161342144|0.9671350121498108|0.2289208024740219|0|0|0|-1|-1|3
