loggingTime(txt)|accelerometerTimestamp_sinceReboot(s)|accelerometerAccelerationX(G)|accelerometerAccelerationY(G)|accelerometerAccelerationZ(G)|motionTimestamp_sinceReboot(s)|motionYaw(rad)|motionRoll(rad)|motionPitch(rad)|motionRotationRateX(rad/s)|motionRotationRateY(rad/s)|motionRotationRateZ(rad/s)|motionUserAccelerationX(G)|motionUserAccelerationY(G)|motionUserAccelerationZ(G)|motionAttitudeReferenceFrame(txt)|motionQuaternionX(R)|motionQuaternionY(R)|motionQuaternionZ(R)|motionQuaternionW(R)|motionGravityX(G)|motionGravityY(G)|motionGravityZ(G)|motionMagneticFieldX(µT)|motionMagneticFieldY(µT)|motionMagneticFieldZ(µT)|motionHeading(°)|motionMagneticFieldCalibrationAccuracy(Z)|label
2021-04-22 21:07:53.759 +0100|138644.49578325|0.2602081298828125|-0.4617156982421875|-0.857177734375|138644.48081225|0.7320663439721685|0.1724715120437062|0.1563366960239939|0.8486403822898865|0.1841763108968735|-0.8746972680091858|-0.04417350888252258|-0.1819295287132263|0.1719860434532166|XArbitraryZVertical|0.04191215445971629|0.108022883688288|0.3617754663702956|0.9250368397007366|0.1695247143507004|-0.1557006388902664|-0.9731488823890686|0|0|0|-1|-1|3
2021-04-22 21:07:53.767 +0100|138644.51574525|0.30206298828125|-0.40704345703125|-0.8817138671875|138644.50077325|0.7140309304145749|0.1778002630492657|0.1651164994688724|0.3368215262889862|0.002979938872158527|-0.8028448820114136|0.07792118191719055|-0.3216088712215424|0.1338430047035217|XArbitraryZVertical|0.04603732040823193|0.1116072768593944|0.3537734999161076|0.9275067752802999|0.1744594424962997|-0.1643672436475754|-0.9708487391471863|0|0|0|-1|-1|3
2021-04-22 21:07:53.769 +0100|138644.53570725|0.2541046142578125|-0.252685546875|-0.922760009765625|138644.52073525|0.6961859828972794|0.1785632859254582|0.1658599645638569|0.1076543033123016|-0.2009768784046173|-0.9102290868759155|0.1274188607931137|-0.2955001890659332|0.09113913774490356|XArbitraryZVertical|0.04724726834625953|0.1116703943687295|0.3455223978391005|0.9305438515185186|0.1751784235239029|-0.165100559592247|-0.9705948233604431|0|0|0|-1|-1|3
2021-04-22 21:07:53.785 +0100|138644.55566925|0.2107391357421875|-0.23095703125|-0.9585418701171875|138644.54069725|0.6781580766478081|0.1780590553325004|0.1700485486286609|0.4543918967247009|-0.2036828994750977|-0.7572459578514099|0.09621772170066833|-0.09648530185222626|0.04772204160690308|XArbitraryZVertical|0.05030240595218782|0.1116812518662847|0.3372251890404492|0.9334219043116451|0.1745649725198746|-0.169230192899704|-0.9699939489364624|0|0|0|-1|-1|3
2021-04-22 21:07:53.805 +0100|138644.57563125|0.336395263671875|-0.29180908203125|-0.983062744140625|138644.56065925|0.6611747935009916|0.1798726214972634|0.1851119207103704|0.8493193387985229|-0.06783963739871979|-0.7210562229156494|0.02926105260848999|-0.05390322208404541|0.02351510524749756|XArbitraryZVertical|0.05803689479702055|0.1144675939310689|0.3297546178599322|0.9353025199803893|0.1758477836847305|-0.1840565502643585|-0.9670577645301819|0|0|0|-1|-1|3
2021-04-22 21:07:53.825 +0100|138644.59559325|0.2852325439453125|-0.328765869140625|-0.985809326171875|138644.58062125|0.6436244472506399|0.1815911416999676|0.2043891491907607|0.6774232983589172|-0.2629136145114899|-0.6928242444992065|0.1321396827697754|-0.05942001938819885|-0.01507985591888428|XArbitraryZVertical|0.06785265778580586|0.1177009812081633|0.3221151518438209|0.9369015676672486|0.1768357306718826|-0.2029690593481064|-0.9630849957466125|0|0|0|-1|-1|3
2021-04-22 21:07:53.845 +0100|138644.61555525|0.2476806640625|-0.3019256591796875|-1.029464721679688|138644.60058425|0.6287962620851564|0.1807193736395208|0.2158622004370856|0.1699668318033218|-0.3159269690513611|-0.5596004128456116|0.137483537197113|-0.1061522662639618|-0.0253826379776001|XArbitraryZVertical|0.07428069954210553|0.1184906545202627|0.3154343986724102|0.9385859484102056|0.1755659580230713|-0.2141896933317184|-0.960884690284729|0|0|0|-1|-1|3
2021-04-22 21:07:53.865 +0100|138644.63551725|0.270477294921875|-0.2269134521484375|-1.050949096679688|138644.62054625|0.6191203298447268|0.1797467410477179|0.2132112356801326|-0.4068057239055634|-0.2248372435569763|-0.4217997491359711|0.0702936202287674|-0.1104667037725449|-0.05697512626647949|XArbitraryZVertical|0.07375022699083654|0.1172849810825192|0.3107838395894117|0.940328996677107|0.1747321784496307|-0.2115995138883591|-0.9616102576255798|0|0|0|-1|-1|3
2021-04-22 21:07:53.884 +0100|138644.65547925|0.1912841796875|-0.2230224609375|-0.98388671875|138644.64050825|0.6131914754181874|0.1768445416734917|0.2038719162634968|-0.4587423205375671|-0.2978671789169312|-0.3001280725002289|0.09836445748806|-0.03830479085445404|-0.08652055263519287|XArbitraryZVertical|0.07012106847224261|0.1143445447090994|0.307642200580136|0.9420004286824836|0.1722808182239532|-0.2024625688791275|-0.9640167355537415|0|0|0|-1|-1|3
2021-04-22 21:07:53.904 +0100|138644.67544125|0.05352783203125|-0.2053680419921875|-0.9363555908203125|138644.66047025|0.6086819149884327|0.1730266495319166|0.1947547472426794|-0.4321539103984833|-0.3190763294696808|-0.3170101940631866|0.0559590756893158|-0.0279085636138916|-0.0331578254699707|XArbitraryZVertical|0.06663873003059884|0.1110695953448917|0.3051439898040352|0.9434564966554231|0.1689098477363586|-0.1935259252786636|-0.9664456248283386|0|0|0|-1|-1|3
2021-04-22 21:07:53.930 +0100|138644.69540325|0.05291748046875|-0.1922760009765625|-0.9058074951171875|138644.68043225|0.6005664520090244|0.172746482020799|0.1893584682951508|-0.07855578511953354|-0.1377178430557251|-0.5606527924537659|-0.0913928896188736|-0.02273809909820557|0.02172195911407471|XArbitraryZVertical|0.06456851221838092|0.10989581086392|0.3011587040470108|0.9450172007389352|0.1688161194324493|-0.1882288753986359|-0.9675076603889465|0|0|0|-1|-1|3
2021-04-22 21:07:53.944 +0100|138644.71536525|0.0717926025390625|-0.2600555419921875|-0.8854522705078125|138644.70039425|0.5876411459843663|0.1745404743030611|0.1953055843180979|0.6289410591125488|-0.09572863578796387|-0.5297764539718628|-0.1275226026773453|0.006979376077651978|0.04944229125976562|XArbitraryZVertical|0.06784209538956101|0.1111557118917218|0.2952681246753183|0.9464981937974536|0.1703541427850723|-0.1940663158893585|-0.9660837054252625|0|0|0|-1|-1|3
2021-04-22 21:07:53.964 +0100|138644.73532825|0.0829620361328125|-0.3225250244140625|-0.889373779296875|138644.72035625|0.5762503248060034|0.1749271824936381|0.2089029675202202|0.7283996939659119|-0.173717126250267|-0.3262633681297302|-0.1009014099836349|-0.03096963465213776|0.07494789361953735|XArbitraryZVertical|0.0748954253712303|0.1128080861956534|0.2902582517551135|0.9473201231825802|0.1702527105808258|-0.2073868364095688|-0.9633300304412842|0|0|0|-1|-1|3
2021-04-22 21:07:53.984 +0100|138644.75529025|0.055023193359375|-0.2389984130859375|-0.8916778564453125|138644.74031825|0.5696968751902745|0.1714442165015136|0.2174110375130665|0.1875071376562119|-0.2962678074836731|-0.1299557387828827|-0.09063100814819336|-0.08901461958885193|0.07411247491836548|XArbitraryZVertical|0.07982005101172152|0.1120576303886705|0.2872419719201344|0.9479261243786574|0.1665893793106079|-0.2157023400068283|-0.9621437191963196|0|0|0|-1|-1|3
2021-04-22 21:07:54.004 +0100|138644.77525225|0.1136322021484375|-0.25927734375|-0.8811798095703125|138644.76028025|0.5687529907794523|0.1644722449216208|0.2162986081597874|-0.23605777323246|-0.3436511158943176|-0.01007833145558834|-0.1079449951648712|-0.04012846946716309|0.07286214828491211|XArbitraryZVertical|0.08034186762030181|0.108564479669143|0.2864876286926008|0.9485166414594933|0.1599165350198746|-0.2146159559488297|-0.9635179042816162|0|0|0|-1|-1|3
2021-04-22 21:07:54.024 +0100|138644.79521425|0.0476226806640625|-0.2611083984375|-0.8852081298828125|138644.78024225|0.5710764947472763|0.1529477262093648|0.2082831333389648|-0.5764262080192566|-0.5363506078720093|0.05715956166386604|-0.04296492040157318|-0.04921519756317139|0.08014017343521118|XArbitraryZVertical|0.07804973105394734|0.1021041781223622|0.2869494925998042|0.9492855296145088|0.1490593701601028|-0.2067804485559464|-0.9669659733772278|0|0|0|-1|-1|3
2021-04-22 21:07:54.044 +0100|138644.81517625|-0.0009002685546875|-0.228546142578125|-0.9114990234375|138644.80020425|0.5755013841129374|0.1388727372543128|0.1951854475955664|-0.8253600597381592|-0.5990009903907776|0.1277797669172287|-0.06598925590515137|-0.06738774478435516|0.08951747417449951|XArbitraryZVertical|0.073610290414219|0.09379725371015706|0.288247402352301|0.9501038123499579|0.135798305273056|-0.1939484626054764|-0.9715672135353088|0|0|0|-1|-1|3
2021-04-22 21:07:54.064 +0100|138644.83513825|-0.0240020751953125|-0.19976806640625|-0.9670562744140625|138644.82016625|0.5810564124235447|0.1257656705236581|0.1791768339207306|-0.9152243137359619|-0.5455540418624878|0.1718887984752655|-0.1165292114019394|-0.05797009170055389|0.07373785972595215|XArbitraryZVertical|0.06762056152077743|0.08554480072130499|0.2901323247853547|0.9507538787148058|0.1234262809157372|-0.1782196462154388|-0.976219117641449|0|0|0|-1|-1|3
2021-04-22 21:07:54.084 +0100|138644.85510025|-0.0700836181640625|-0.1791534423828125|-1.023849487304688|138644.84012925|0.5864684086532609|0.1145433797409424|0.1621494659647843|-0.8551260828971863|-0.4803510904312134|0.1563115268945694|-0.1317756772041321|-0.03873911499977112|0.0273820161819458|XArbitraryZVertical|0.06091088451474151|0.07798761468678585|0.2920658217970358|0.9512652439743133|0.1127938404679298|-0.1614398509263992|-0.9804155826568604|0|0|0|-1|-1|3
2021-04-22 21:07:54.104 +0100|138644.87506225|-0.1050262451171875|-0.15692138671875|-1.081253051757812|138644.86009125|0.5909048232450826|0.1053312566244039|0.1472687667126278|-0.8074067234992981|-0.3807986676692963|0.1052333489060402|-0.1611426174640656|-0.03999897837638855|-0.02254766225814819|XArbitraryZVertical|0.05499644866784181|0.07161514588869805|0.2936859441497432|0.951627723578522|0.1039985492825508|-0.1467370092868805|-0.9836933016777039|0|0|0|-1|-1|3
2021-04-22 21:07:54.124 +0100|138644.89502425|-0.09356689453125|-0.1446075439453125|-1.099273681640625|138644.88005325|0.594276926794698|0.09857421736814026|0.135739122922969|-0.6115868091583252|-0.242390513420105|0.08566372841596603|-0.1974848806858063|-0.02809788286685944|-0.08436667919158936|XArbitraryZVertical|0.05037535107172765|0.0668315606893803|0.2949512069330627|0.9518402457958194|0.09750939905643463|-0.1353226751089096|-0.9859917163848877|0|0|0|-1|-1|3
2021-04-22 21:07:54.144 +0100|138644.91498725|-0.0712738037109375|-0.144744873046875|-1.077987670898438|138644.90001525|0.5969881259238419|0.0931271199424055|0.1300887360654093|-0.2340740263462067|-0.1282884478569031|0.0862736776471138|-0.1914041042327881|-0.0167459100484848|-0.1135306358337402|XArbitraryZVertical|0.04839739772910869|0.06348849945434222|0.296032913066287|0.9518358719057334|0.09220682084560394|-0.1297221332788467|-0.9872537851333618|0|0|0|-1|-1|3
2021-04-22 21:07:54.164 +0100|138644.93494925|-0.0706329345703125|-0.154998779296875|-1.028839111328125|138644.91997725|0.5991964924296739|0.08896663648578183|0.1311007535888452|0.108629897236824|-0.06391605734825134|0.091462142765522|-0.1635719984769821|-0.009227007627487183|-0.1005762219429016|XArbitraryZVertical|0.04942756040603741|0.06170986869721979|0.2969942730489585|0.9516004149919488|0.08808686584234238|-0.1307255327701569|-0.9874976277351379|0|0|0|-1|-1|3
2021-04-22 21:07:54.184 +0100|138644.95491125|-0.06610107421875|-0.1704864501953125|-0.99151611328125|138644.93993925|0.6001795600916463|0.08796629590755574|0.1358216853032614|0.3488407135009766|-0.02386360615491867|0.05031292885541916|-0.1565932631492615|-0.01735018193721771|-0.05652821063995361|XArbitraryZVertical|0.05179582362582151|0.06194718590915691|0.2974896719268981|0.9513042907398093|0.08704379945993423|-0.1354044675827026|-0.9869594573974609|0|0|0|-1|-1|3
2021-04-22 21:07:54.204 +0100|138644.97487325|-0.070526123046875|-0.2147064208984375|-0.9614105224609375|138644.95990125|0.6000670949441446|0.08770003993115723|0.1443679461061656|0.4748623669147491|-0.01777530089020729|0.02406374737620354|-0.1535861790180206|-0.02243748307228088|-0.01687657833099365|XArbitraryZVertical|0.05591108601313719|0.06306373125443321|0.2975194985803843|0.9509885070176932|0.08667649328708649|-0.1438669860363007|-0.9857938289642334|0|0|0|-1|-1|3
2021-04-22 21:07:54.224 +0100|138644.99483525|-0.083648681640625|-0.25|-0.948455810546875|138644.97986325|0.5998612694722192|0.0871509104293911|0.153586978780459|0.4157976806163788|-0.03729398176074028|0.04261559247970581|-0.1529562473297119|-0.04846160113811493|0.01856613159179688|XArbitraryZVertical|0.06039099928145365|0.06413941345225503|0.2974963065787954|0.9506498362963054|0.08601604402065277|-0.1529838591814041|-0.9844781160354614|0|0|0|-1|-1|3
2021-04-22 21:07:54.244 +0100|138645.01479725|-0.0879669189453125|-0.2516326904296875|-0.9498443603515625|138644.99982625|0.6010394983179991|0.08274899160857652|0.1592802353351687|0.1915535926818848|-0.06732426583766937|0.07572179287672043|-0.1633037775754929|-0.08472324907779694|0.03392040729522705|XArbitraryZVertical|0.06372020707859015|0.06291344015204603|0.2979690867051281|0.9503662891116842|0.08160831779241562|-0.1586075872182846|-0.9839632511138916|0|0|0|-1|-1|3
2021-04-22 21:07:54.264 +0100|138645.03475925|-0.077484130859375|-0.2309417724609375|-0.95098876953125|138645.01978825|0.6033442530321046|0.07791202158760961|0.1605227836235174|-0.03661637008190155|-0.09804835915565491|0.1228650733828545|-0.1652113795280457|-0.09269760549068451|0.03609001636505127|XArbitraryZVertical|0.06496220605117167|0.06087104055522126|0.2989175422082682|0.9501174214283548|0.07683258503675461|-0.1598342955112457|-0.9841492772102356|0|0|0|-1|-1|3
2021-04-22 21:07:54.284 +0100|138645.05472125|-0.077667236328125|-0.1971893310546875|-0.9633636474609375|138645.03975025|0.606973881139395|0.07231551959868182|0.15867488289942|-0.1399940252304077|-0.1250537186861038|0.1717101037502289|-0.1491187810897827|-0.08114005625247955|0.03452396392822266|XArbitraryZVertical|0.06481350170860156|0.05805892841478062|0.3004489004297918|0.9498205598763135|0.07134483754634857|-0.158009871840477|-0.9848567247390747|0|0|0|-1|-1|3
2021-04-22 21:07:54.304 +0100|138645.07468325|-0.072265625|-0.186798095703125|-0.960205078125|138645.05971225|0.6113070043009028|0.0664071467333434|0.1574118301143126|-0.06089717522263527|-0.1239179819822311|0.1979629248380661|-0.1448072195053101|-0.04738369584083557|0.02385038137435913|XArbitraryZVertical|0.0649803972689136|0.05520719664178272|0.3023087075762352|0.9493888664122593|0.06553791463375092|-0.156762570142746|-0.9854594469070435|0|0|0|-1|-1|3
2021-04-22 21:07:54.324 +0100|138645.09464625|-0.0872955322265625|-0.1921539306640625|-0.9483642578125|138645.07967425|0.6160932212845622|0.06033569324476507|0.1597709112156814|0.09336815774440765|-0.1225406974554062|0.2435147017240524|-0.1323001682758331|-0.02634695172309875|0.02291220426559448|XArbitraryZVertical|0.06689324533838804|0.05283607610239507|0.3043870509798557|0.9487266189209437|0.05953110754489899|-0.1590920388698578|-0.9854673147201538|0|0|0|-1|-1|3
2021-04-22 21:07:54.344 +0100|138645.11460825|-0.088134765625|-0.204010009765625|-0.9523773193359375|138645.09963625|0.6215323986566189|0.05465418942043401|0.164818582774291|0.1695090085268021|-0.06540385633707047|0.2651396691799164|-0.1360704004764557|-0.02550075948238373|0.03595465421676636|XArbitraryZVertical|0.07001689769746658|0.05108846239184678|0.3067781056251291|0.9478264243929316|0.05388668552041054|-0.1640733778476715|-0.9849752187728882|0|0|0|-1|-1|3
2021-04-22 21:07:54.364 +0100|138645.13457025|-0.0800018310546875|-0.2178497314453125|-0.9676513671875|138645.11959825|0.6274668849666709|0.05030943003387923|0.1702050132568736|0.1640408337116241|-0.005526943132281303|0.2767544984817505|-0.1394051760435104|-0.03166434168815613|0.03485530614852905|XArbitraryZVertical|0.07309109409364689|0.05006141967017187|0.3094313878604147|0.9467860348500925|0.04956154897809029|-0.1693844050168991|-0.9843031167984009|0|0|0|-1|-1|3
2021-04-22 21:07:54.384 +0100|138645.15453225|0.065399169921875|-0.339263916015625|-0.96759033203125|138645.13956025|0.6328969728901545|0.04707803651983742|0.1741094345025|0.1146575063467026|0.0215122364461422|0.2068869173526764|-0.1280598342418671|-0.04229822754859924|0.02063977718353271|XArbitraryZVertical|0.07530802833263012|0.04933259214298009|0.3118737904547834|0.9458488246956839|0.04634914919734001|-0.1732311099767685|-0.9837899804115295|0|0|0|-1|-1|3
2021-04-22 21:07:54.404 +0100|138645.17449425|-0.108856201171875|-0.30419921875|-0.9391326904296875|138645.15952325|0.6307468034664394|0.04222674266649441|0.1718369446288893|-0.2403073906898499|-0.2923574149608612|-0.1087249219417572|-0.04716181382536888|-0.09064885973930359|0.009830296039581299|XArbitraryZVertical|0.07503825817942048|0.04660729029573048|0.3106807556793511|0.9464009050765017|0.04159247875213623|-0.170992523431778|-0.9843940138816833|0|0|0|-1|-1|3
2021-04-22 21:07:54.440 +0100|138645.19445625|-0.146087646484375|-0.308624267578125|-0.8992767333984375|138645.17948525|0.6338313086214071|0.03357286058862215|0.1666848764676102|-0.2528536319732666|-0.2211222946643829|0.2685334980487823|-0.09317505359649658|-0.1468442380428314|0.0357094407081604|XArbitraryZVertical|0.07387640950126743|0.04183326762006682|0.311839589940865|0.9463342428302657|0.03310132771730423|-0.1659140884876251|-0.9855844974517822|0|0|0|-1|-1|3
2021-04-22 21:07:54.455 +0100|138645.21441825|-0.0189971923828125|-0.4005126953125|-0.9124603271484375|138645.19944725|0.6399448325299564|0.02787308762132354|0.1614375579905864|-0.3837304413318634|-0.04350468516349792|0.2761296331882477|-0.1905928999185562|-0.1295143812894821|0.0855974555015564|XArbitraryZVertical|0.07216201925050529|0.03854496674545416|0.314552424952921|0.9457081015223474|0.02750709839165211|-0.1607372313737869|-0.9866138696670532|0|0|0|-1|-1|3
2021-04-22 21:07:54.464 +0100|138645.23438125|-0.0684967041015625|-0.3087310791015625|-0.8504486083984375|138645.21940925|0.6482387452158367|0.023358441551968|0.1515377573343733|-0.691103458404541|-0.1880047172307968|0.4189709424972534|-0.06245619058609009|-0.2210650146007538|0.09154176712036133|XArbitraryZVertical|0.06804133911448605|0.03514478682237547|0.3183767626710333|0.9448658707363743|0.02308865636587143|-0.1509584486484528|-0.9882704615592957|0|0|0|-1|-1|3
2021-04-22 21:07:54.483 +0100|138645.25434325|-0.034210205078125|-0.3636474609375|-0.835113525390625|138645.23937125|0.6573368295719468|0.01758332358301959|0.1388438027517272|-0.7480395436286926|-0.09762108325958252|0.4912279844284058|-0.08766452968120575|-0.226591020822525|0.1122479438781738|XArbitraryZVertical|0.06281972177209237|0.03069026343390805|0.3225702309489662|0.9439599742418046|0.01741321571171284|-0.138398140668869|-0.9902235865592957|0|0|0|-1|-1|3
2021-04-22 21:07:54.503 +0100|138645.27430525|0.034332275390625|-0.488861083984375|-0.7819366455078125|138645.25933325|0.6703179060607687|0.01365911626393749|0.1271091415784979|-0.960334300994873|-0.09371624141931534|0.7584546208381653|-0.0615830086171627|-0.2091998010873795|0.1414065361022949|XArbitraryZVertical|0.05773465238238008|0.02732624065774174|0.3286571746311787|0.9422868701543263|0.01354849990457296|-0.1267671436071396|-0.9918399453163147|0|0|0|-1|-1|3
2021-04-22 21:07:54.523 +0100|138645.29426725|0.1108245849609375|-0.5710601806640625|-0.735626220703125|138645.27929525|0.6886439762919092|0.007653766984899305|0.1030929690259601|-1.712941646575928|-0.1388284415006638|1.047621488571167|0.01028568297624588|-0.3502592444419861|0.1972523331642151|XArbitraryZVertical|0.04720901696838066|0.02098958577759847|0.3372932776363845|0.9399810101040865|0.007613055873662233|-0.1029104515910149|-0.9946615099906921|0|0|0|-1|-1|3
2021-04-22 21:07:54.543 +0100|138645.31422925|0.2494964599609375|-0.620635986328125|-0.680389404296875|138645.29925825|0.7139573620207007|0.001943773191509101|0.05941104587669212|-2.656599283218384|-0.2258830666542053|1.46713924407959|0.08660661429166794|-0.4934792518615723|0.2491645216941833|XArbitraryZVertical|0.02748921472405188|0.01128912543654738|0.349317673327345|0.9365331138750421|0.001940342481248081|-0.05937610194087029|-0.9982337951660156|0|0|0|-1|-1|3
2021-04-22 21:07:54.564 +0100|138645.33419125|0.4263763427734375|-0.621307373046875|-0.573699951171875|138645.31922025|0.7484699114876445|-0.004153124340840993|-0.0046297030320952|-3.798381567001343|-0.2989596128463745|1.999253273010254|0.2124205231666565|-0.619801938533783|0.2925679683685303|XArbitraryZVertical|-0.00139552186435761|-0.002779047142235602|0.3655632253451578|0.9307814109192263|-0.004153067711740732|0.00462968647480011|-0.9999806880950928|0|0|0|-1|-1|3
2021-04-22 21:07:54.583 +0100|138645.35415325|0.5590667724609375|-0.3319549560546875|-0.5920867919921875|138645.33918225|0.7925634832274171|-0.01044589063398938|-0.09260759301580444|-5.022606372833252|-0.5427059531211853|2.43229079246521|0.3942665755748749|-0.729910135269165|0.4144077301025391|XArbitraryZVertical|-0.04068568654246946|-0.02267920716525247|0.3857949470937933|0.9214079863704853|-0.01040094066411257|0.0924752801656723|-0.995660662651062|0|0|0|-1|-1|3
2021-04-22 21:07:54.603 +0100|138645.37411625|0.6052398681640625|0.0244903564453125|-0.64501953125|138645.35914425|0.8416962045798738|-0.0176434640189981|-0.2065752723993779|-6.267403602600098|-0.9527818560600281|2.54686713218689|0.5502115488052368|-0.6248621940612793|0.3794506192207336|XArbitraryZVertical|-0.0905191132781447|-0.05012890546580161|0.4071717954055837|0.9074715582646254|-0.01726745255291462|0.2051091939210892|-0.9785867929458618|0|0|0|-1|-1|3
2021-04-22 21:07:54.624 +0100|138645.39407825|0.49310302734375|0.4756011962890625|-0.6793060302734375|138645.37910625|0.8910713822238279|-0.02895717469065251|-0.3430427252168874|-7.225525856018066|-1.520925998687744|2.497280359268188|0.6290885210037231|-0.4056127071380615|0.3078572750091553|XArbitraryZVertical|-0.1478558391320765|-0.0864190504255288|0.4268031953663209|0.8879806005153462|-0.02726619131863117|0.3363540768623352|-0.9413408041000366|0|0|0|-1|-1|3
2021-04-22 21:07:54.643 +0100|138645.41404025|0.262420654296875|0.870697021484375|-0.674072265625|138645.39906825|0.9362495167483537|-0.04670478614419683|-0.4933643763987043|-7.611955165863037|-2.080331802368164|2.165637016296387|0.5805186629295349|-0.1233862936496735|0.1967859268188477|XArbitraryZVertical|-0.2076407713294712|-0.1303581658826337|0.4425234956909667|0.8625921925036349|-0.04112003371119499|0.4735917150974274|-0.879784107208252|0|0|0|-1|-1|3
2021-04-22 21:07:54.663 +0100|138645.43400225|0.0380096435546875|1.12890625|-0.7810211181640625|138645.41903025|0.9742877498027744|-0.0723306667107938|-0.6456739633365909|-7.291866779327393|-2.537558317184448|1.988892793655396|0.371440976858139|0.1926670670509338|0.132635772228241|XArbitraryZVertical|-0.264118301676923|-0.1787134533599006|0.4537678385811257|0.8321044550388698|-0.05771974101662636|0.601736843585968|-0.7966060638427734|0|0|0|-1|-1|3
2021-04-22 21:07:54.683 +0100|138645.45396425|-0.1468353271484375|1.194534301757812|-0.7297515869140625|138645.43899325|1.00885115685546|-0.1042345885067118|-0.7842973497634234|-6.21806001663208|-2.906898498535156|1.842804551124573|0.1732624769210815|0.3697836399078369|-0.05587476491928101|XArbitraryZVertical|-0.3108556049157414|-0.2265996578873491|0.4634398383033287|0.7982763293561651|-0.07365254312753677|0.7063279747962952|-0.7040427923202515|0|0|0|-1|-1|3
2021-04-22 21:07:54.703 +0100|138645.47392625|-0.17413330078125|0.8496246337890625|-0.4526214599609375|138645.45895525|1.046057327824058|-0.1378894123626478|-0.8998063874902344|-5.233211040496826|-3.264642715454102|2.021759510040283|-0.02636808156967163|0.4235812425613403|-0.1420889496803284|XArbitraryZVertical|-0.3448577969820087|-0.2704496507720052|0.4746849031259053|0.7632853534605458|-0.08546293526887894|0.7832065224647522|-0.6158601641654968|0|0|0|-1|-1|3
2021-04-22 21:07:54.723 +0100|138645.49388925|-0.155487060546875|1.550628662109375|-0.320831298828125|138645.47891725|1.086221704229138|-0.1726741948321404|-1.006836601270767|-5.144181728363037|-3.466693639755249|1.798805117607117|-0.08869855850934982|0.05811470746994019|-0.02483350038528442|XArbitraryZVertical|-0.3724309949789733|-0.313051516415172|0.4866137315879472|0.7256039331555648|-0.09184274822473526|0.8451451063156128|-0.5265877842903137|0|0|0|-1|-1|3
2021-04-22 21:07:54.743 +0100|138645.51385225|-0.07000732421875|1.412841796875|-0.3175811767578125|138645.49888025|1.105265621025239|-0.2249916734198104|-1.101372383617931|-3.47669506072998|-3.428853034973145|1.076229810714722|-0.05183136463165283|0.4754963517189026|0.1696860790252686|XArbitraryZVertical|-0.3923490136968471|-0.3543678924224249|0.4944975003625874|0.689897177721704|-0.1009236052632332|0.8918290138244629|-0.4409712851047516|0|0|0|-1|-1|3
2021-04-22 21:07:54.763 +0100|138645.53381425|-0.09722900390625|1.150711059570312|-0.1164703369140625|138645.51884225|1.1299821908342|-0.272976836736567|-1.147115140976967|-1.059336066246033|-3.583524942398071|1.029807448387146|0.010297991335392|0.612130880355835|0.07619491219520569|XArbitraryZVertical|-0.3928416845631749|-0.3843530498324933|0.5079056337471959|0.6633098991051726|-0.1108373552560806|0.9115816950798035|-0.3958962857723236|0|0|0|-1|-1|3
2021-04-22 21:07:54.784 +0100|138645.55377625|-0.15130615234375|0.9791107177734375|-0.0908660888671875|138645.53880425|1.164942489244865|-0.3089763491390556|-1.162471761023558|-0.1554258614778519|-3.262269020080566|0.794891357421875|0.03633243590593338|0.3062731027603149|0.1946608126163483|XArbitraryZVertical|-0.38231541211453|-0.4058329180268468|0.5248353632091477|0.6431815584035488|-0.1207432001829147|0.9177873730659485|-0.3782691359519958|0|0|0|-1|-1|3
2021-04-22 21:07:54.803 +0100|138645.57373825|-0.14190673828125|0.8976593017578125|-0.0245361328125|138645.55876625|1.202607783838509|-0.3363929427388258|-1.166669228491616|0.2884134352207184|-2.933034420013428|0.775022029876709|-0.009273052215576172|0.1027255058288574|0.2935717105865479|XArbitraryZVertical|-0.3687451665463216|-0.4224196338861121|0.5415372267823709|0.626359494808341|-0.1297946274280548|0.9194459915161133|-0.3711773157119751|0|0|0|-1|-1|3
2021-04-22 21:07:54.823 +0100|138645.59370025|-0.04656982421875|0.79730224609375|-0.072052001953125|138645.57872925|1.249460043654871|-0.3477285419045709|-1.16452188225476|0.5755230784416199|-2.501801013946533|0.8822458982467651|-0.02234582602977753|-0.01222705841064453|0.3366716206073761|XArbitraryZVertical|-0.3548159009763772|-0.4339780951798601|0.5582995075947762|0.6116129251124373|-0.1346661448478699|0.9185994863510132|-0.3715373873710632|0|0|0|-1|-1|3
2021-04-22 21:07:54.843 +0100|138645.61366225|-0.0054168701171875|0.65350341796875|-0.1685791015625|138645.59869125|1.308710292592773|-0.3390047717291234|-1.157046456032249|0.8569011688232422|-2.113379716873169|1.085484623908997|0.06111472845077515|-0.07864409685134888|0.3206773996353149|XArbitraryZVertical|-0.3416604692488484|-0.4400979455007732|0.5754857881252284|0.5986636669775017|-0.1336998045444489|0.9156196713447571|-0.3791638314723969|0|0|0|-1|-1|3
2021-04-22 21:07:54.863 +0100|138645.63362425|-0.1975860595703125|0.5991058349609375|-0.277008056640625|138645.61865325|1.372762324939802|-0.3207416591538053|-1.150709316186085|0.5676961541175842|-1.914485931396484|1.155861139297485|0.1271619200706482|-0.2327094078063965|0.255098819732666|XArbitraryZVertical|-0.33060396743612|-0.4440500750757376|0.5920990855297052|0.5856102901759496|-0.1285799741744995|0.9130534529685974|-0.3870410919189453|0|0|0|-1|-1|3
2021-04-22 21:07:54.883 +0100|138645.65358725|-0.417388916015625|0.5358428955078125|-0.437591552734375|138645.63861525|1.429663286186888|-0.3054781154626213|-1.151546381037232|0.06762976199388504|-1.771880865097046|1.055388212203979|-0.02471184730529785|-0.3012572526931763|0.1580815315246582|XArbitraryZVertical|-0.3227579876472171|-0.4491242357879491|0.6059675136535201|0.5717676201051968|-0.1224276795983315|0.9133945107460022|-0.3882293999195099|0|0|0|-1|-1|3
2021-04-22 21:07:54.903 +0100|138645.67354925|-0.60418701171875|0.634857177734375|-0.443145751953125|138645.65857725|1.475769112921346|-0.2979011083275784|-1.159138170524692|-0.1786468625068665|-1.691480159759521|0.9924435019493103|-0.2403890490531921|-0.3762208223342896|-0.03701889514923096|XArbitraryZVertical|-0.3171960180286851|-0.456216804348602|0.6167687390175745|0.5575386502079356|-0.1174438297748566|0.9164586067199707|-0.3825058341026306|0|0|0|-1|-1|3
2021-04-22 21:07:54.944 +0100|138645.69351125|-0.53955078125|0.606201171875|-0.346282958984375|138645.67853925|1.520913147508763|-0.2882502300508265|-1.169006593577186|-0.2168165296316147|-1.454413175582886|1.058494329452515|-0.467609703540802|-0.3112008571624756|-0.05643355846405029|XArbitraryZVertical|-0.3130747847062988|-0.4631610453571845|0.626286199798615|0.5433523217507598|-0.1111704260110855|0.9203625917434692|-0.3749320507049561|0|0|0|-1|-1|3
2021-04-22 21:07:54.960 +0100|138645.71347325|-0.3497314453125|0.8832855224609375|-0.1715240478515625|138645.69850125|1.581367775125976|-0.2583466060314291|-1.179665050901068|-0.3042320609092712|-1.082254767417908|1.476434946060181|-0.4787110090255737|-0.3333067297935486|-0.02870970964431763|XArbitraryZVertical|-0.3118702977202023|-0.4673814098538361|0.6362012127707387|0.528715195030186|-0.0973987802863121|0.9244783520698547|-0.368583083152771|0|0|0|-1|-1|3
2021-04-22 21:07:54.963 +0100|138645.73343525|-0.1319427490234375|1.023345947265625|-0.1829071044921875|138645.71846325|1.652952830915718|-0.2067887821541701|-1.197112486072483|-0.7382922768592834|-0.4180409908294678|1.518623232841492|-0.335463672876358|-0.1151469349861145|0.1592879295349121|XArbitraryZVertical|-0.3169649496780263|-0.4699978762093604|0.6438259713073337|0.5139293963229462|-0.0749509185552597|0.9309889078140259|-0.3572704195976257|0|0|0|-1|-1|3
2021-04-22 21:07:54.983 +0100|138645.75339725|-0.015960693359375|1.097198486328125|-0.165679931640625|138645.73842625|1.732862817802185|-0.134639922230521|-1.219002031567163|-0.9280384182929993|0.1380842924118042|1.650342226028442|-0.1236814856529236|0.06025236845016479|0.1687350571155548|XArbitraryZVertical|-0.3278254593000863|-0.4709547343839157|0.6483294350315947|0.5004008963926641|-0.04625455290079117|0.9387559294700623|-0.3414642214775085|0|0|0|-1|-1|3
2021-04-22 21:07:55.003 +0100|138645.77335925|0.1244964599609375|1.256195068359375|-0.3173675537109375|138645.75838825|1.825370488243129|-0.04046163957683866|-1.243917393879347|-1.281632304191589|0.5465929508209229|1.584898114204407|-0.02982684969902039|0.1193878650665283|0.147639274597168|XArbitraryZVertical|-0.3432687211487341|-0.470907105750236|0.6500746475213344|0.4876639378915788|-0.01298824138939381|0.947049081325531|-0.3208261728286743|0|0|0|-1|-1|3
2021-04-22 21:07:55.022 +0100|138645.79332125|0.2996826171875|1.259124755859375|-0.419708251953125|138645.77835025|1.920623269034447|0.06395799258236702|-1.267345592490147|-0.9791785478591919|0.778444766998291|1.359630465507507|0.06239965558052063|0.2770581841468811|0.03390765190124512|XArbitraryZVertical|-0.360373387472868|-0.4701368345484974|0.6491058658554959|0.4772465162664326|0.01909862644970417|0.9543110132217407|-0.2982047498226166|0|0|0|-1|-1|3
2021-04-22 21:07:55.042 +0100|138645.81328425|0.331024169921875|1.16241455078125|-0.4837493896484375|138645.79831225|2.009308215254965|0.1628936958122708|-1.278937150853465|-0.4875375032424927|0.6301427483558655|1.085174083709717|0.2156824171543121|0.3120192289352417|-0.1219128370285034|XArbitraryZVertical|-0.3741303171598627|-0.4669733427998222|0.6489309588645918|0.4699481034778809|0.04666301608085632|0.9577105641365051|-0.2839248180389404|0|0|0|-1|-1|3
2021-04-22 21:07:55.062 +0100|138645.83324625|0.2313995361328125|1.041793823242188|-0.4797210693359375|138645.81827425|2.078410366004781|0.2404081624941751|-1.28199752964635|-0.2599295973777771|0.5174703001976013|0.7883033752441406|0.2756806612014771|0.2389385104179382|-0.1946105360984802|XArbitraryZVertical|-0.3837886687564751|-0.463034286021742|0.6495586777886145|0.4651658876454781|0.06781101226806641|0.9585866928100586|-0.2766110301017761|0|0|0|-1|-1|3
2021-04-22 21:07:55.083 +0100|138645.85320825|0.186614990234375|1.03570556640625|-0.4781951904296875|138645.83823625|2.126049321746449|0.2960845305706808|-1.284815840828655|-0.3848623037338257|0.5052589774131775|0.4323642253875732|0.1746490895748138|0.09185361862182617|-0.2140933275222778|XArbitraryZVertical|-0.3913248023450515|-0.4603837226967855|0.6490148452905072|0.4622678874312406|0.08230999112129211|0.9593855142593384|-0.2698234617710114|0|0|0|-1|-1|3
2021-04-22 21:07:55.103 +0100|138645.87317025|0.1847991943359375|1.0494384765625|-0.464599609375|138645.85819825|2.152824855280568|0.332600849062045|-1.289625501575048|-0.2588846385478973|0.5746071338653564|0.1578451693058014|0.09958847612142563|0.0696338415145874|-0.222802609205246|XArbitraryZVertical|-0.3977131945728383|-0.4590068304879206|0.6466007814372232|0.4615673680835004|0.09059817343950272|0.9607312083244324|-0.2622738778591156|0|0|0|-1|-1|3
2021-04-22 21:07:55.122 +0100|138645.89313225|0.1748046875|0.97357177734375|-0.3936767578125|138645.87816125|2.159836393388884|0.3512361281174717|-1.291115886751206|0.0611053928732872|0.6127259731292725|-0.007569279056042433|0.08944180607795715|0.0961226224899292|-0.2044423818588257|XArbitraryZVertical|-0.4023314381853713|-0.4566526568945076|0.6440580214261448|0.4634513397244007|0.094977006316185|0.9611436724662781|-0.2591955363750458|0|0|0|-1|-1|3
2021-04-22 21:07:55.143 +0100|138645.91309425|0.1308135986328125|0.9319610595703125|-0.35260009765625|138645.89812325|2.153482332287487|0.3578057455999122|-1.289140328355977|0.1298539191484451|0.6589273810386658|-0.08811649680137634|0.08283429592847824|0.03067553043365479|-0.1568919122219086|XArbitraryZVertical|-0.405613518522991|-0.4531066927243854|0.6418337041048516|0.4671419529107619|0.09734256565570831|0.96059650182724|-0.260343998670578|0|0|0|-1|-1|3
2021-04-22 21:07:55.162 +0100|138645.93305625|0.0613861083984375|0.851593017578125|-0.3179779052734375|138645.91808525|2.14196635639181|0.3603057617767109|-1.289113416777893|-0.02325316332280636|0.6876021027565002|-0.1961266845464706|0.04656040668487549|-0.01359784603118896|-0.09908223152160645|XArbitraryZVertical|-0.409010564575695|-0.4501645562955087|0.638630570349226|0.4713952824439618|0.09800240397453308|0.9605889916419983|-0.2601244747638702|0|0|0|-1|-1|3
2021-04-22 21:07:55.182 +0100|138645.95301925|-0.0230865478515625|0.917205810546875|-0.244903564453125|138645.93804725|2.13339989344388|0.3657372936344184|-1.292829180608638|-0.2680577635765076|0.6878148317337036|-0.1470247209072113|-0.01692814379930496|-0.09927994012832642|-0.07091042399406433|XArbitraryZVertical|-0.4131892408595376|-0.4484955309697577|0.6343944172182657|0.4750476076950622|0.09813643991947174|0.961615264415741|-0.2562528252601624|0|0|0|-1|-1|3
2021-04-22 21:07:55.205 +0100|138645.97298125|-0.031707763671875|1.021820068359375|-0.1942291259765625|138645.95800925|2.136733454483|0.3828876817765323|-1.30070846801625|-0.4458355307579041|0.7295452952384949|-0.03898383677005768|-0.1075554341077805|-0.07393091917037964|-0.01683095097541809|XArbitraryZVertical|-0.4189604995493879|-0.4480220864177855|0.6292906900568749|0.4772230347883154|0.09968296438455582|0.9637474417686462|-0.2474966198205948|0|0|0|-1|-1|3
2021-04-22 21:07:55.222 +0100|138645.99294325|0.0834503173828125|1.1204833984375|-0.1636810302734375|138645.97797125|2.150641744680834|0.4119197435289515|-1.307299341605387|-0.2778711020946503|0.8351303935050964|0.1191985160112381|-0.1481935381889343|0.03662073612213135|0.02990245819091797|XArbitraryZVertical|-0.4258327364735882|-0.4464640370011972|0.6245147178675868|0.4788715204358082|0.1042798012495041|0.9654850363731384|-0.2386726886034012|0|0|0|-1|-1|3
2021-04-22 21:07:55.242 +0100|138646.01290525|0.168914794921875|1.187667846679688|-0.21142578125|138645.99793325|2.169328063088671|0.4471395189782125|-1.309595094833514|-0.1486639231443405|0.8645150661468506|0.2014536261558533|-0.05964241176843643|0.125228226184845|0.06796742975711823|XArbitraryZVertical|-0.4329308548470458|-0.4428816686283535|0.6207427294852418|0.4807341764812231|0.1116606518626213|0.9660804867744446|-0.2328533977270126|0|0|0|-1|-1|3
2021-04-22 21:07:55.262 +0100|138646.03286725|0.18536376953125|1.188827514648438|-0.2391510009765625|138646.01789525|2.186454909051037|0.479806821764683|-1.30833572190188|0.05341355130076408|0.725951611995697|0.2660848200321198|0.03381279110908508|0.2253772020339966|0.03552079200744629|XArbitraryZVertical|-0.439128456500455|-0.4382756321145571|0.6181297551995049|0.4826970957087554|0.1197679787874222|0.965754508972168|-0.2301613390445709|0|0|0|-1|-1|3
2021-04-22 21:07:55.282 +0100|138646.05282925|0.169830322265625|1.16705322265625|-0.2509613037109375|138646.03785825|2.20205592019478|0.5074518654349319|-1.304293353157382|0.08206966519355774|0.5447752475738525|0.2706880867481232|0.06354913115501404|0.2238704562187195|-0.001638174057006836|XArbitraryZVertical|-0.4438219081627137|-0.4335155174841697|0.6170370466177078|0.4840990172187565|0.1279802471399307|0.9646977782249451|-0.2301728129386902|0|0|0|-1|-1|3
2021-04-22 21:07:55.302 +0100|138646.07279125|0.1681060791015625|1.195693969726562|-0.2476654052734375|138646.05782025|2.217049311382572|0.531623744927609|-1.301468092820913|-0.05924396961927414|0.4446383714675903|0.1987772285938263|0.03730933368206024|0.2069333791732788|-0.02259181439876556|XArbitraryZVertical|-0.4477462878389882|-0.4299335928227441|0.6161503191253775|0.4848085075856863|0.1348871141672134|0.9639498591423035|-0.2293607294559479|0|0|0|-1|-1|3
2021-04-22 21:07:55.322 +0100|138646.09275325|0.160888671875|1.167938232421875|-0.2518157958984375|138646.07778225|2.226255540920954|0.5492129233943888|-1.3012287355063|0.01593908108770847|0.4464236199855804|0.0246015302836895|0.03027647733688354|0.224468469619751|-0.0185009241104126|XArbitraryZVertical|-0.4511606949169559|-0.4276437385327711|0.6145053066285756|0.4857553581750141|0.1390208005905151|0.9638861417770386|-0.2271497249603271|0|0|0|-1|-1|3
2021-04-22 21:07:55.342 +0100|138646.11271625|0.1341094970703125|1.078811645507812|-0.2288360595703125|138646.09774425|2.217988152244103|0.5503450077557897|-1.298952482068004|0.2771018147468567|0.4673428237438202|-0.08394003659486771|0.02124316990375519|0.2219337224960327|-0.02629563212394714|XArbitraryZVertical|-0.4530502808648478|-0.4246349040477896|0.6129385918660329|0.4886071429664635|0.1404247134923935|0.9632774591445923|-0.2288612872362137|0|0|0|-1|-1|3
2021-04-22 21:07:55.362 +0100|138646.13267825|0.134490966796875|1.032562255859375|-0.203216552734375|138646.11770625|2.19908528599395|0.5421939434449081|-1.294824742595578|0.2930527329444885|0.554210364818573|-0.1309565454721451|0.001104161143302917|0.1387912631034851|-0.0005600899457931519|XArbitraryZVertical|-0.4541383502466279|-0.4207816651967631|0.6114209576894658|0.4928139795227133|0.140605241060257|0.9621608853340149|-0.2334022969007492|0|0|0|-1|-1|3
2021-04-22 21:07:55.382 +0100|138646.15264025|0.17626953125|1.0577392578125|-0.1894378662109375|138646.13766825|2.182630227621647|0.5382972066211794|-1.292719339118677|0.11469866335392|0.6421111226081848|-0.1427038460969925|-0.01083402335643768|0.07413589954376221|0.02671906352043152|XArbitraryZVertical|-0.4561768400009431|-0.4172036696576825|0.6088819396088666|0.4970983808980743|0.1407331377267838|0.9615851044654846|-0.2356875836849213|0|0|0|-1|-1|3
2021-04-22 21:07:55.402 +0100|138646.17260225|0.21734619140625|1.1019287109375|-0.17755126953125|138646.15763025|2.171234315583953|0.5404898290282314|-1.293493408216843|0.01023893337696791|0.6605895757675171|-0.1670985817909241|0.02292242646217346|0.08436065912246704|0.04405146837234497|XArbitraryZVertical|-0.4592945470476393|-0.4143411001248688|0.605299236432475|0.5009819902269136|0.1408664137125015|0.961797297000885|-0.2347399443387985|0|0|0|-1|-1|3
2021-04-22 21:07:55.421 +0100|138646.19256425|0.2322845458984375|1.10699462890625|-0.171478271484375|138646.17759225|2.158682438951701|0.5411016299302019|-1.294720412409329|0.08997955173254013|0.6039751172065735|-0.1912292242050171|0.06846117973327637|0.13221275806427|0.05381792783737183|XArbitraryZVertical|-0.462205480131125|-0.4117584598747605|0.6016259935688637|0.5048439648353136|0.1404021084308624|0.962132453918457|-0.2336421310901642|0|0|0|-1|-1|3
2021-04-22 21:07:55.441 +0100|138646.21252625|0.23223876953125|1.095001220703125|-0.1404266357421875|138646.19755525|2.140037541882016|0.5341599636277823|-1.293731494575928|0.2513415515422821|0.4959717094898224|-0.1878525018692017|0.08975902199745178|0.1467649936676025|0.05909985303878784|XArbitraryZVertical|-0.4638357548171546|-0.4088294319933794|0.5988095745587143|0.5090600348454503|0.1392611265182495|0.9618624448776245|-0.2354297786951065|0|0|0|-1|-1|3
2021-04-22 21:07:55.462 +0100|138646.23248825|0.23016357421875|1.072723388671875|-0.1181182861328125|138646.21751725|2.118305972460182|0.5220582006890743|-1.290578716894981|0.3074544370174408|0.3963184356689453|-0.1699376851320267|0.096554234623909|0.1366609930992126|0.09170010685920715|XArbitraryZVertical|-0.4642705432496785|-0.4056973969170086|0.597023898467689|0.5132494423233432|0.1379132866859436|0.9609952569007874|-0.2397249639034271|0|0|0|-1|-1|3
2021-04-22 21:07:55.481 +0100|138646.25245025|0.2433624267578125|1.060333251953125|-0.0967559814453125|138646.23747925|2.098198467987038|0.5103578124521645|-1.286637639658592|0.3071850538253784|0.3724155128002167|-0.1248182356357574|0.09301793575286865|0.1146567463874817|0.1209535598754883|XArbitraryZVertical|-0.4643547370429573|-0.4025692290365557|0.5957546305616468|0.5170970073440756|0.13694828748703|0.9598978757858276|-0.2446253895759583|0|0|0|-1|-1|3
2021-04-22 21:07:55.501 +0100|138646.27241325|0.261505126953125|1.036102294921875|-0.0878448486328125|138646.25744125|2.080840483688314|0.5009567761871681|-1.282414122092778|0.2796647548675537|0.3601822853088379|-0.09983298927545547|0.1013428270816803|0.109761118888855|0.1469632983207703|XArbitraryZVertical|-0.464488552358678|-0.3994025871178048|0.5947060725204463|0.5206274117567065|0.136588454246521|0.9587052464485168|-0.249455913901329|0|0|0|-1|-1|3
2021-04-22 21:07:55.521 +0100|138646.29237525|0.2542724609375|1.025100708007812|-0.10888671875|138646.27740325|2.066802906991255|0.4946148638013867|-1.278927118043179|0.235154315829277|0.3432832956314087|-0.08391713351011276|0.1204303205013275|0.08460509777069092|0.1712119579315186|XArbitraryZVertical|-0.4649290580852377|-0.3964997612257107|0.5935588014091243|0.5237528638672286|0.1365896910429001|0.9577077031135559|-0.2532578110694885|0|0|0|-1|-1|3
2021-04-22 21:07:55.542 +0100|138646.31233725|0.2545013427734375|1.004440307617188|-0.139373779296875|138646.29736525|2.054052356069168|0.4887375350493154|-1.275383585005178|0.2553029358386993|0.2925432026386261|-0.08503121882677078|0.1221139132976532|0.06796103715896606|0.1515676975250244|XArbitraryZVertical|-0.4652154527240973|-0.3937627225084753|0.5926337908490455|0.5266031766576496|0.1366913914680481|0.9566820859909058|-0.2570509910583496|0|0|0|-1|-1|3
2021-04-22 21:07:55.561 +0100|138646.33229925|0.247894287109375|0.994873046875|-0.160614013671875|138646.31732725|2.040055814477018|0.4803484704839894|-1.271288752397746|0.298273116350174|0.1997330039739609|-0.07886751741170883|0.1164847165346146|0.05536717176437378|0.1298250257968903|XArbitraryZVertical|-0.4648951878374865|-0.3912062441628205|0.5921039579495104|0.5293799299279429|0.1363390982151031|0.9554818868637085|-0.2616602778434753|0|0|0|-1|-1|3
2021-04-22 21:07:55.581 +0100|138646.35226125|0.2590179443359375|0.987274169921875|-0.1681671142578125|138646.33729025|2.025500557812454|0.4693234859519269|-1.266266596084979|0.3431686162948608|0.08936452120542526|-0.0762140303850174|0.1136842370033264|0.03897780179977417|0.1109611988067627|XArbitraryZVertical|-0.463732078725821|-0.3888964825910215|0.5922821044120992|0.5318967936057034|0.1356148421764374|0.9539880752563477|-0.2674241662025452|0|0|0|-1|-1|3
2021-04-22 21:07:55.601 +0100|138646.37222325|0.2573699951171875|0.96844482421875|-0.1525421142578125|138646.35725225|2.010894031075554|0.4561078819908636|-1.260260020919489|0.3716324865818024|-0.02020698040723801|-0.05308820679783821|0.1209800243377686|0.03875136375427246|0.105021595954895|XArbitraryZVertical|-0.4617355132612924|-0.3868256595385911|0.5932039922103995|0.5341118053258277|0.1345904022455215|0.9521698355674744|-0.2743324637413025|0|0|0|-1|-1|3
2021-04-22 21:07:55.621 +0100|138646.39218525|0.23687744140625|0.969146728515625|-0.145111083984375|138646.37721425|1.998062136301018|0.4426429469886649|-1.254591603563711|0.3094881474971771|-0.09387347847223282|-0.0597357265651226|0.1282966732978821|0.02241706848144531|0.1236597299575806|XArbitraryZVertical|-0.4593243552622902|-0.3853893196334173|0.5945166377098396|0.535767062269752|0.1331941336393356|0.950422465801239|-0.2809924185276031|0|0|0|-1|-1|3
2021-04-22 21:07:55.641 +0100|138646.41214725|0.2296600341796875|0.94976806640625|-0.14984130859375|138646.39717625|1.996054919316974|0.4396343804200619|-1.251766609437572|0.3027421534061432|-0.1232025027275085|-0.06774864345788956|0.1088507473468781|0.02056801319122314|0.1386641263961792|XArbitraryZVertical|-0.4583634824343215|-0.3846982742044618|0.5954840258306985|0.5360121981836216|0.1334903240203857|0.9495401978492737|-0.2838203012943268|0|0|0|-1|-1|3
2021-04-22 21:07:55.661 +0100|138646.43211025|0.21337890625|0.9332275390625|-0.1597747802734375|138646.41713825|1.994143208756133|0.4358632126579286|-1.248478743470129|0.286523163318634|-0.1708881109952927|-0.05236844345927238|0.09847283363342285|0.004285633563995361|0.1374011039733887|XArbitraryZVertical|-0.457076541286645|-0.3840650387998379|0.5967805483565336|0.5361232770326096|0.1337363570928574|0.948503851890564|-0.2871501743793488|0|0|0|-1|-1|3
2021-04-22 21:07:55.681 +0100|138646.45207225|0.23114013671875|0.9364013671875|-0.1623077392578125|138646.43710025|1.993611680394746|0.4326494395102729|-1.245603563106747|0.2186839282512665|-0.2069557160139084|-0.03620642423629761|0.07802028954029083|-0.007983207702636719|0.1323696672916412|XArbitraryZVertical|-0.4557516257191117|-0.3837496443025336|0.5981964526906989|0.5358991369616301|0.1339558064937592|0.9475891590118408|-0.2900533378124237|0|0|0|-1|-1|3
2021-04-22 21:07:55.701 +0100|138646.47203425|0.2369842529296875|0.965850830078125|-0.1808319091796875|138646.45706225|1.997356745830298|0.4324577064426315|-1.244125899707106|0.1308078169822693|-0.2819236516952515|-0.02411150373518467|0.09300760924816132|-0.01739799976348877|0.1306141912937164|XArbitraryZVertical|-0.45473509117667|-0.384110947080706|0.5996658069194762|0.5348604383885884|0.1344866752624512|0.9471160173416138|-0.2913495600223541|0|0|0|-1|-1|3
2021-04-22 21:07:55.721 +0100|138646.491996|0.2209625244140625|0.9709014892578125|-0.1988983154296875|138646.47702425|2.002136347636823|0.4315330019808972|-1.243389277683518|0.1646260619163513|-0.3706163465976715|-0.02343807928264141|0.102903351187706|0.01056408882141113|0.1174411475658417|XArbitraryZVertical|-0.4534188805817129|-0.3851719129971679|0.6013632586293641|0.5333069896138677|0.1345091611146927|0.9468793869018555|-0.2921078205108643|0|0|0|-1|-1|3
2021-04-22 21:07:55.741 +0100|138646.511958|0.207061767578125|0.9873046875|-0.2233428955078125|138646.496987|2.003898492369617|0.4259426825341127|-1.241951958018013|0.2122182101011276|-0.4504629373550415|-0.05911094322800636|0.09332574903964996|0.02501940727233887|0.09708830714225769|XArbitraryZVertical|-0.4511622222492159|-0.3865303771800579|0.6035078659707815|0.5318130776247293|0.1334360837936401|0.9464161992073059|-0.2940938472747803|0|0|0|-1|-1|3
2021-04-22 21:07:55.761 +0100|138646.53192|0.2072601318359375|0.955963134765625|-0.2317962646484375|138646.516949|2.000837540066647|0.4143170912340121|-1.240349740568865|0.2580076456069946|-0.5299034714698792|-0.1229005753993988|0.07789389789104462|0.04438269138336182|0.08274975419044495|XArbitraryZVertical|-0.4479785838685872|-0.3883409247736189|0.6057651323344632|0.5306177234666498|0.1306184530258179|0.9458975195884705|-0.2970130145549774|0|0|0|-1|-1|3
2021-04-22 21:07:55.781 +0100|138646.551882|0.2118072509765625|0.88934326171875|-0.2151641845703125|138646.536911|1.995864793213104|0.3991562325046739|-1.238540786815074|0.2077257186174393|-0.6104635000228882|-0.1475201696157455|0.08194522559642792|0.01399588584899902|0.06707647442817688|XArbitraryZVertical|-0.4440443060126307|-0.3905854689596021|0.6083415801939411|0.5293281284391838|0.1267654746770859|0.945309042930603|-0.3005352914333344|0|0|0|-1|-1|3
2021-04-22 21:07:55.801 +0100|138646.571845|0.1860198974609375|0.850341796875|-0.1988983154296875|138646.556873|1.995430682883963|0.3867053379377756|-1.238790034124377|-0.01018285192549229|-0.6958485245704651|-0.06316365301609039|0.08528211712837219|-0.03369271755218506|0.078560471534729|XArbitraryZVertical|-0.4403763211901488|-0.3938687184110862|0.6109096041279225|0.5269969419137954|0.1229250282049179|0.9453903436660767|-0.3018722534179688|0|0|0|-1|-1|3
2021-04-22 21:07:55.821 +0100|138646.591807|0.0930938720703125|0.8349609375|-0.227630615234375|138646.576835|2.006848400533379|0.3841421126825329|-1.243871076608536|-0.3745114505290985|-0.7265577912330627|0.01331798173487186|0.0808238610625267|-0.09132122993469238|0.1034239828586578|XArbitraryZVertical|-0.4381858707725321|-0.3989094390601345|0.6130340097908108|0.5225455061705571|0.1203490123152733|0.9470342397689819|-0.2977288067340851|0|0|0|-1|-1|3
2021-04-22 21:07:55.841 +0100|138646.611769|-0.0384368896484375|0.9135894775390625|-0.253448486328125|138646.596797|2.028433359046502|0.3912424477952334|-1.254347307347006|-0.6583847403526306|-0.6755034923553467|0.04601707309484482|0.003904931247234344|-0.1190780401229858|0.06859388947486877|XArbitraryZVertical|-0.4377452600579189|-0.4056347997013942|0.614106242650544|0.5164427426127386|0.1186698973178864|0.9503464698791504|-0.287678986787796|0|0|0|-1|-1|3
2021-04-22 21:07:55.861 +0100|138646.631731|-0.070526123046875|1.013916015625|-0.2751312255859375|138646.616759|2.054513366156677|0.404326088544966|-1.267618150636282|-0.7198755145072937|-0.566638171672821|0.009951125830411911|-0.1277500987052917|-0.06784141063690186|0.0295332670211792|XArbitraryZVertical|-0.4385136596791202|-0.4128737675429434|0.6141097576977167|0.51001014682035|0.1174514144659042|0.9543924331665039|-0.2744820415973663|0|0|0|-1|-1|3
2021-04-22 21:07:55.881 +0100|138646.651693|-0.018798828125|1.085662841796875|-0.27911376953125|138646.636721|2.076879995856715|0.4156504541864878|-1.278997518641753|-0.5174242258071899|-0.4758017063140869|0.0617465004324913|-0.190865159034729|0.03278118371963501|-0.006654620170593262|XArbitraryZVertical|-0.439042140623127|-0.4191078265278897|0.6139773934801355|0.5046013234974066|0.1161591708660126|0.9577279686927795|-0.2631812691688538|0|0|0|-1|-1|3
2021-04-22 21:07:55.901 +0100|138646.671655|0.014007568359375|1.109588623046875|-0.2963104248046875|138646.656684|2.093610211452864|0.4227685459464076|-1.285920713678491|-0.3349843621253967|-0.419718474149704|0.07697072625160217|-0.1496223211288452|0.1131336092948914|-0.02522942423820496|XArbitraryZVertical|-0.4386991773383902|-0.423551285438754|0.6145787859461888|0.5004401314525437|0.1153062954545021|0.9596965909004211|-0.2562946677207947|0|0|0|-1|-1|3
2021-04-22 21:07:55.921 +0100|138646.691617|-0.0189056396484375|1.096450805664062|-0.312347412109375|138646.676646|2.104809171712463|0.4254289892163265|-1.290509077010964|-0.2028158754110336|-0.397677093744278|0.004471759777516127|-0.1027699708938599|0.1440961360931396|-0.03804957866668701|XArbitraryZVertical|-0.4377773526205863|-0.4270411781542097|0.6154289265976642|0.4972265298639437|0.1141692847013474|0.9609760046005249|-0.2519736289978027|0|0|0|-1|-1|3
2021-04-22 21:07:55.941 +0100|138646.711579|-0.0313873291015625|1.065261840820312|-0.302978515625|138646.696608|2.10512001334974|0.4180519942231256|-1.292704432396987|0.01491597760468721|-0.3641979992389679|-0.08296212553977966|-0.1212151944637299|0.1435064077377319|-0.05984902381896973|XArbitraryZVertical|-0.4357434102832839|-0.4297528216130122|0.616465000652811|0.4953900014482232|0.111450619995594|0.9615809917449951|-0.2508803904056549|0|0|0|-1|-1|3
2021-04-22 21:07:55.961 +0100|138646.731542|-0.0048675537109375|1.003219604492188|-0.2781829833984375|138646.71657|2.094238350365861|0.4010011766473062|-1.290971320338445|0.2444448173046112|-0.2969753742218018|-0.1131095513701439|-0.1403684020042419|0.1152360439300537|-0.05266726016998291|XArbitraryZVertical|-0.4325776053634574|-0.430972896733152|0.617984499994895|0.4952113083751956|0.1078072041273117|0.9611037969589233|-0.2542779445648193|0|0|0|-1|-1|3
2021-04-22 21:07:55.981 +0100|138646.751504|0.0027923583984375|1.004348754882812|-0.2678680419921875|138646.736532|2.075118037250517|0.3768770533530442|-1.287160439433846|0.2899595201015472|-0.2334188520908356|-0.1051125228404999|-0.113654263317585|0.05263584852218628|-0.02229240536689758|XArbitraryZVertical|-0.428673761123942|-0.4314332966760372|0.6195580242433053|0.4962379400390768|0.1029893979430199|0.960044264793396|-0.2602082192897797|0|0|0|-1|-1|3
2021-04-22 21:07:56.001 +0100|138646.771466|-0.0003204345703125|1.023345947265625|-0.279296875|138646.756494|2.057194740161699|0.355732976851522|-1.283567923012362|0.2477246224880219|-0.1350610107183456|-0.1376755386590958|-0.09518551826477051|0.04362243413925171|-0.001530289649963379|XArbitraryZVertical|-0.4254289722305713|-0.4315445158006012|0.6206632399350507|0.497550861648369|0.09866555780172348|0.9590327143669128|-0.265559047460556|0|0|0|-1|-1|3
2021-04-22 21:07:56.021 +0100|138646.791428|-0.017425537109375|1.074081420898438|-0.324798583984375|138646.776456|2.040541656529333|0.3383150580791016|-1.280411374990164|0.2080416083335876|-0.007255867589265108|-0.217902272939682|-0.09205318987369537|0.05381417274475098|-0.008105963468551636|XArbitraryZVertical|-0.4231052925218187|-0.4312029962034362|0.6211160303169014|0.4992605240729464|0.09502968937158585|0.9581336975097656|-0.2700917720794678|0|0|0|-1|-1|3
2021-04-22 21:07:56.040 +0100|138646.81139|-0.0381622314453125|1.067764282226562|-0.363983154296875|138646.796419|2.015967862171375|0.3160211664598671|-1.277741646794414|0.2995739877223969|0.1267382502555847|-0.3496607542037964|-0.1036031544208527|0.1170055866241455|-0.02990037202835083|XArbitraryZVertical|-0.4210319272670446|-0.4306339714235962|0.6204268816971463|0.5023516058159807|0.08977971971035004|0.9573659300804138|-0.2745729982852936|0|0|0|-1|-1|3
2021-04-22 21:07:56.060 +0100|138646.831352|-0.04754638671875|1.044204711914062|-0.4116668701171875|138646.816381|1.983151712066488|0.2881797619272879|-1.274093772860122|0.3061626255512238|0.2364073991775513|-0.4704723954200745|-0.1124655604362488|0.1096886992454529|-0.07747519016265869|XArbitraryZVertical|-0.4188155826056826|-0.4294616859952244|0.6190150551244956|0.5069286754400802|0.08309341222047806|0.9563057422637939|-0.2803123295307159|0|0|0|-1|-1|3
2021-04-22 21:07:56.081 +0100|138646.851314|-0.05291748046875|1.000411987304688|-0.4308013916015625|138646.836343|1.941989760102502|0.2543550405031988|-1.271401784770564|0.2846265733242035|0.2962521016597748|-0.6101433634757996|-0.1249938383698463|0.1026514172554016|-0.1124047338962555|XArbitraryZVertical|-0.4166916206369309|-0.4285346168219485|0.6163277718910074|0.5127048958847106|0.07421364635229111|0.9555152654647827|-0.2854523360729218|0|0|0|-1|-1|3
2021-04-22 21:07:56.100 +0100|138646.871277|-0.05389404296875|0.93463134765625|-0.42974853515625|138646.856305|1.894595807227234|0.2149597110944476|-1.269148949430807|0.259328156709671|0.2877841293811798|-0.7028053998947144|-0.1107043027877808|0.05555832386016846|-0.1381487250328064|XArbitraryZVertical|-0.4142809515048277|-0.4280689720488835|0.6128904365322356|0.5191279008529348|0.06337257474660873|0.9548483490943909|-0.2902565002441406|0|0|0|-1|-1|3
2021-04-22 21:07:56.120 +0100|138646.891239|-0.0425567626953125|0.896392822265625|-0.4095001220703125|138646.876267|1.843859001006972|0.1723156311140471|-1.267745454962857|0.1705215126276016|0.2948257029056549|-0.7526910305023193|-0.1032784283161163|-0.004768967628479004|-0.1415169835090637|XArbitraryZVertical|-0.4118153738388812|-0.4282534940775268|0.6088096721438404|0.5256976051186472|0.05117069184780121|0.9544304609298706|-0.2940140962600708|0|0|0|-1|-1|3
2021-04-22 21:07:56.141 +0100|138646.911201|-0.027435302734375|0.8763580322265625|-0.3921966552734375|138646.896229|1.79213076892854|0.1291019147897609|-1.268132281780253|0.03082024306058884|0.3275631964206696|-0.7680531740188599|-0.08768928050994873|-0.04440462589263916|-0.1151973009109497|XArbitraryZVertical|-0.4098901870222293|-0.4291829955698241|0.6039100552373561|0.5320570991157689|0.03837389126420021|0.954545795917511|-0.2955839931964874|0|0|0|-1|-1|3
2021-04-22 21:07:56.161 +0100|138646.931163|-0.021484375|0.8700714111328125|-0.4126739501953125|138646.916191|1.741556876524359|0.08765405585835374|-1.270587177348611|-0.1060129553079605|0.3555779755115509|-0.7647774815559387|-0.0531390905380249|-0.08241063356399536|-0.09941160678863525|XArbitraryZVertical|-0.4089004534733299|-0.4307062968389481|0.5982696623410958|0.5379275506431312|0.02588790655136108|0.9552746415138245|-0.2945850193500519|0|0|0|-1|-1|3
2021-04-22 21:07:56.181 +0100|138646.951125|-0.02276611328125|0.8810272216796875|-0.43896484375|138646.936153|1.688447816639014|0.04377317244632922|-1.273717718348664|-0.1938242465257645|0.3489668965339661|-0.7519492506980896|-0.03920626640319824|-0.08243143558502197|-0.1132063865661621|XArbitraryZVertical|-0.4081048132613475|-0.4326967534913175|0.5921408073355166|0.5436850009547697|0.01280955784022808|0.9561957120895386|-0.292447954416275|0|0|0|-1|-1|3
2021-04-22 21:07:56.211 +0100|138646.971087|-0.0055694580078125|0.9134674072265625|-0.4698944091796875|138646.956116|1.633418605643995|-0.002522073895415024|-1.275283782316271|-0.1631765365600586|0.3145113885402679|-0.762407660484314|-0.02120664715766907|-0.08334648609161377|-0.1441182792186737|XArbitraryZVertical|-0.4068191052678167|-0.4346071813963691|0.5861834370565304|0.5495488425140395|-0.0007345041958615184|0.9566529989242554|-0.291229635477066|0|0|0|-1|-1|3
2021-04-22 21:07:56.220 +0100|138646.991049|-0.0068817138671875|0.986114501953125|-0.472900390625|138646.976078|1.575829996743565|-0.05220851274801987|-1.273961799729965|-0.003895410802215338|0.2514073848724365|-0.8390191197395325|0.003225595690310001|-0.05363327264785767|-0.1716634929180145|XArbitraryZVertical|-0.4044896353528676|-0.4362797367352225|0.5806240548471773|0.5558092266924788|-0.01526378188282251|0.9562671780586243|-0.2920962572097778|0|0|0|-1|-1|3
2021-04-22 21:07:56.240 +0100|138647.011011|-0.016571044921875|0.9539794921875|-0.484405517578125|138646.99604|1.514607572853911|-0.1062169567409986|-1.267810914219035|0.2500931918621063|0.1999629437923431|-0.9848230481147766|0.02588093653321266|0.01803863048553467|-0.1683215200901031|XArbitraryZVertical|-0.4004274100914205|-0.4373935843159125|0.5755690669883631|0.5630852653468446|-0.03163250163197517|0.9544500112533569|-0.2966894805431366|0|0|0|-1|-1|3
2021-04-22 21:07:56.260 +0100|138647.030974|-0.07501220703125|0.8307342529296875|-0.442962646484375|138647.016002|1.453625040582298|-0.1606370852356176|-1.254996124547664|0.4764346182346344|0.1518751978874207|-1.020282387733459|0.04033860564231873|0.02488553524017334|-0.1789243817329407|XArbitraryZVertical|-0.3941817990937092|-0.4374141212647505|0.5713728289170761|0.5716842735774624|-0.04967600852251053|0.9505481719970703|-0.306579202413559|0|0|0|-1|-1|3
2021-04-22 21:07:56.280 +0100|138647.050936|-0.123992919921875|0.7617034912109375|-0.4181365966796875|138647.035964|1.4009893243028|-0.2073987061158526|-1.240141929573996|0.3341103494167328|0.1546819061040878|-0.9428614974021912|0.009419739246368408|-0.08970487117767334|-0.1437203884124756|XArbitraryZVertical|-0.3875697776700209|-0.4369636846729572|0.56776488473378|0.5800824030997889|-0.066852867603302|0.9458301067352295|-0.3177047967910767|0|0|0|-1|-1|3
2021-04-22 21:07:56.300 +0100|138647.070898|-0.136932373046875|0.7640228271484375|-0.4020233154296875|138647.055926|1.35671307424739|-0.2448950898135117|-1.229648194803809|0.07821913063526154|0.2067140638828278|-0.8047162294387817|-0.0368926152586937|-0.1732210516929626|-0.1018500030040741|XArbitraryZVertical|-0.383138353569921|-0.436934337244354|0.5636178481105275|0.5870505667241721|-0.08111786842346191|0.942371129989624|-0.3245867788791656|0|0|0|-1|-1|3
2021-04-22 21:07:56.320 +0100|138647.09086|-0.14886474609375|0.7765960693359375|-0.3669281005859375|138647.075888|1.321151692470423|-0.2732617654081206|-1.223763073247291|-0.04718512669205666|0.2295424044132233|-0.6449782252311707|-0.04438179731369019|-0.1697250604629517|-0.07465445995330811|XArbitraryZVertical|-0.3809387892988173|-0.4371961415647247|0.5593495428725322|0.5923457482483155|-0.09178667515516281|0.9403858780860901|-0.327490359544754|0|0|0|-1|-1|3
2021-04-22 21:07:56.340 +0100|138647.110822|-0.1597747802734375|0.8208770751953125|-0.357177734375|138647.09585|1.293276779340031|-0.2937925968674377|-1.220630267872054|-0.1672544032335281|0.2668852806091309|-0.5311960577964783|-0.04605686664581299|-0.1718897819519043|-0.04955857992172241|XArbitraryZVertical|-0.3802259161130901|-0.437322105292928|0.5553690448757971|0.5964420356358702|-0.09934316575527191|0.9393157362937927|-0.3283552527427673|0|0|0|-1|-1|3
2021-04-22 21:07:56.360 +0100|138647.130784|-0.1660614013671875|0.8314056396484375|-0.351806640625|138647.115813|1.268817633355125|-0.3101397598505777|-1.218500427050276|-0.1428754776716232|0.3272743821144104|-0.4278001189231873|-0.05040737986564636|-0.1273490190505981|-0.02605229616165161|XArbitraryZVertical|-0.3803028703072579|-0.4371198711494521|0.5514149447969896|0.6001980988911868|-0.1053076609969139|0.9385829567909241|-0.3285918831825256|0|0|0|-1|-1|3
2021-04-22 21:07:56.380 +0100|138647.150746|-0.1443328857421875|0.813629150390625|-0.366546630859375|138647.135775|1.24976833040998|-0.3207624418564676|-1.214602869897938|-0.01961403526365757|0.3684064447879791|-0.288405567407608|-0.0554291158914566|-0.1059011220932007|-0.01976826786994934|XArbitraryZVertical|-0.3801608865863606|-0.435907989361303|0.548143559781487|0.6041529904734907|-0.1099447458982468|0.9372310042381287|-0.330923855304718|0|0|0|-1|-1|3
2021-04-22 21:07:56.400 +0100|138647.170708|-0.100860595703125|0.82171630859375|-0.369537353515625|138647.155737|1.238587058581897|-0.323709783713624|-1.211617256064903|0.01005444396287203|0.3841706514358521|-0.1311402171850204|-0.0400148332118988|-0.1170171499252319|-0.03224349021911621|XArbitraryZVertical|-0.3807234415782479|-0.4340792720723519|0.5456471992252536|0.6073666235251796|-0.1118091642856598|0.9361857175827026|-0.3332496881484985|0|0|0|-1|-1|3
2021-04-22 21:07:56.420 +0100|138647.190671|-0.014862060546875|0.7991485595703125|-0.4015960693359375|138647.175699|1.235032252901487|-0.3190615296041063|-1.210651684688846|0.08819516748189926|0.4122243821620941|-0.02400222606956959|-0.005927100777626038|-0.121621310710907|-0.03028973937034607|XArbitraryZVertical|-0.3824141720446119|-0.4317957924958123|0.5437844762191431|0.6095984361618746|-0.1105422973632812|0.9358458518981934|-0.3346235752105713|0|0|0|-1|-1|3
2021-04-22 21:07:56.440 +0100|138647.210633|0.05712890625|0.7052459716796875|-0.4362335205078125|138647.195661|1.241417934128956|-0.3050595186022003|-1.205937339048166|0.4774430394172668|0.3721188306808472|0.09630128741264343|0.07022964954376221|-0.1206665635108948|-0.05534696578979492|XArbitraryZVertical|-0.3831667888027668|-0.4277984816384913|0.5435769794277858|0.6121241283222567|-0.1071702539920807|0.9341740608215332|-0.3403433561325073|0|0|0|-1|-1|3
2021-04-22 21:07:56.460 +0100|138647.230595|0.09857177734375|0.4774932861328125|-0.3800506591796875|138647.215623|1.261852194136106|-0.2800905745034065|-1.193434458248534|0.8925415277481079|0.2103411257266998|0.2714180648326874|0.1429840326309204|-0.1933266520500183|-0.08241245150566101|XArbitraryZVertical|-0.3811938204652001|-0.421468995531896|0.5465108949088129|0.6151268970574882|-0.1018606796860695|0.9296399354934692|-0.3541103005409241|0|0|0|-1|-1|3
2021-04-22 21:07:56.480 +0100|138647.250557|0.1159515380859375|0.2784423828125|-0.3042449951171875|138647.235585|1.29708645906043|-0.2445549331010881|-1.178072959882332|0.8656612038612366|0.08897186815738678|0.6340938806533813|0.1764189004898071|-0.3781697750091553|-0.02469214797019958|XArbitraryZVertical|-0.37819692810471|-0.4138934526489885|0.5524883762120509|0.6167786685499159|-0.09266249090433121|0.9238702654838562|-0.3713185787200928|0|0|0|-1|-1|3
2021-04-22 21:07:56.500 +0100|138647.270519|0.08197021484375|0.2017669677734375|-0.2033843994140625|138647.255547|1.347468134884844|-0.1962919376118379|-1.167353282086365|0.5564950108528137|0.1311766803264618|1.034280896186829|0.1966401636600494|-0.6023315191268921|0.05149197578430176|XArbitraryZVertical|-0.3775928382149786|-0.4060780454467055|0.5603116924230356|0.6152847083990236|-0.07656785845756531|0.9197147488594055|-0.3850485384464264|0|0|0|-1|-1|3
2021-04-22 21:07:56.520 +0100|138647.290481|0.0799713134765625|0.23480224609375|-0.16302490234375|138647.27551|1.408656155743264|-0.1356204444078862|-1.165281506665363|0.1122516170144081|0.3193266689777374|1.283030271530151|0.1422665119171143|-0.705748975276947|0.1752485036849976|XArbitraryZVertical|-0.3817019186043957|-0.3985834014470028|0.5678574288924251|0.6107152109701097|-0.05333735048770905|0.9188994169235229|-0.3908698260784149|0|0|0|-1|-1|3
2021-04-22 21:07:56.540 +0100|138647.310443|0.0202789306640625|0.3520355224609375|-0.240936279296875|138647.295472|1.479113321266972|-0.06301621089777761|-1.165514648157908|0.1758787631988525|0.4643793106079102|1.47677755355835|0.1035352051258087|-0.7049865126609802|0.2006705105304718|XArbitraryZVertical|-0.3886354125842911|-0.3901473264056711|0.5752508490962144|0.6048422213207906|-0.02482944913208485|0.9189913868904114|-0.3934951722621918|0|0|0|-1|-1|3
2021-04-22 21:07:56.560 +0100|138647.330405|0.046417236328125|0.025970458984375|-0.256683349609375|138647.315434|1.557043746650484|0.02380268345727254|-1.159797755299724|0.6825148463249207|1.089516401290894|1.702066659927368|0.0337507426738739|-0.5257306098937988|0.2526690363883972|XArbitraryZVertical|-0.3970700389061411|-0.3776629030269465|0.582741980744413|0.6000984998824808|0.009508878923952579|0.916722297668457|-0.3994122445583344|0|0|0|-1|-1|3
2021-04-22 21:07:56.580 +0100|138647.350368|-0.18743896484375|0.8320465087890625|-0.8252410888671875|138647.335396|1.651301463445306|0.1399300298888342|-1.138174797552404|0.7071307897567749|2.078763723373413|2.079402208328247|-0.006868600845336914|-0.8839894533157349|0.1530704498291016|XArbitraryZVertical|-0.4077814596540865|-0.3551575810680568|0.5920912636558028|0.5974994387982202|0.05847476795315742|0.907869815826416|-0.415154755115509|0|0|0|-1|-1|3
2021-04-22 21:07:56.599 +0100|138647.37033|-0.3264007568359375|2.129837036132812|-1.492523193359375|138647.355358|1.731355525660472|0.268416421900957|-1.118008422375373|1.073354721069336|3.421153783798218|1.734586715698242|-0.2419350147247314|-0.3194729685783386|-0.1643714904785156|XArbitraryZVertical|-0.427023820446727|-0.3267199478334557|0.5938183695848949|0.5985688904508476|0.1160203814506531|0.89923095703125|-0.4218094646930695|0|0|0|-1|-1|3
2021-04-22 21:07:56.620 +0100|138647.390292|-0.1029510498046875|3.04351806640625|-1.6954345703125|138647.37532|1.757165631184413|0.3681509626196866|-1.07152867162735|3.19965124130249|4.233773231506348|0.6508530974388123|-0.4850223064422607|0.9194911122322083|-0.9181047677993774|XArbitraryZVertical|-0.4414819890243513|-0.2859070508965725|0.5911438362976035|0.6114734722795504|0.1723095625638962|0.8779334425926208|-0.4467016160488129|0|0|0|-1|-1|3
2021-04-22 21:07:56.639 +0100|138647.410254|-0.099212646484375|2.875717163085938|-1.302322387695312|138647.395282|1.683255089314493|0.3950999918806791|-0.9816921169736316|6.914351940155029|4.628308773040771|-0.7098411321640015|-0.3977551460266113|2.094098567962646|-1.151952743530273|XArbitraryZVertical|-0.4370255005961319|-0.2293541765481747|0.5832536986668795|0.6451515804702712|0.2138570547103882|0.8314387202262878|-0.5128107666969299|0|0|0|-1|-1|3
2021-04-22 21:07:56.660 +0100|138647.430216|-0.44488525390625|1.759490966796875|-0.662994384765625|138647.415244|1.538873765338908|0.3721220179520867|-0.8274986934371913|10.62406635284424|4.537652015686035|-1.820316791534424|-0.2650011777877808|2.262630462646484|-0.8343937397003174|XArbitraryZVertical|-0.4016484733605825|-0.1532213600945086|0.5726072167525612|0.6980851632070871|0.2460505068302155|0.7362409830093384|-0.630403459072113|0|0|0|-1|-1|3
2021-04-22 21:07:56.679 +0100|138647.450178|-0.0742645263671875|-0.5190277099609375|-0.5951690673828125|138647.435207|1.369022212384093|0.356110509443924|-0.6271573478429213|12.03521347045898|5.210289001464844|-2.847099781036377|-0.6930219531059265|1.533684372901917|-0.06379371881484985|XArbitraryZVertical|-0.341726435247757|-0.06143144970194143|0.5496253646956789|0.7598429914945779|0.282286524772644|0.5868454575538635|-0.7588984370231628|0|0|0|-1|-1|3
2021-04-22 21:07:56.699 +0100|138647.47014|0.6649169921875|-4.75640869140625|-2.1773681640625|138647.455169|1.217348625982111|0.3806075979837599|-0.4349745809950948|10.17269420623779|4.455372333526611|-1.981391906738281|-0.568367600440979|-0.2073514759540558|0.3230327963829041|XArbitraryZVertical|-0.279437339025555|0.03038055204910113|0.5147459622905213|0.8099559709411662|0.336892306804657|0.4213873445987701|-0.8419836163520813|0|0|0|-1|-1|3
2021-04-22 21:07:56.719 +0100|138647.490102|2.912109375|-4.949234008789062|-3.634048461914062|138647.475131|1.140219575851412|0.4154906888016563|-0.2826896035937548|6.208769798278809|1.54944372177124|1.842450499534607|0.1066452860832214|-3.888511896133423|-0.8702052235603333|XArbitraryZVertical|-0.2262544840058034|0.09750322186833037|0.4983922996317237|0.8312083086987891|0.3876179754734039|0.2789395153522491|-0.8786040544509888|0|0|0|-1|-1|3
2021-04-22 21:07:56.739 +0100|138647.510064375|4.72882080078125|-1.382369995117188|-3.142929077148438|138647.495093375|1.235945265643485|0.4055093143703964|-0.2140632460582175|-2.72951340675354|-4.99362325668335|9.007798194885254|1.783905506134033|-5.568281650543213|-2.318166017532349|XArbitraryZVertical|-0.2012885053627515|0.1025608081115872|0.5467348588724605|0.8062539032018529|0.3854829967021942|0.2124321460723877|-0.8979284167289734|0|0|0|-1|-1|3
2021-04-22 21:07:56.759 +0100|138647.530027375|9.496749877929688|2.488616943359375|1.069671630859375|138647.515055375|1.42095814343351|0.3347990047770429|-0.2829477573755702|-11.11042404174805|-3.691298484802246|3.009087085723877|4.102501392364502|-2.858639240264893|-2.990524291992188|XArbitraryZVertical|-0.2129752401257005|0.0343675522931698|0.6188459940731861|0.755308095883662|0.31551393866539|0.27918741106987|-0.906920850276947|0|0|0|-1|-1|3
2021-04-22 21:07:56.779 +0100|138647.549989375|3.452133178710938|0.4252777099609375|4.7239990234375|138647.535017375|1.490332898516812|0.1825494596710763|-0.4829966735315583|-9.49464225769043|-17.63673210144043|1.938342452049255|7.057995319366455|1.705044865608215|0.8679322600364685|XArbitraryZVertical|-0.2350566329388538|-0.09644886612831037|0.6396540537352867|0.7254577582297037|0.1607706993818283|0.4644351303577423|-0.8708919882774353|0|0|0|-1|-1|3
2021-04-22 21:07:56.799 +0100|138647.569951375|-2.379867553710938|-4.48126220703125|5.631271362304688|138647.554979375|1.595982942036658|-0.1721973120932545|-0.6812997904329993|-8.911966323852539|-22.77404403686523|4.052004814147949|5.331796169281006|1.130893707275391|5.582573890686035|XArbitraryZVertical|-0.1743575259739344|-0.2948998334608032|0.6923729717294603|0.6350222762322482|-0.1330950558185577|0.6298031806945801|-0.7652670741081238|0|0|0|-1|-1|3
2021-04-22 21:07:56.819 +0100|138647.589913375|-1.28179931640625|7.600677490234375|3.89739990234375|138647.574941375|1.477891669062304|-0.5389639581081209|-0.9532918610926526|-25.77726745605469|-6.975945472717285|0.4108262062072754|0.6817700862884521|-4.292986392974854|6.114797592163086|XArbitraryZVertical|-0.167572991453714|-0.4727129655291813|0.6671296404322035|0.5508174407895341|-0.2971712648868561|0.815325915813446|-0.4969234764575958|0|0|0|-1|-1|3
2021-04-22 21:07:56.839 +0100|138647.609875375|0.659515380859375|6.783203125|-1.82037353515625|138647.594903375|0.2118145126524623|-1.810229940171074|-1.228511868183946|-23.84916114807129|-5.361646175384521|-3.850027561187744|-2.002745628356934|2.356822967529297|6.486915588378906|XArbitraryZVertical|-0.2860147556606158|-0.6767528927604861|0.5041093001463114|0.4539547511264563|-0.3260649740695953|0.9419903755187988|0.0795978382229805|0|0|0|-1|-1|3
2021-04-22 21:07:56.859 +0100|138647.629837375|3.463760375976562|0.8359222412109375|3.1822509765625|138647.614866375|0.04500674591751739|-2.069225404410666|-1.053143648032579|5.832765579223633|-3.666678428649902|-6.081249237060547|-0.7331629991531372|7.214147567749023|-3.124908685684204|XArbitraryZVertical|-0.2399553502887382|-0.7487991473755918|0.4418721898792693|0.4318221844011115|-0.4346369802951813|0.8689831495285034|0.2365574687719345|0|0|0|-1|-1|3
2021-04-22 21:07:56.879 +0100|138647.649799375|-1.009002685546875|-0.8269195556640625|4.001968383789062|138647.634828375|0.5112471314194643|-1.754932486082947|-1.101476808961386|13.51677322387695|-4.749384880065918|1.832641959190369|4.345223903656006|1.455231189727783|1.880582928657532|XArbitraryZVertical|-0.1578682656628529|-0.7186676691078278|0.5271178040647855|0.4251367906039547|-0.4446337819099426|0.8918762803077698|0.08281121402978897|0|0|0|-1|-1|3
2021-04-22 21:07:56.899 +0100|138647.669761375|-1.91436767578125|-0.2455596923828125|1.659133911132812|138647.654790375|0.9041528160485174|-1.436036935306629|-1.122230960696042|3.571679353713989|1.247025728225708|-0.2531221210956573|0.4267063140869141|-1.674140810966492|4.42624568939209|XArbitraryZVertical|-0.1171722033471561|-0.6761199796654117|0.5934553582605576|0.4206464479901823|-0.4297419786453247|0.9010701775550842|-0.05826489627361298|0|0|0|-1|-1|3
2021-04-22 21:07:56.919 +0100|138647.689724375|-1.003738403320312|1.070510864257812|0.522552490234375|138647.674752375|1.011552463457922|-1.292098088461884|-1.12132634032947|2.089344501495361|2.765479803085327|1.407532572746277|-1.651214838027954|-1.554775476455688|2.282050848007202|XArbitraryZVertical|-0.1244022821866914|-0.6517355568167336|0.6076727293419605|0.4364617044756555|-0.4177234768867493|0.900677502155304|-0.1195296719670296|0|0|0|-1|-1|3
2021-04-22 21:07:56.939 +0100|138647.709686375|-0.5802001953125|1.122390747070312|0.4457244873046875|138647.694714375|1.161225178087086|-1.111090837064384|-1.128268221328284|3.484447479248047|1.720427870750427|1.355200290679932|-0.8466838598251343|0.0387113094329834|0.8985997438430786|XArbitraryZVertical|-0.1353563040935743|-0.6218361608804618|0.6296153866142752|0.445626542191346|-0.3837685585021973|0.9036719799041748|-0.1899969130754471|0|0|0|-1|-1|3
2021-04-22 21:07:56.959 +0100|138647.729648375|-0.682708740234375|1.185501098632812|0.373748779296875|138647.714676375|1.31549907833004|-0.9453331043285006|-1.112469342570553|2.789049625396729|1.079674124717712|0.7692832946777344|-0.2265603840351105|0.2020376324653625|0.6876304149627686|XArbitraryZVertical|-0.1356625748659032|-0.5933589635056908|0.6524792918246067|0.4514329130848047|-0.3586894869804382|0.8967939615249634|-0.2590416073799133|0|0|0|-1|-1|3
2021-04-22 21:07:56.979 +0100|138647.749610375|-0.473846435546875|1.218994140625|0.0616302490234375|138647.734638375|1.403544329325028|-0.8463013343379089|-1.094532817980086|1.534946322441101|1.015026211738586|0.3258119821548462|-0.3340857326984406|0.2869302034378052|0.7185827493667603|XArbitraryZVertical|-0.1359667426815588|-0.5740980201341097|0.6658469783111141|0.4566973304988261|-0.3433119654655457|0.8887141346931458|-0.3038490116596222|0|0|0|-1|-1|3
2021-04-22 21:07:56.999 +0100|138647.769572375|-0.18255615234375|1.321365356445312|-0.202972412109375|138647.754600375|1.44214603991387|-0.7926929913053818|-1.081767055185394|0.6428418755531311|0.8982478380203247|-0.04530645161867142|-0.2155785858631134|0.3286063075065613|0.4657922685146332|XArbitraryZVertical|-0.1382688645078735|-0.5621469738279236|0.67137696936863|0.4627369651548102|-0.3345912992954254|0.8827893137931824|-0.3297449946403503|0|0|0|-1|-1|3
2021-04-22 21:07:57.019 +0100|138647.789534375|-0.09979248046875|1.371826171875|-0.3676605224609375|138647.774563375|1.442388147924959|-0.7768812162960714|-1.074934942184157|-0.0292242206633091|0.6520030498504639|-0.4371552765369415|0.09526106715202332|0.3983953595161438|0.1977466940879822|XArbitraryZVertical|-0.1410286282526673|-0.5571959094467007|0.6705573450367702|0.4690380268991218|-0.3335565626621246|0.8795592188835144|-0.339287281036377|0|0|0|-1|-1|3
2021-04-22 21:07:57.039 +0100|138647.809496375|-0.120574951171875|1.2783203125|-0.346099853515625|138647.794525375|1.424310953175136|-0.7822222802714264|-1.067179861246179|0.02254833094775677|0.3965981304645538|-0.6930195689201355|0.2324356734752655|0.5033383369445801|0.001753032207489014|XArbitraryZVertical|-0.1414527161897485|-0.5557216002771155|0.6669113392352695|0.4758089173517098|-0.3401617407798767|0.8758429884910583|-0.3423292636871338|0|0|0|-1|-1|3
2021-04-22 21:07:57.059 +0100|138647.829458375|-0.1600799560546875|1.1611328125|-0.3167877197265625|138647.814487375|1.404211724218553|-0.7934645578263729|-1.054849904669144|0.1289637982845306|0.2643752098083496|-0.8711652755737305|0.2397986948490143|0.4342820644378662|-0.01277860999107361|XArbitraryZVertical|-0.1387832838947766|-0.5547280622524828|0.6632013250725085|0.482887459781961|-0.3516599237918854|0.8698261976242065|-0.3460319638252258|0|0|0|-1|-1|3
2021-04-22 21:07:57.079 +0100|138647.849421375|-0.26287841796875|1.089889526367188|-0.2911529541015625|138647.834449375|1.382691382176843|-0.8067894540221775|-1.039174497559457|0.19473035633564|0.2789040803909302|-0.9758347868919373|0.2189467549324036|0.3357988595962524|0.03394877910614014|XArbitraryZVertical|-0.1345669338874038|-0.5536593929134472|0.6591617131843639|0.4907739801522359|-0.3660404980182648|0.8619860410690308|-0.3507060408592224|0|0|0|-1|-1|3
2021-04-22 21:07:57.099 +0100|138647.869383375|-0.30047607421875|1.034515380859375|-0.3127593994140625|138647.854411375|1.362371665184236|-0.8179633677215733|-1.021051558419137|0.2855165004730225|0.3505903780460358|-1.081475973129272|0.1423079669475555|0.2418098449707031|0.0532926619052887|XArbitraryZVertical|-0.1297896739737364|-0.5518568605838434|0.6550573868102139|0.4995084379822963|-0.381274938583374|0.8526579141616821|-0.3572172820568085|0|0|0|-1|-1|3
2021-04-22 21:07:57.118 +0100|138647.889345375|-0.344329833984375|0.91729736328125|-0.3341217041015625|138647.874373375|1.345242413480594|-0.8247494268194399|-0.9992855551314316|0.5773729681968689|0.4253227114677429|-1.126840710639954|0.1053125262260437|0.2155410647392273|0.06282725930213928|XArbitraryZVertical|-0.1241623453626416|-0.5486502053256594|0.6512282170073539|0.5093805354387634|-0.3972274363040924|0.8410847783088684|-0.3671333193778992|0|0|0|-1|-1|3
2021-04-22 21:07:57.138 +0100|138647.909307375|-0.3513336181640625|0.6532440185546875|-0.30938720703125|138647.894335375|1.337147290066486|-0.8222373399629062|-0.9718122319418926|1.001840114593506|0.4774425327777863|-1.160645723342896|0.07351428270339966|0.1378216147422791|0.07092571258544922|XArbitraryZVertical|-0.1168821674170647|-0.5426607555291437|0.648899138147071|0.5203728749075835|-0.4130823910236359|0.8259088397026062|-0.3837157189846039|0|0|0|-1|-1|3
2021-04-22 21:07:57.159 +0100|138647.929269375|-0.348541259765625|0.5627899169921875|-0.2499847412109375|138647.914297375|1.339024413754287|-0.811408308390292|-0.9411934947520586|1.037836909294128|0.4630500972270966|-0.9934833645820618|0.0757773220539093|-0.08842754364013672|0.07056847214698792|XArbitraryZVertical|-0.1083690896193857|-0.534378230469359|0.6485591797629998|0.5310998769453492|-0.4270488917827606|0.8082614541053772|-0.4053920805454254|0|0|0|-1|-1|3
2021-04-22 21:07:57.178 +0100|138647.949231375|-0.3142242431640625|0.6649169921875|-0.293670654296875|138647.934259375|1.336613410444085|-0.8036503451826538|-0.9162218755097011|0.5888416171073914|0.5073785185813904|-0.9562980532646179|0.08779412508010864|-0.2395497560501099|0.1654472947120667|XArbitraryZVertical|-0.1021064537263851|-0.5275297772184604|0.6472528294167813|0.5406945270233515|-0.4382875561714172|0.7933070659637451|-0.4225732088088989|0|0|0|-1|-1|3
2021-04-22 21:07:57.198 +0100|138647.969193375|-0.2686920166015625|0.6050262451171875|-0.382598876953125|138647.954222375|1.328735161419372|-0.7995754587732077|-0.8947708087903836|0.6528619527816772|0.4995600879192352|-0.8992003202438354|0.1274511814117432|-0.1243186593055725|0.1676399111747742|XArbitraryZVertical|-0.09737724862568094|-0.5219755498585539|0.6446134162851272|0.550029981101143|-0.448663055896759|0.7800657153129578|-0.4361183941364288|0|0|0|-1|-1|3
2021-04-22 21:07:57.219 +0100|138647.989155375|-0.3844146728515625|0.5393524169921875|-0.3624420166015625|138647.974184375|1.326985317819502|-0.7924356077098734|-0.8707868354417331|0.8822504878044128|0.3114410936832428|-0.8877963423728943|0.1780001521110535|-0.1356087923049927|0.08964788913726807|XArbitraryZVertical|-0.09103461175562713|-0.5153186045168248|0.6433924627152711|0.5587537459894332|-0.4587304294109344|0.7648360729217529|-0.4523188769817352|0|0|0|-1|-1|3
2021-04-22 21:07:57.238 +0100|138648.009117375|-0.4905548095703125|0.5462493896484375|-0.289825439453125|138647.994146375|1.329303159871827|-0.7857609719823631|-0.8440946839952217|1.083467960357666|0.205869197845459|-0.8679621815681458|0.1190115213394165|-0.1987853050231934|0.07118427753448486|XArbitraryZVertical|-0.08244971418372063|-0.5083143584860738|0.6432375223149933|0.56662526421312|-0.469978004693985|0.7473699450492859|-0.4696371257305145|0|0|0|-1|-1|3
2021-04-22 21:07:57.258 +0100|138648.029080375|-0.3803558349609375|0.3347930908203125|-0.2624664306640625|138648.014108375|1.334732317646884|-0.7770128124974321|-0.8161144633766277|1.166654944419861|0.2900708913803101|-0.7752911448478699|-0.003296822309494019|-0.1790351271629333|0.1915325522422791|XArbitraryZVertical|-0.07326031631787136|-0.5004060766384465|0.6438347269599066|0.5741983279926433|-0.4803296029567719|0.7284895181655884|-0.4884533584117889|0|0|0|-1|-1|3
2021-04-22 21:07:57.278 +0100|138648.049042375|-0.4149169921875|0.1028289794921875|-0.261962890625|138648.034070375|1.345034897786893|-0.7633151425304475|-0.7915421013089458|1.057172656059265|0.3082568645477295|-0.425491601228714|0.0790722668170929|-0.3171196579933167|0.2512697577476501|XArbitraryZVertical|-0.0657858483616473|-0.4917186152721253|0.6457689558393476|0.580402902240066|-0.4858249127864838|0.7114378213882446|-0.5077700614929199|0|0|0|-1|-1|3
2021-04-22 21:07:57.298 +0100|138648.069004375|-0.53472900390625|0.2279205322265625|-0.2567138671875|138648.054032375|1.353221668202897|-0.7527572336919208|-0.7763866889547351|0.3194878399372101|0.1981570571660995|-0.2719721496105194|0.1074130833148956|-0.5645512342453003|0.2350360751152039|XArbitraryZVertical|-0.061448916772907|-0.4856785841149297|0.6474724658720837|0.5840547307849039|-0.4877527952194214|0.7007060647010803|-0.5206806659698486|0|0|0|-1|-1|3
2021-04-22 21:07:57.318 +0100|138648.088966375|-0.571380615234375|0.307647705078125|-0.3868408203125|138648.073994375|1.344336085569231|-0.755029151977558|-0.7746323983450919|-0.4694463908672333|0.2048565447330475|-0.2601462304592133|-0.03239408135414124|-0.529561460018158|0.2948490381240845|XArbitraryZVertical|-0.06220665981936774|-0.4856928760468167|0.6449008760646254|0.586801183438811|-0.4897760450839996|0.6994534134864807|-0.5204655528068542|0|0|0|-1|-1|3
2021-04-22 21:07:57.338 +0100|138648.108928375|-0.73895263671875|0.280242919921875|-0.4046173095703125|138648.093956375|1.33378086228145|-0.7585157491928785|-0.7806344242056915|-0.5195519924163818|0.2047697901725769|0.1279562413692474|-0.06355395913124084|-0.3906345963478088|0.1395689845085144|XArbitraryZVertical|-0.06593766791421969|-0.4876506345783969|0.6420610929318059|0.5878832390781429|-0.4886912405490875|0.7037302851676941|-0.5156981945037842|0|0|0|-1|-1|3
2021-04-22 21:07:57.358 +0100|138648.128890375|-0.8398590087890625|0.3951263427734375|-0.4734954833984375|138648.113919375|1.325226381923994|-0.7587645004628853|-0.7942732512551954|-0.8559674024581909|0.3885844051837921|0.3486620783805847|-0.2132631242275238|-0.4421288967132568|0.112552285194397|XArbitraryZVertical|-0.07315127650970574|-0.4902724254663988|0.6398929601254771|0.5872128436207307|-0.4821705520153046|0.7133544683456421|-0.5085636973381042|0|0|0|-1|-1|3
2021-04-22 21:07:57.378 +0100|138648.148852375|-0.8295440673828125|0.4206390380859375|-0.4585723876953125|138648.133881375|1.315874074351931|-0.7562911828611791|-0.8132671071824652|-0.9236558079719543|0.5220633745193481|0.4985007345676422|-0.349883109331131|-0.3473086953163147|0.0383971631526947|XArbitraryZVertical|-0.08349671073587028|-0.4930765179723694|0.6374885451491497|0.5860991713954139|-0.4715270698070526|0.726535975933075|-0.4998076856136322|0|0|0|-1|-1|3
2021-04-22 21:07:57.398 +0100|138648.168814375|-0.774505615234375|0.4897918701171875|-0.5254974365234375|138648.153843375|1.309237774805845|-0.749158404421099|-0.836099592445473|-1.057332992553711|0.6944210529327393|0.7256957292556763|-0.3869882225990295|-0.3377975821495056|0.03270536661148071|XArbitraryZVertical|-0.09613950552321958|-0.4952945319919764|0.6356759297658655|0.5842575352392275|-0.4565319716930389|0.7420340776443481|-0.4908810555934906|0|0|0|-1|-1|3
2021-04-22 21:07:57.418 +0100|138648.188777375|-0.764373779296875|0.526824951171875|-0.573883056640625|138648.173805375|1.306091043249651|-0.735984038672544|-0.8623072596033626|-0.978909969329834|0.8488539457321167|0.8801742792129517|-0.3460796475410461|-0.2826912403106689|-0.02546596527099609|XArbitraryZVertical|-0.1111261384022652|-0.4965036330998029|0.6344548793439659|0.5818954190361942|-0.4368173480033875|0.7593458890914917|-0.4822702407836914|0|0|0|-1|-1|3
2021-04-22 21:07:57.438 +0100|138648.208739375|-0.7205810546875|0.460235595703125|-0.544769287109375|138648.193767375|1.308838741983172|-0.7154472259316823|-0.8866835183881658|-0.702099084854126|0.9952279329299927|0.8416504859924316|-0.3544419407844543|-0.2548683881759644|-0.08773535490036011|XArbitraryZVertical|-0.1262667131340359|-0.4955252461935423|0.6342108743815809|0.5799036082090533|-0.4145542979240417|0.7749800682067871|-0.4770228862762451|0|0|0|-1|-1|3
2021-04-22 21:07:57.458 +0100|138648.228701375|-0.6663665771484375|0.3456573486328125|-0.4716644287109375|138648.213729375|1.316618038873302|-0.6882318013595766|-0.9056246134664614|-0.4651985466480255|1.117774605751038|0.7517796754837036|-0.338656485080719|-0.2991088032722473|-0.07854935526847839|XArbitraryZVertical|-0.1401902346149882|-0.491930251398343|0.6346257652957565|0.5793113627514485|-0.3920249044895172|0.7868108153343201|-0.4767026603221893|0|0|0|-1|-1|3
2021-04-22 21:07:57.478 +0100|138648.248663375|-0.579437255859375|0.2572784423828125|-0.4101715087890625|138648.233691375|1.326006831710321|-0.6572410294238072|-0.9212166549404017|-0.4281227588653564|1.245820164680481|0.6863529682159424|-0.3126485645771027|-0.4223598837852478|-0.01356670260429382|XArbitraryZVertical|-0.1536406893435199|-0.4867953915787466|0.6349023366580084|0.5799343998092601|-0.369525134563446|0.7963380813598633|-0.4788495600223541|0|0|0|-1|-1|3
2021-04-22 21:07:57.498 +0100|138648.268625375|-0.46185302734375|0.16229248046875|-0.355194091796875|138648.253653375|1.334962387526451|-0.6241549717281373|-0.9363077675782859|-0.4584585130214691|1.337267994880676|0.6446514129638672|-0.2593536078929901|-0.5260469317436218|0.05372768640518188|XArbitraryZVertical|-0.167669217279694|-0.4810248598340973|0.6345360254164036|0.5812628105865174|-0.3464193940162659|0.8053749799728394|-0.4810042381286621|0|0|0|-1|-1|3
2021-04-22 21:07:57.518 +0100|138648.288587375|-0.391448974609375|0.1911468505859375|-0.3142547607421875|138648.273616375|1.34302522158418|-0.5906709677037849|-0.9516300939878941|-0.5443024635314941|1.363715291023254|0.6228021383285522|-0.166137158870697|-0.634766161441803|0.1130066215991974|XArbitraryZVertical|-0.1821089137841788|-0.4752092454979246|0.6334920139446895|0.5828382955229187|-0.3232112228870392|0.814362645149231|-0.4820250272750854|0|0|0|-1|-1|3
2021-04-22 21:07:57.538 +0100|138648.308549375|-0.3025970458984375|0.2552642822265625|-0.2824249267578125|138648.293578375|1.3494417388198|-0.5579576854792245|-0.9681693293050463|-0.6486107707023621|1.386709570884705|0.5914159417152405|-0.11185622215271|-0.6490137577056885|0.1608231365680695|XArbitraryZVertical|-0.1971144587045369|-0.469811798886872|0.6316043576411187|0.5843789872304664|-0.3000995814800262|0.8238494396209717|-0.4808455407619476|0|0|0|-1|-1|3
2021-04-22 21:07:57.558 +0100|138648.328511375|-0.2278900146484375|0.34869384765625|-0.2734527587890625|138648.313540375|1.353035369657047|-0.5270363106072478|-0.9858551411734034|-0.7445704936981201|1.409948229789734|0.4761462807655334|-0.04477617144584656|-0.5975990295410156|0.1933502554893494|XArbitraryZVertical|-0.2125828078748707|-0.4649691022320086|0.6286208128079933|0.5860446906502171|-0.2777173817157745|0.8337445855140686|-0.4772245585918427|0|0|0|-1|-1|3
2021-04-22 21:07:57.578 +0100|138648.348473375|-0.188018798828125|0.379913330078125|-0.296966552734375|138648.333502375|1.352967742798817|-0.4990172880021664|-1.002589761469638|-0.6932214498519897|1.400190591812134|0.3432406485080719|0.01388886570930481|-0.5192890167236328|0.1999166011810303|XArbitraryZVertical|-0.2275579531215986|-0.460399505267363|0.6245563506577971|0.5883700001273366|-0.2575249969959259|0.8428674340248108|-0.4724993407726288|0|0|0|-1|-1|3
2021-04-22 21:07:57.598 +0100|138648.368436375|-0.180908203125|0.371307373046875|-0.3083038330078125|138648.353464375|1.352776955588008|-0.4715257526338886|-1.016443830785406|-0.5720703601837158|1.358811974525452|0.3323730230331421|0.04456335306167603|-0.4655516147613525|0.179659903049469|XArbitraryZVertical|-0.2412516083723332|-0.4553264331309216|0.6203782933509784|0.5912752061810418|-0.2391119450330734|0.850241482257843|-0.4689509868621826|0|0|0|-1|-1|3
2021-04-22 21:07:57.618 +0100|138648.388398375|-0.134063720703125|0.48291015625|-0.3368682861328125|138648.373426375|1.353958812654477|-0.4440215968389715|-1.031520065806709|-0.8124658465385437|1.300098419189453|0.3699089288711548|0.0410592257976532|-0.4924489259719849|0.1543641090393066|XArbitraryZVertical|-0.25500173040221|-0.4506815616518709|0.6162261492381316|0.5934019152668266|-0.2205931395292282|0.8580805659294128|-0.4637205004692078|0|0|0|-1|-1|3
2021-04-22 21:07:57.638 +0100|138648.408360375|-0.047698974609375|0.69683837890625|-0.3731536865234375|138648.393388375|1.349664934446035|-0.4228773482070328|-1.053892405964102|-1.315511226654053|1.180792689323425|0.368774950504303|0.04953554272651672|-0.4314409494400024|0.12373948097229|XArbitraryZVertical|-0.2705913010298226|-0.4488329291082669|0.610396580958137|0.5939237998713347|-0.2028091102838516|0.8693534135818481|-0.4506587088108063|0|0|0|-1|-1|3
2021-04-22 21:07:57.658 +0100|138648.428322375|0.0576019287109375|0.8718109130859375|-0.36279296875|138648.413350375|1.339995755891682|-0.4078115042404619|-1.084447225886346|-1.620048403739929|1.146651387214661|0.4383553564548492|0.1105592101812363|-0.2364617586135864|0.0621885359287262|XArbitraryZVertical|-0.2883959041197562|-0.449769486057082|0.6027994018132157|0.5925944559384245|-0.1853720545768738|0.8840451836585999|-0.4290704131126404|0|0|0|-1|-1|3
2021-04-22 21:07:57.677 +0100|138648.448284375|0.09765625|1.066726684570312|-0.35107421875|138648.433312375|1.330405221198591|-0.3940199022820072|-1.119151922511044|-1.726403117179871|1.113686203956604|0.5414466261863708|0.2025271058082581|-0.07148313522338867|0.03462517261505127|XArbitraryZVertical|-0.3071845577227976|-0.4518146188672299|0.594712184100149|0.5897615934048455|-0.1675530225038528|0.8997306227684021|-0.4030023813247681|0|0|0|-1|-1|3
2021-04-22 21:07:57.697 +0100|138648.468246375|0.074462890625|1.167510986328125|-0.4124603271484375|138648.453274375|1.328315169499022|-0.3738851437561805|-1.154773787899286|-1.576690316200256|1.099439382553101|0.7042708992958069|0.245166540145874|0.1024935245513916|0.02256965637207031|XArbitraryZVertical|-0.3263333547142243|-0.4532141799927719|0.587357484569088|0.5857600483954029|-0.147600844502449|0.9147035479545593|-0.3762069046497345|0|0|0|-1|-1|3
2021-04-22 21:07:57.717 +0100|138648.488208375|0.0430450439453125|1.09844970703125|-0.398773193359375|138648.473237375|1.342075722971783|-0.3393572830560143|-1.185123413653944|-1.09024715423584|1.08448326587677|0.8770579099655151|0.2080652117729187|0.2390586137771606|-0.03711622953414917|XArbitraryZVertical|-0.3440140809108665|-0.4519843122168692|0.5822439175647826|0.5816844326190824|-0.1252242624759674|0.9265455007553101|-0.3547289967536926|0|0|0|-1|-1|3
2021-04-22 21:07:57.737 +0100|138648.508170125|0.0318145751953125|1.121307373046875|-0.36163330078125|138648.493199125|1.374456697780417|-0.2874199647818229|-1.210173561706894|-0.9906867742538452|1.067148447036743|1.010142207145691|0.1501383781433105|0.1776806116104126|-0.07000336050987244|XArbitraryZVertical|-0.3604551101203475|-0.4481974395982677|0.5793568201556001|0.5775265207875023|-0.1000275611877441|0.9356772303581238|-0.3383823335170746|0|0|0|-1|-1|3
2021-04-22 21:07:57.757 +0100|138648.528132125|0.0680694580078125|1.157791137695312|-0.3536834716796875|138648.513161125|1.421806106865321|-0.2208556420616928|-1.235502740372943|-1.054372906684875|1.150471210479736|1.249478220939636|0.1034402549266815|0.1715770959854126|-0.06213915348052979|XArbitraryZVertical|-0.3776117956398465|-0.4437140998864667|0.577050727926436|0.5723108534986642|-0.07208246737718582|0.9443137645721436|-0.3210542500019073|0|0|0|-1|-1|3
2021-04-22 21:07:57.777 +0100|138648.548095125|0.06890869140625|1.2198486328125|-0.2958526611328125|138648.533123125|1.497801641910895|-0.1263945429402646|-1.2603091870263|-1.000555276870728|1.124031543731689|1.553028464317322|0.1074080765247345|0.1870824098587036|-0.06411659717559814|XArbitraryZVertical|-0.3960018781310428|-0.4377667435454491|0.5762305428488804|0.5652444330128803|-0.0385136753320694|0.9521848559379578|-0.303085595369339|0|0|0|-1|-1|3
2021-04-22 21:07:57.797 +0100|138648.568057125|0.1097259521484375|1.31500244140625|-0.2217864990234375|138648.553085125|1.604618122456842|-0.001697169109911931|-1.282564133019634|-0.9836225509643555|1.14297080039978|1.711881518363953|0.06736266613006592|0.2409290075302124|-0.02770724892616272|XArbitraryZVertical|-0.4153051274428872|-0.4305724150031082|0.5764787993808066|0.5565981706056981|-0.0004824345232918859|0.9587478637695312|-0.284258097410202|0|0|0|-1|-1|3
2021-04-22 21:07:57.817 +0100|138648.588019125|0.171844482421875|1.383834838867188|-0.1414642333984375|138648.573047125|1.734701160758793|0.1464161660947903|-1.297339745644421|-0.7354227304458618|1.171281576156616|1.762183547019958|0.05303847789764404|0.3294086456298828|0.02501571178436279|XArbitraryZVertical|-0.4341827709021688|-0.421781090466786|0.5775106743544116|0.5477842854603194|0.03940026462078094|0.9628431797027588|-0.2671720683574677|0|0|0|-1|-1|3
2021-04-22 21:07:57.837 +0100|138648.607981125|0.2159271240234375|1.382919311523438|-0.1048583984375|138648.593009125|1.869361143718571|0.3003696448003372|-1.301171837893107|-0.4675211310386658|1.267645359039307|1.654035687446594|0.07878199219703674|0.4060328006744385|0.09393727779388428|XArbitraryZVertical|-0.4515243527132413|-0.4109791226026909|0.5790526709590933|0.5402962971912105|0.07881177216768265|0.9638710021972656|-0.2544438540935516|0|0|0|-1|-1|3
2021-04-22 21:07:57.857 +0100|138648.627943125|0.24969482421875|1.342666625976562|-0.141571044921875|138648.612971125|1.985165079659075|0.4388614861759676|-1.296861254465663|-0.266675591468811|1.40246319770813|1.373067378997803|0.09203901886940002|0.4307036995887756|0.1448049545288086|XArbitraryZVertical|-0.4674443908392385|-0.3988137615292285|0.5796150523514489|0.5352475299346271|0.1149474456906319|0.9627138376235962|-0.24488665163517|0|0|0|-1|-1|3
2021-04-22 21:07:57.877 +0100|138648.647905125|0.23199462890625|1.282974243164062|-0.14190673828125|138648.632934125|2.069183146251832|0.5469616824433319|-1.289157947105552|-0.1549781858921051|1.307849526405334|1.031056046485901|0.1026585102081299|0.3947302103042603|0.1115289926528931|XArbitraryZVertical|-0.4811517485775738|-0.3870421372841629|0.578722473761793|0.5327024253724127|0.144550085067749|0.9606013894081116|-0.2373827546834946|0|0|0|-1|-1|3
2021-04-22 21:07:57.897 +0100|138648.667867125|0.2472381591796875|1.266433715820312|-0.0955810546875|138648.652896125|2.127795737448187|0.6276956789205066|-1.282435969142203|-0.2281598448753357|1.157333374023438|0.7112001180648804|0.07032465934753418|0.3383009433746338|0.07984411716461182|XArbitraryZVertical|-0.4924980080330612|-0.3773052220982153|0.5767265210978539|0.5314819367710707|0.1670114994049072|0.9587114453315735|-0.2301729619503021|0|0|0|-1|-1|3
2021-04-22 21:07:57.917 +0100|138648.687829125|0.2608642578125|1.228424072265625|-0.093109130859375|138648.672858125|2.172166472191265|0.6923210243980592|-1.281289769755362|-0.4332642555236816|1.058119535446167|0.3739223480224609|0.05512247979640961|0.3102919459342957|0.1119958311319351|XArbitraryZVertical|-0.5026643617055914|-0.3707455110597165|0.5727886619527089|0.5308385179123246|0.1822288930416107|0.9583848714828491|-0.2197526097297668|0|0|0|-1|-1|3
2021-04-22 21:07:57.937 +0100|138648.707792125|0.2452545166015625|1.058837890625|-0.0497283935546875|138648.692820125|2.202248667616255|0.7417130850377436|-1.283166370340516|-0.2190111577510834|1.01463508605957|0.1862064898014069|0.07383221387863159|0.2895705699920654|0.1157478094100952|XArbitraryZVertical|-0.5113552872769461|-0.3659714383280057|0.5676677933042502|0.5313512138534425|0.1916411221027374|0.9589189291000366|-0.2091613560914993|0|0|0|-1|-1|3
2021-04-22 21:07:57.957 +0100|138648.727754125|0.3121185302734375|0.8956298828125|0.0081329345703125|138648.712782125|2.216339903977394|0.7759509830694518|-1.282676653299804|-0.09029662609100342|1.090491533279419|0.1215002909302711|0.04664966464042664|0.1436525583267212|0.1346690356731415|XArbitraryZVertical|-0.518439349374233|-0.3602965597201492|0.5627592099659675|0.5335816531019415|0.1990177631378174|0.9587798714637756|-0.202814057469368|0|0|0|-1|-1|3
2021-04-22 21:07:57.977 +0100|138648.747716125|0.4643096923828125|0.9286956787109375|-0.0605621337890625|138648.732744125|2.227117814351392|0.8094320507161242|-1.283869221330689|-0.2513358294963837|1.211782097816467|0.04946604371070862|0.0764751136302948|-0.02637869119644165|0.1919845342636108|XArbitraryZVertical|-0.5259540552898184|-0.3546093223024578|0.5565237820051011|0.5365687391580121|0.2048673331737518|0.9591180682182312|-0.1952491253614426|0|0|0|-1|-1|3
2021-04-22 21:07:57.997 +0100|138648.767678125|0.5594635009765625|1.149627685546875|-0.243560791015625|138648.752706125|2.2586005699341|0.8641616886640545|-1.288907438938785|-0.7189093232154846|1.223719000816345|0.1458444148302078|0.2192236483097076|-0.06760257482528687|0.163994312286377|XArbitraryZVertical|-0.5357788923416887|-0.350193973603333|0.5488519047942142|0.5376494563664863|0.2115633338689804|0.9605317115783691|-0.1806103140115738|0|0|0|-1|-1|3
2021-04-22 21:07:58.017 +0100|138648.787640125|0.5911407470703125|1.458038330078125|-0.420013427734375|138648.772668125|2.314591971603219|0.9402595777832823|-1.298937590133891|-1.053788304328918|0.9723695516586304|-0.06391999125480652|0.3194890022277832|0.1143175363540649|-0.04917299747467041|XArbitraryZVertical|-0.5470077772993445|-0.3487476189678813|0.5400824190449415|0.5361610540568057|0.2168887853622437|0.9632734656333923|-0.1583151817321777|0|0|0|-1|-1|3
2021-04-22 21:07:58.037 +0100|138648.807602125|0.418792724609375|1.587051391601562|-0.4863128662109375|138648.792630125|2.358355026074987|0.9978373733467667|-1.312589886296185|-0.4584038555622101|0.548028826713562|-0.3911124169826508|0.3828753232955933|0.4166952967643738|-0.2431467473506927|XArbitraryZVertical|-0.5548864610648513|-0.350551828720854|0.5315774750142905|0.5353875454982737|0.2145681232213974|0.9668495059013367|-0.1384288668632507|0|0|0|-1|-1|3
2021-04-22 21:07:58.057 +0100|138648.827564125|0.23712158203125|1.744461059570312|-0.7012939453125|138648.812593125|2.323833946298491|0.970973363005133|-1.319306423958861|0.7536945343017578|0.1311749219894409|-0.6547091603279114|0.2708961367607117|0.6216062307357788|-0.3401010632514954|XArbitraryZVertical|-0.5538439136955059|-0.3507422189413957|0.5275843561211292|0.5402700185898819|0.2054077535867691|0.968542754650116|-0.1404736340045929|0|0|0|-1|-1|3
2021-04-22 21:07:58.077 +0100|138648.847526125|-0.03009033203125|1.519775390625|-0.48968505859375|138648.832555125|2.232176063440102|0.8825537558097724|-1.327893285993512|0.4903733432292938|0.01431334018707275|-1.557671785354614|0.08029820024967194|0.6439496874809265|-0.4417983889579773|XArbitraryZVertical|-0.5469089350469242|-0.3528501865285453|0.5241713309122452|0.5492101884682685|0.1857701390981674|0.9706438183784485|-0.1527747213840485|0|0|0|-1|-1|3
2021-04-22 21:07:58.097 +0100|138648.867488125|-0.193450927734375|0.677764892578125|0.0418243408203125|138648.852517125|2.07205090559235|0.7294237594083048|-1.330916034699905|2.296443700790405|0.2294877022504807|-1.120257496833801|-0.1362875550985336|0.8274465203285217|-0.2582433223724365|XArbitraryZVertical|-0.5353716779285896|-0.3532842495581991|0.5200581838050996|0.5640097499441699|0.1583373248577118|0.9713664054870605|-0.1771348118782043|0|0|0|-1|-1|3
2021-04-22 21:07:58.117 +0100|138648.887451125|-0.18695068359375|0.3765716552734375|0.0733642578125|138648.872479125|1.910628856409504|0.5841512580151256|-1.315135089111698|0.88245689868927|1.091750383377075|-0.9524248242378235|-0.2907388806343079|-0.08901721239089966|0.09686280786991119|XArbitraryZVertical|-0.5240078953488886|-0.346323226800073|0.5172646685375468|0.5813030272588405|0.1394640654325485|0.9674962759017944|-0.2109518945217133|0|0|0|-1|-1|3
2021-04-22 21:07:58.136 +0100|138648.907413125|-0.108795166015625|0.824432373046875|-0.0178680419921875|138648.892441125|1.864736280056338|0.5717144365264766|-1.326780058238387|-1.236220598220825|2.082459926605225|-0.5759501457214355|-0.3407616019248962|-0.6217728853225708|0.2653623521327972|XArbitraryZVertical|-0.5304930238310464|-0.3420324818009804|0.5035637487869999|0.5899277843448939|0.1307251900434494|0.9703754782676697|-0.2031818628311157|0|0|0|-1|-1|3
2021-04-22 21:07:58.156 +0100|138648.927375125|0.0435791015625|1.217941284179688|-0.2572174072265625|138648.912403125|1.927907404981512|0.6828287999227222|-1.359847198545909|-1.978253960609436|2.753919839859009|-0.2121735513210297|-0.263148307800293|-0.261554479598999|0.247235432267189|XArbitraryZVertical|-0.5517332090457124|-0.3381860181236965|0.481859171709055|0.5907896599350443|0.132121816277504|0.9778326153755188|-0.1624413728713989|0|0|0|-1|-1|3
2021-04-22 21:07:58.177 +0100|138648.947337125|0.204620361328125|1.468734741210938|-0.4868316650390625|138648.932365125|2.064947016636217|0.8742457527943135|-1.389231821334324|-1.886677384376526|2.886175394058228|0.01343560498207808|-0.1345545500516891|0.145664393901825|-0.07680772989988327|XArbitraryZVertical|-0.5765632638398072|-0.3311350990546682|0.4586887235633168|0.5895159880109206|0.1385072618722916|0.9835624098777771|-0.1158486977219582|0|0|0|-1|-1|3
2021-04-22 21:07:58.197 +0100|138648.967299125|0.1803741455078125|1.7640380859375|-0.6160736083984375|138648.952327125|2.217186495142603|1.078837157763954|-1.405632492419011|-1.158488154411316|2.565497398376465|0.1077315658330917|0.03104783594608307|0.4322489500045776|-0.3769571185112|XArbitraryZVertical|-0.5980980643869482|-0.3216327252946518|0.4379419955448753|0.5890994460548058|0.1449172049760818|0.9863914251327515|-0.07766219228506088|0|0|0|-1|-1|3
2021-04-22 21:07:58.217 +0100|138648.987261125|-0.02362060546875|2.003814697265625|-0.7216796875|138648.972289125|2.301613514998152|1.210400990312861|-1.410603773770553|-0.2196907699108124|2.299421072006226|-0.05383646488189697|0.05975376069545746|0.6862654089927673|-0.5371633172035217|XArbitraryZVertical|-0.6129248197608398|-0.310158350282854|0.4213758552072681|0.5920873851663674|0.1492617428302765|0.9871965646743774|-0.05624992772936821|0|0|0|-1|-1|3
2021-04-22 21:07:58.237 +0100|138649.007223125|-0.297607421875|2.0821533203125|-0.7530670166015625|138648.992252125|2.240918625571421|1.196504940744552|-1.40879686733839|1.236915946006775|2.401541233062744|-0.0433710403740406|-0.113001361489296|0.9852309226989746|-0.6483948230743408|XArbitraryZVertical|-0.6192864204364741|-0.2949556608529364|0.4081330845957188|0.6024227303536355|0.1501265615224838|0.9869067668914795|-0.05897097662091255|0|0|0|-1|-1|3
2021-04-22 21:07:58.256 +0100|138649.027185125|-0.6359710693359375|2.116363525390625|-0.7066802978515625|138649.012214125|2.041441753757435|1.053425157095665|-1.392446119167029|2.452746391296387|3.107887744903564|0.05020622536540031|-0.3667579293251038|1.09383487701416|-0.6648632287979126|XArbitraryZVertical|-0.6186197934814164|-0.2709928016831244|0.3969044928799157|0.6215620664016719|0.154188260436058|0.9841377139091492|-0.08774490654468536|0|0|0|-1|-1|3
2021-04-22 21:07:58.276 +0100|138649.047147125|-0.7032012939453125|2.425033569335938|-0.93035888671875|138649.032176125|1.798536671787184|0.8930158963944628|-1.357731512180175|3.378110885620117|4.876677989959717|0.05032136291265488|-0.7216636538505554|1.0956871509552|-0.5758819580078125|XArbitraryZVertical|-0.6154796434200486|-0.2342775145792856|0.3808620869816245|0.6490325014684979|0.16471828520298|0.9773874282836914|-0.1325977146625519|0|0|0|-1|-1|3
2021-04-22 21:07:58.296 +0100|138649.067110125|-0.022552490234375|2.505081176757812|-1.142837524414062|138649.052138125|1.540631793529109|0.7605359680890924|-1.306022600159661|4.632595539093018|6.868964195251465|-0.3810428977012634|-0.9485899806022644|1.414395689964294|-0.7167230844497681|XArbitraryZVertical|-0.6101959482157239|-0.1812939555664399|0.3517308617716829|0.6863519687934018|0.1803865730762482|0.9651517271995544|-0.1895868182182312|0|0|0|-1|-1|3
2021-04-22 21:07:58.316 +0100|138649.087072125|0.9093780517578125|1.9444580078125|-1.329757690429688|138649.072100125|1.281232593484985|0.6626726065966171|-1.232144510904021|6.090744972229004|7.889751434326172|-0.5417131781578064|-0.4291803240776062|1.585651397705078|-0.8194558620452881|XArbitraryZVertical|-0.5967546251322806|-0.113721077855673|0.3105710502147415|0.7310931702113558|0.2043880075216293|0.9432033896446228|-0.2619028687477112|0|0|0|-1|-1|3
2021-04-22 21:07:58.336 +0100|138649.107034125|2.191085815429688|0.694305419921875|-2.23663330078125|138649.092062125|1.064454940907984|0.6180876389832902|-1.125182180045232|7.235463619232178|7.541378021240234|0.524347186088562|0.4185118079185486|1.250410079956055|-0.8964247703552246|XArbitraryZVertical|-0.5683815768368168|-0.03615736863532086|0.2691206814255677|0.776665514411236|0.2497621178627014|0.902346134185791|-0.3512700498104095|0|0|0|-1|-1|3
2021-04-22 21:07:58.356 +0100|138649.126996125|4.947357177734375|-1.6827392578125|-4.750274658203125|138649.112024125|0.9479135063832769|0.6431138123089102|-0.9922423510441039|6.467628479003906|4.497013568878174|3.037093162536621|1.471885681152344|0.2243462204933167|-1.433407545089722|XArbitraryZVertical|-0.5286919259319617|0.04117908266354749|0.2469512504115902|0.8110514279392587|0.3279189765453339|0.8372542262077332|-0.4375782608985901|0|0|0|-1|-1|3
2021-04-22 21:07:58.376 +0100|138649.146958125|8.972824096679688|-1.689041137695312|-3.923568725585938|138649.131986125|0.9608873072606949|0.6742207447060961|-0.8222706592388339|6.676485538482666|-2.951168775558472|8.437742233276367|3.620681762695312|-1.763194561004639|-3.605175971984863|XArbitraryZVertical|-0.474587837252778|0.09456226345470159|0.2825890420685071|0.8282318810259588|0.4248656034469604|0.7326930165290833|-0.5316487550735474|0|0|0|-1|-1|3
2021-04-22 21:07:58.396 +0100|138649.166920125|8.070999145507812|-0.9873504638671875|2.300857543945312|138649.151948125|1.051272467584306|0.5501001754702419|-0.6122108256652452|4.837902069091797|-13.90242385864258|9.214752197265625|7.812682628631592|-2.621811628341675|-4.431717395782471|XArbitraryZVertical|-0.3808104633493987|0.07848871079715776|0.3896590614924166|0.83485866783187|0.427826464176178|0.5746781826019287|-0.6976458430290222|0|0|0|-1|-1|3
2021-04-22 21:07:58.416 +0100|138649.186882125|6.747406005859375|3.654190063476562|7.658737182617188|138649.171911125|1.229446522547457|0.3466115117981647|-0.5536450229988167|-5.289450168609619|-15.11773586273193|5.744087696075439|8.139015197753906|-1.728595018386841|1.522043108940125|XArbitraryZVertical|-0.3155889100924096|-0.01975172958162201|0.5079647659278493|0.8012399037508919|0.2889643311500549|0.5257912278175354|-0.8000270128250122|0|0|0|-1|-1|3
2021-04-22 21:07:58.436 +0100|138649.206844125|2.714523315429688|0.259918212890625|2.210861206054688|138649.191873125|1.400586484917197|0.08762090412838693|-0.7034573472912141|-13.22462463378906|-20.76971626281738|5.424713134765625|7.672935485839844|1.384270429611206|7.543422698974609|XArbitraryZVertical|-0.2896827675450441|-0.1903719535122976|0.5928700641049233|0.7268752915368959|0.06673514097929001|0.6468581557273865|-0.7596848011016846|0|0|0|-1|-1|3
2021-04-22 21:07:58.456 +0100|138649.226806125|3.098190307617188|4.171890258789062|2.291152954101562|138649.211835125|1.437971279578073|-0.3021729008866439|-0.9826357506977701|-14.43877506256104|-19.22448539733887|-2.531553506851196|3.535584449768066|1.013847827911377|3.735641717910767|XArbitraryZVertical|-0.2635596348177702|-0.4070498411405649|0.6275322989496073|0.6091388227524114|-0.1651153564453125|0.8319626450538635|-0.5296934843063354|0|0|0|-1|-1|3
2021-04-22 21:07:58.476 +0100|138649.246768125|4.665664672851562|1.927490234375|4.977294921875|138649.231797125|1.068122120500124|-0.9582248917629249|-1.118811514667422|-2.830252885818481|-13.02164459228516|-5.13252592086792|3.399087429046631|2.432770252227783|2.237967967987061|XArbitraryZVertical|-0.2064607775510079|-0.5760325908054595|0.5934363956402025|0.5228707313076854|-0.3573384881019592|0.8995820283889771|-0.2511208057403564|0|0|0|-1|-1|3
2021-04-22 21:07:58.496 +0100|138649.266731125|1.3594970703125|-0.352752685546875|6.240737915039062|138649.251759125|1.153628671422052|-1.110278311374426|-1.023373098046795|8.306088447570801|-9.571125984191895|-0.1199870780110359|4.698429107666016|2.253584384918213|3.999484777450562|XArbitraryZVertical|-0.09816918714452338|-0.6121331320951932|0.6204182900353681|0.4803510973618795|-0.4662657380104065|0.8538685441017151|-0.2313116788864136|0|0|0|-1|-1|3
2021-04-22 21:07:58.516 +0100|138649.286693125|0.115020751953125|-0.5985870361328125|3.758544921875|138649.271721125|1.33972845092536|-1.081023891070449|-0.9691609112832706|2.804049968719482|-3.027947664260864|-0.7781081199645996|2.666904449462891|-0.9914485216140747|6.815130233764648|XArbitraryZVertical|-0.0304090845037798|-0.6049354891567694|0.6589873929569741|0.445941816019731|-0.4994536638259888|0.8244110941886902|-0.2662566900253296|0|0|0|-1|-1|3
2021-04-22 21:07:58.536 +0100|138649.306655125|-0.183837890625|-0.0044708251953125|2.460052490234375|138649.291683125|1.40491686908275|-1.044407503289877|-0.9294295449283277|3.116173028945923|0.8585762977600098|-0.3993325233459473|0.7329217195510864|-1.337166905403137|4.554266929626465|XArbitraryZVertical|-0.008386452514903346|-0.5912990647736598|0.6712188819908882|0.446945753958472|-0.5172989368438721|0.8012787699699402|-0.3005901575088501|0|0|0|-1|-1|3
2021-04-22 21:07:58.556 +0100|138649.326617125|-0.5741424560546875|0.44415283203125|1.839797973632812|138649.311645125|1.505014791601435|-0.9326093462706015|-0.8901020870407645|3.916154623031616|2.24699592590332|0.2911076843738556|0.3927804827690125|-1.015401601791382|3.06896448135376|XArbitraryZVertical|-0.003358447160276825|-0.5590431891995515|0.6923181393288813|0.456240196765586|-0.5054657459259033|0.7771360278129578|-0.3749188780784607|0|0|0|-1|-1|3
2021-04-22 21:07:58.576 +0100|138649.346579125|-0.854583740234375|0.2126922607421875|1.281585693359375|138649.331607125|1.600716213928094|-0.8069006696588237|-0.8423039946816026|3.742266416549683|2.999779462814331|6.422819569706917e-05|0.006813555955886841|-0.2880638837814331|2.403073072433472|XArbitraryZVertical|-0.004747841911035959|-0.5193419830453143|0.7140976739089675|0.4693889302896836|-0.4807659089565277|0.7461789846420288|-0.4605227112770081|0|0|0|-1|-1|3
2021-04-22 21:07:58.596 +0100|138649.366541125|-0.8649444580078125|0.2631683349609375|0.4150390625|138649.351570125|1.658021116826254|-0.7008002889988287|-0.7967335392397116|2.150808334350586|3.308017015457153|-0.2480555474758148|-0.3558891713619232|-0.4547916054725647|2.002957820892334|XArbitraryZVertical|-0.01288606871896912|-0.4823734572504321|0.7282049179896183|0.4866905233211357|-0.4507657885551453|0.7150765061378479|-0.5342996120452881|0|0|0|-1|-1|3
2021-04-22 21:07:58.616 +0100|138649.386503125|-0.6571197509765625|0.5179901123046875|-0.1981964111328125|138649.371532125|1.676249238011135|-0.6251775762155264|-0.7697166759790807|0.9174768328666687|2.902664422988892|-0.4233514964580536|-0.4625909030437469|-0.4877862334251404|1.203912019729614|XArbitraryZVertical|-0.0270523655318687|-0.4562082161182251|0.7328446837099192|0.504064563708169|-0.4202664196491241|0.6959317922592163|-0.5822844505310059|0|0|0|-1|-1|3
2021-04-22 21:07:58.636 +0100|138649.406465125|-0.372894287109375|0.738739013671875|-0.4190673828125|138649.391494125|1.673848350245545|-0.5759823140297788|-0.7534554783759858|0.4013702571392059|2.172750234603882|-0.6599188446998596|-0.3365585803985596|-0.2267041206359863|0.5192652940750122|XArbitraryZVertical|-0.04011661673230689|-0.438818756890044|0.7320543742493214|0.5195433088762735|-0.3972356021404266|0.6841630339622498|-0.6116575002670288|0|0|0|-1|-1|3
2021-04-22 21:07:58.656 +0100|138649.426427125|-0.2716064453125|0.809112548828125|-0.488372802734375|138649.411456125|1.658816787618178|-0.549802330009336|-0.7398723640162123|0.2265154272317886|1.474803686141968|-1.023823499679565|-0.04161113500595093|0.02353018522262573|0.2607088088989258|XArbitraryZVertical|-0.048334715044615|-0.4275600500882237|0.7280973658869123|0.5336015581345688|-0.3859086632728577|0.6741936802864075|-0.6297123432159424|0|0|0|-1|-1|3
2021-04-22 21:07:58.676 +0100|138649.446390125|-0.308685302734375|0.81048583984375|-0.5512237548828125|138649.431418125|1.632174653112423|-0.5436889154153426|-0.7251221362112612|0.01374127343297005|0.9946874976158142|-1.430934429168701|0.1113373637199402|0.1353423595428467|0.1603679656982422|XArbitraryZVertical|-0.05116841297833676|-0.4208695496722541|0.7213429955474221|0.5476450210967404|-0.3871542811393738|0.663226842880249|-0.6405012607574463|0|0|0|-1|-1|3
2021-04-22 21:07:58.696 +0100|138649.466352125|-0.3556365966796875|0.763153076171875|-0.6142120361328125|138649.451380125|1.594671062989602|-0.5514774522185958|-0.7101445484241177|-0.2128296047449112|0.6957485675811768|-1.740283370018005|0.09835752844810486|0.1678050756454468|0.1212582588195801|XArbitraryZVertical|-0.05105613887011101|-0.417690661584019|0.7116488838051545|0.5625689614660073|-0.397291511297226|0.6519433856010437|-0.6458555459976196|0|0|0|-1|-1|3
2021-04-22 21:07:58.716 +0100|138649.486314125|-0.377044677734375|0.6857452392578125|-0.725921630859375|138649.471342125|1.548986577525669|-0.5698149066523448|-0.6985591945463283|-0.6745451092720032|0.4426569044589996|-1.802243828773499|0.07157799601554871|0.121198296546936|0.03625810146331787|XArbitraryZVertical|-0.05005271325144534|-0.4184559163083186|0.6993888494361968|0.5772736651512087|-0.4131145477294922|0.6431150436401367|-0.6447787284851074|0|0|0|-1|-1|3
2021-04-22 21:07:58.735 +0100|138649.506276375|-0.4737548828125|0.624908447265625|-0.7135772705078125|138649.491304125|1.49963349764814|-0.5947417874299461|-0.6933098300027115|-0.9544443488121033|0.2180143147706985|-1.63116192817688|0.05659946799278259|0.05792045593261719|-0.0695195198059082|XArbitraryZVertical|-0.04991623660151554|-0.4230528430184251|0.6856854563368815|0.5902289987416408|-0.4309424459934235|0.6390863656997681|-0.6370693445205688|0|0|0|-1|-1|3
2021-04-22 21:07:58.755 +0100|138649.526238375|-0.5600128173828125|0.59014892578125|-0.6802520751953125|138649.511266375|1.450068280717819|-0.6231137382356575|-0.6933545086346375|-1.23350715637207|0.162038192152977|-1.478341937065125|0.004352420568466187|0.009347796440124512|-0.1018148064613342|XArbitraryZVertical|-0.05087826298838957|-0.4302662855490577|0.6716381029579079|0.6009863566702697|-0.4488247632980347|0.6391207575798035|-0.6245646476745605|0|0|0|-1|-1|3
2021-04-22 21:07:58.775 +0100|138649.546200375|-0.617095947265625|0.6771392822265625|-0.679534912109375|138649.531229375|1.400694368175901|-0.6500396408796361|-0.6993512029184814|-1.507954835891724|0.3133871555328369|-1.233511447906494|-0.0753021240234375|-0.08004575967788696|-0.09338301420211792|XArbitraryZVertical|-0.05489134284458863|-0.4386234805950017|0.6574300259629318|0.6102313075530232|-0.4631491303443909|0.643721342086792|-0.6091927886009216|0|0|0|-1|-1|3
2021-04-22 21:07:58.795 +0100|138649.566162375|-0.5616302490234375|0.65234375|-0.6668701171875|138649.551191375|1.35383334173614|-0.6725851685938162|-0.7102123806608099|-1.535991907119751|0.4643937349319458|-0.8890508413314819|-0.1445462703704834|0.02291733026504517|-0.08570975065231323|XArbitraryZVertical|-0.06203859514320148|-0.4467715528892628|0.6438492000976073|0.6180652836413527|-0.4723809659481049|0.6519948244094849|-0.5930927991867065|0|0|0|-1|-1|3
2021-04-22 21:07:58.815 +0100|138649.586124375|-0.6463775634765625|0.6585235595703125|-0.6711273193359375|138649.571153375|1.312383841245354|-0.6901121718037349|-0.7261855057830966|-1.685806512832642|0.4844005703926086|-0.5366608500480652|-0.1023718416690826|-0.004826724529266357|-0.08291351795196533|XArbitraryZVertical|-0.07190656607751354|-0.4544456703041046|0.6318954783664835|0.6237121537847277|-0.4760116934776306|0.6640223264694214|-0.5766171813011169|0|0|0|-1|-1|3
2021-04-22 21:07:58.835 +0100|138649.606086375|-0.7401885986328125|0.599609375|-0.665618896484375|138649.591115375|1.274453267273086|-0.7060034123367905|-0.7477671772058125|-1.758597254753113|0.4640406966209412|-0.2424483597278595|-0.1308773756027222|-0.01720666885375977|-0.1075990796089172|XArbitraryZVertical|-0.08397488146526405|-0.4625759236644129|0.6212009774152178|0.6269618782852528|-0.4757043719291687|0.6800033450126648|-0.5579434633255005|0|0|0|-1|-1|3
2021-04-22 21:07:58.855 +0100|138649.626049375|-0.6568450927734375|0.5074310302734375|-0.6100006103515625|138649.611077375|1.241829107467366|-0.7201187912652558|-0.7722906853869459|-1.660126209259033|0.3770562708377838|0.08965376764535904|-0.2648369371891022|-0.07485252618789673|-0.1268864274024963|XArbitraryZVertical|-0.0967951422086382|-0.4705254389333861|0.6123090558327304|0.6279444452729427|-0.4723905920982361|0.6977779269218445|-0.5384730100631714|0|0|0|-1|-1|3
