loggingTime(txt)|accelerometerTimestamp_sinceReboot(s)|accelerometerAccelerationX(G)|accelerometerAccelerationY(G)|accelerometerAccelerationZ(G)|motionTimestamp_sinceReboot(s)|motionYaw(rad)|motionRoll(rad)|motionPitch(rad)|motionRotationRateX(rad/s)|motionRotationRateY(rad/s)|motionRotationRateZ(rad/s)|motionUserAccelerationX(G)|motionUserAccelerationY(G)|motionUserAccelerationZ(G)|motionAttitudeReferenceFrame(txt)|motionQuaternionX(R)|motionQuaternionY(R)|motionQuaternionZ(R)|motionQuaternionW(R)|motionGravityX(G)|motionGravityY(G)|motionGravityZ(G)|motionMagneticFieldX(µT)|motionMagneticFieldY(µT)|motionMagneticFieldZ(µT)|motionHeading(°)|motionMagneticFieldCalibrationAccuracy(Z)|label
2021-04-08 19:36:24.586 +0100|17941.67788475|0.107696533203125|0.0798797607421875|-0.99310302734375|17941.65792475|0.1020546503133658|0.1260676806176363|0.190396681817363|-0.3069223165512085|0.185496523976326|0.2703947126865387|-0.03949319571256638|-0.1708580404520035|-0.004119813442230225|XArbitraryZVertical|0.09154397481716334|0.06746390466810839|0.05665328949364883|0.9918966237345859|0.123461902141571|-0.1892484277486801|-0.9741366505622864|0|0|0|-1|-1|3
2021-04-08 19:36:24.588 +0100|17941.69784475|0.36163330078125|-0.1865692138671875|-1.008377075195312|17941.67788475|0.1056641783937383|0.140906611072375|0.1856171386711503|-0.04574709758162498|0.8792311549186707|0.2242511659860611|-0.2232491225004196|0.2822561264038086|0.005445539951324463|XArbitraryZVertical|0.08861510479203356|0.07487609727712162|0.05896459294571826|0.9914959173715464|0.1380283832550049|-0.1845531016588211|-0.9730818867683411|0|0|0|-1|-1|3
2021-04-08 19:36:24.589 +0100|17941.71780475|0.1745147705078125|-0.268829345703125|-0.965240478515625|17941.71780475|0.112391714572439|0.142295734870539|0.1912366027572155|-0.009491255506873131|-0.3395016193389893|0.06878364086151123|0.09692917764186859|-0.1102036386728287|-0.007401049137115479|XArbitraryZVertical|0.09110628846729413|0.07600020147047472|0.06254450141702171|0.9909651300263193|0.1392306983470917|-0.1900731027126312|-0.9718472361564636|0|0|0|-1|-1|3
2021-04-08 19:36:24.589 +0100|17941.73776475|0.0756988525390625|-0.1377105712890625|-0.9549407958984375||||||||||||||||||||||||3
2021-04-08 19:36:24.606 +0100|17941.75772475|0.1731109619140625|-0.204254150390625|-0.9923858642578125|17941.73776475|0.1140269828925623|0.1384963209044666|0.1919093606053034|0.08667394518852234|0.007468413095921278|0.1240282580256462|-0.06096552312374115|0.03779567778110504|0.02703642845153809|XArbitraryZVertical|0.09149792535444649|0.07420889590594386|0.06320295605992009|0.9910230527289093|0.1355195790529251|-0.1907335519790649|-0.9722423553466797|0|0|0|-1|-1|3
2021-04-08 19:36:24.626 +0100|17941.77768375|0.1820068359375|-0.24658203125|-1.004150390625|17941.75772475|0.1163359897316085|0.1398522168202396|0.1953103711754099|0.1599555462598801|0.08509300649166107|0.1306165605783463|0.009813755750656128|0.01058506965637207|-0.01275187730789185|XArbitraryZVertical|0.09305476699044266|0.07507297054401466|0.0645175383798785|0.990728223763546|0.1367464959621429|-0.1940710097551346|-0.9714097380638123|0|0|0|-1|-1|3
2021-04-08 19:36:24.646 +0100|17941.79764375|0.1195068359375|-0.2364349365234375|-0.974639892578125|17941.77768375|0.1181320151058576|0.1394327867050237|0.1972280416541704|-0.02783712185919285|-0.07103821635246277|0.06109199300408363|0.05632422864437103|-0.05139213800430298|-0.04013407230377197|XArbitraryZVertical|0.09395165429031645|0.07499840056288756|0.06544851588006732|0.9905881948925829|0.1362870633602142|-0.1959518641233444|-0.9710966348648071|0|0|0|-1|-1|3
2021-04-08 19:36:24.665 +0100|17941.81760375|0.0937347412109375|-0.213836669921875|-0.96063232421875|17941.79764375|0.1192319142463693|0.1378013359667149|0.1953078807867447|-0.1478298306465149|-0.04768368229269981|0.03136365860700607|-0.0004923492670059204|-0.04550869762897491|-0.009299159049987793|XArbitraryZVertical|0.09301230786115655|0.07419168583295783|0.06585657924149348|0.9907105546893596|0.1347540318965912|-0.1940685659646988|-0.9716886281967163|0|0|0|-1|-1|3
2021-04-08 19:36:24.686 +0100|17941.83756375|0.1171722412109375|-0.197113037109375|-0.9644317626953125|17941.81760375|0.1202262044838335|0.137708189997671|0.1923294466810266|-0.1542062759399414|0.05145078524947166|0.02475795336067677|-0.04071800410747528|-0.02803036570549011|0.01120954751968384|XArbitraryZVertical|0.09150186035220449|0.07411283715337222|0.06625161098651082|0.9908307689005704|0.1347422748804092|-0.1911459118127823|-0.9722694158554077|0|0|0|-1|-1|3
2021-04-08 19:36:24.705 +0100|17941.85752375|0.1343536376953125|-0.1942138671875|-0.9973907470703125|17941.83756375|0.1209474762013279|0.1390694276732203|0.1899520691223769|-0.09637126326560974|0.0695403590798378|0.01589593105018139|-0.02536509931087494|-0.008910581469535828|0.01029765605926514|XArbitraryZVertical|0.09025105170505394|0.07475670729976791|0.06659596211976852|0.9908739752097369|0.1361282467842102|-0.1888118237257004|-0.9725323915481567|0|0|0|-1|-1|3
2021-04-08 19:36:24.725 +0100|17941.87748375|0.1190032958984375|-0.1959381103515625|-0.9989166259765625|17941.85752375|0.1211625253513962|0.1407558003162337|0.1889076302762696|-0.1090179309248924|0.01623106561601162|-0.01938491687178612|-0.003228813409805298|-0.01152326166629791|-0.0192338228225708|XArbitraryZVertical|0.08966888475115194|0.07557393548912102|0.06674506222565586|0.9908548391913276|0.1377956867218018|-0.1877860724925995|-0.9724961519241333|0|0|0|-1|-1|3
2021-04-08 19:36:24.745 +0100|17941.89744375|0.1151885986328125|-0.190948486328125|-0.9851837158203125|17941.87748375|0.1210253843310515|0.1412183302808671|0.187269563597777|-0.1519351005554199|0.02262888289988041|-0.01299395225942135|-0.01702739298343658|-0.009104102849960327|-0.02496063709259033|XArbitraryZVertical|0.08884641908943117|0.07575315818683022|0.06664506895590021|0.9909220152160102|0.1382885873317719|-0.1861768960952759|-0.9727355241775513|0|0|0|-1|-1|3
2021-04-08 19:36:24.765 +0100|17941.91740375|0.11932373046875|-0.1703033447265625|-0.9645233154296875|17941.89744375|0.1212704173215028|0.1411646401238578|0.184730013225807|-0.1648003906011581|0.04543454572558403|-0.01459806226193905|-0.02511313557624817|-0.00944836437702179|-0.01786589622497559|XArbitraryZVertical|0.08757960578159371|0.07566932214731575|0.06668221948876041|0.9910386601672887|0.1383024454116821|-0.1836811453104019|-0.973207950592041|0|0|0|-1|-1|3
2021-04-08 19:36:24.785 +0100|17941.93736375|0.134765625|-0.1714935302734375|-0.95025634765625|17941.91740375|0.1216948833618463|0.1413945047468409|0.1825519068942482|-0.07240097969770432|0.05356336385011673|0.0004221659619361162|-0.02281416952610016|0.008399173617362976|0.01089268922805786|XArbitraryZVertical|0.08647567402391194|0.07574306910473499|0.06683220835881094|0.9911198382978452|0.1385821998119354|-0.1815396696329117|-0.9735698699951172|0|0|0|-1|-1|3
2021-04-08 19:36:24.805 +0100|17941.9573225|0.1528778076171875|-0.21246337890625|-0.9468231201171875|17941.93736375|0.1220656051061171|0.1420780527447589|0.1827207781260194|0.05409917235374451|0.03624392300844193|0.02622837387025356|-0.00629386305809021|0.01408891379833221|0.02088391780853271|XArbitraryZVertical|0.08652247160386467|0.07610239675194325|0.06705095636714775|0.9910734617842248|0.1392433047294617|-0.1817057281732559|-0.9734445810317993|0|0|0|-1|-1|3
2021-04-08 19:36:24.826 +0100|17941.9772825|0.1451568603515625|-0.26458740234375|-0.9399261474609375|17941.9573225|0.122838610927832|0.1419093108294943|0.1841946041715974|0.04294895008206367|-0.01907893642783165|0.06298772245645523|0.008816257119178772|-0.01342318952083588|0.02651584148406982|XArbitraryZVertical|0.08722962127787715|0.07609236723793213|0.06747449802032583|0.9909835105343665|0.139041006565094|-0.183154821395874|-0.9732018709182739|0|0|0|-1|-1|3
2021-04-08 19:36:24.845 +0100|17941.9972425|0.1539459228515625|-0.2640228271484375|-0.9061126708984375|17941.9772825|0.1244596623588151|0.1405238854857181|0.1843109175818647|-0.08665977418422699|-0.02280528470873833|0.08443184942007065|0.0120902955532074|-0.07500012218952179|0.02647280693054199|XArbitraryZVertical|0.08727287606185606|0.07547981890463049|0.06822102404656352|0.9909753897503014|0.1376895904541016|-0.1832691729068756|-0.9733724594116211|0|0|0|-1|-1|3
2021-04-08 19:36:24.865 +0100|17942.0172025|0.21746826171875|-0.2763671875|-0.87908935546875|17941.9972425|0.1273225864383441|0.1398807212595967|0.1806928078693831|-0.3076540529727936|0.05385780334472656|0.153777003288269|0.008245542645454407|-0.07994669675827026|0.06332898139953613|XArbitraryZVertical|0.08539291349659682|0.07518318303838038|0.06949628191430354|0.9910731157907967|0.1371550858020782|-0.1797111481428146|-0.9741110801696777|0|0|0|-1|-1|3
2021-04-08 19:36:24.885 +0100|17942.0371625|0.25701904296875|-0.3816375732421875|-0.803924560546875|17942.0172025|0.1320710570650971|0.1402567745507552|0.1725393231765502|-0.6088547706604004|0.09168928861618042|0.2609269917011261|0.05279919505119324|-0.1029727011919022|0.07609415054321289|XArbitraryZVertical|0.08115695658787367|0.07532986382697401|0.07160488827814392|0.9912677419107002|0.1377216577529907|-0.171684518456459|-0.975477933883667|0|0|0|-1|-1|3
2021-04-08 19:36:24.905 +0100|17942.0571225|0.2536163330078125|-0.4109039306640625|-0.6887359619140625|17942.0371625|0.1432412966777169|0.1371524699028316|0.1566678170976421|-1.153071522712708|-0.2173996418714523|0.399082213640213|0.1461707055568695|-0.1936874836683273|0.1595223546028137|XArbitraryZVertical|0.0729813441223521|0.07372386970851884|0.07652070573553935|0.9916568610744876|0.1350483894348145|-0.1560277044773102|-0.9784770011901855|0|0|0|-1|-1|3
2021-04-08 19:36:24.925 +0100|17942.0770825|0.2905120849609375|-0.353851318359375|-0.630584716796875|17942.0571225|0.1551534857138591|0.1328730275224919|0.1261729516369527|-2.069778680801392|-0.09193695336580276|0.4684811532497406|0.1118870228528976|-0.2699582576751709|0.2894430756568909|XArbitraryZVertical|0.05758161873977058|0.07093142473611895|0.08134694451098673|0.992489794390603|0.1314292550086975|-0.1258384436368942|-0.9833061695098877|0|0|0|-1|-1|3
2021-04-08 19:36:24.945 +0100|17942.0970425|0.3523712158203125|-0.3489227294921875|-0.5765228271484375|17942.0770825|0.1728296160649463|0.1283097446476932|0.08073063241569131|-2.731111526489258|-0.150164783000946|0.60640949010849|0.157370537519455|-0.3016802072525024|0.3450556397438049|XArbitraryZVertical|0.03459233728682169|0.06729532448358606|0.08863707865417206|0.9931859432406098|0.1275412142276764|-0.08064296841621399|-0.9885494112968445|0|0|0|-1|-1|3
2021-04-08 19:36:24.965 +0100|17942.1170025|0.3545379638671875|-0.187164306640625|-0.4538726806640625|17942.0970425|0.1951382454917164|0.122816652265454|0.02014192863256909|-3.601339340209961|-0.3181703984737396|0.8750521540641785|0.2209611982107162|-0.3256378173828125|0.379396915435791|XArbitraryZVertical|0.004026012261900799|0.0620539483107207|0.09784094076126443|0.9932574539777914|0.1224832758307457|-0.02014056593179703|-0.9922661781311035|0|0|0|-1|-1|3
2021-04-08 19:36:24.985 +0100|17942.1369625|0.3875885009765625|0.2191619873046875|-0.4516754150390625|17942.1170025|0.2232572885949016|0.1139554557486776|-0.05822464920620593|-4.59572696685791|-0.5319478511810303|0.9160068035125732|0.2461483031511307|-0.3282865285873413|0.4783112406730652|XArbitraryZVertical|-0.03522112072978376|0.05333117810618664|0.1095217431186738|0.9919276065016244|0.1135162934660912|0.05819175764918327|-0.9918305277824402|0|0|0|-1|-1|3
2021-04-08 19:36:25.005 +0100|17942.1569225|0.4177398681640625|0.3920135498046875|-0.503662109375|17942.1369625|0.2524718870785114|0.1043890414985296|-0.1519848679376482|-5.007255077362061|-0.766076385974884|0.9941896796226501|0.2691479027271271|-0.04205486178398132|0.5522599220275879|XArbitraryZVertical|-0.08176203657080289|0.0420610260188343|0.1214373581516443|0.9883314027185381|0.102998398244381|0.1514004170894623|-0.9830916523933411|0|0|0|-1|-1|3
2021-04-08 19:36:25.029 +0100|17942.1768825|0.363067626953125|0.4870147705078125|-0.4434051513671875|17942.1569225|0.2851235850069567|0.09414458681230689|-0.2545144065706274|-5.420040607452393|-0.9986294507980347|1.160268664360046|0.3243666887283325|0.1290391981601715|0.4770805835723877|XArbitraryZVertical|-0.1321188094055158|0.02818902359935478|0.1348630341484946|0.9816119432442945|0.0909772515296936|0.2517754733562469|-0.9635000228881836|0|0|0|-1|-1|3
2021-04-08 19:36:25.045 +0100|17942.1968425|0.26141357421875|0.55194091796875|-0.344696044921875|17942.1768825|0.3203018110282927|0.08325498988739757|-0.364561142837984|-5.826155662536621|-1.142281174659729|1.117300271987915|0.3088417053222656|0.09405377507209778|0.4730063080787659|XArbitraryZVertical|-0.1853244427523363|0.01152028032672921|0.1492421799253089|0.9712100880117891|0.07769367098808289|0.3565393090248108|-0.9310442805290222|0|0|0|-1|-1|3
2021-04-08 19:36:25.065 +0100|17942.2168025|0.1251373291015625|0.5270843505859375|-0.3316497802734375|17942.1968425|0.3546839300710122|0.07228039314063742|-0.4824392656126892|-6.291118144989014|-1.357320427894592|1.174621105194092|0.2292987108230591|0.08774113655090332|0.5159538388252258|XArbitraryZVertical|-0.2411765777086233|-0.007579561547890864|0.1626981648881237|0.9567161510641405|0.06397499889135361|0.4639414250850677|-0.8835527896881104|0|0|0|-1|-1|3
2021-04-08 19:36:25.085 +0100|17942.2367625|0.112060546875|0.71197509765625|-0.2928924560546875|17942.2168025|0.3942926043565845|0.06491369114248625|-0.6121308024197376|-6.825417041778564|-1.388682723045349|1.287259697914124|0.09742279350757599|-0.04562002420425415|0.4688020348548889|XArbitraryZVertical|-0.3013779490254646|-0.0286432107218292|0.1770820533672635|0.9364790472305292|0.05308971926569939|0.5746126770973206|-0.8167017698287964|0|0|0|-1|-1|3
2021-04-08 19:36:25.105 +0100|17942.2567225|0.129547119140625|1.043045043945312|-0.24822998046875|17942.2367625|0.4375969490124499|0.06539539094938163|-0.7487911170240928|-7.000102043151855|-1.333239316940308|1.172196388244629|0.06182649731636047|-0.05148041248321533|0.4232386350631714|XArbitraryZVertical|-0.3634047259731858|-0.04963559579156624|0.1902424181820853|0.9106487850890808|0.04786879941821098|0.6807537078857422|-0.7309466004371643|0|0|0|-1|-1|3
2021-04-08 19:36:25.125 +0100|17942.2766825|0.064453125|1.117767333984375|-0.098052978515625|17942.2567225|0.4856648356886645|0.07089770286915881|-0.8848816125786833|-6.803349494934082|-1.614279270172119|1.222963571548462|0.08623574674129486|0.2079875469207764|0.3791664242744446|XArbitraryZVertical|-0.4230253276888202|-0.07179532235710993|0.2024340766778591|0.8802928806680713|0.04486766085028648|0.7738400101661682|-0.6317899823188782|0|0|0|-1|-1|3
2021-04-08 19:36:25.145 +0100|17942.2966425|0.0292816162109375|1.187332153320312|-0.0854644775390625|17942.2766825|0.5501861648447639|0.09038907238511822|-1.017559228656897|-6.956664085388184|-1.617431044578552|1.435944318771362|0.03408262133598328|0.2574337124824524|0.3690034151077271|XArbitraryZVertical|-0.4790355201659334|-0.09420904604201832|0.2158088649531084|0.8456218169104922|0.04742977395653725|0.8508280515670776|-0.5232992768287659|0|0|0|-1|-1|3
2021-04-08 19:36:25.165 +0100|17942.3166025|-0.032958984375|1.347366333007812|0.0656890869140625|17942.2966425|0.6460743987649479|0.1433346272065749|-1.154091656100587|-7.086574554443359|-1.67000675201416|1.365931391716003|-0.02339233830571175|0.2261825799942017|0.320552259683609|XArbitraryZVertical|-0.5350547251493037|-0.1158320459479975|0.2283192425749228|0.8050899045103266|0.05781615898013115|0.9144276976585388|-0.4005987644195557|0|0|0|-1|-1|3
2021-04-08 19:36:25.185 +0100|17942.3365625|-0.1162872314453125|1.4578857421875|0.2289581298828125|17942.3166025|0.8063054964645893|0.259122201528938|-1.287133050501902|-7.107109546661377|-1.795143127441406|1.396462559700012|-0.08436235785484314|0.3692484498023987|0.2753082513809204|XArbitraryZVertical|-0.5878671501257114|-0.1383715015191907|0.2398996727246877|0.7600748476514234|0.07171288132667542|0.9600366353988647|-0.2705310881137848|0|0|0|-1|-1|3
2021-04-08 19:36:25.205 +0100|17942.3565225|-0.0721588134765625|1.65032958984375|0.23260498046875|17942.3365625|1.187193108499439|0.5968882441323564|-1.407525438287941|-6.902724742889404|-1.604516506195068|1.196864128112793|-0.1825346648693085|0.4080138206481934|0.3121617436408997|XArbitraryZVertical|-0.6380756393953979|-0.1601210702348027|0.2498830572873424|0.7104783117209234|0.09136348962783813|0.9867008924484253|-0.1344414353370667|0|0|0|-1|-1|3
2021-04-08 19:36:25.225 +0100|17942.3764825|-0.060943603515625|1.709671020507812|0.1273956298828125|17942.3565225|2.084731733143177|1.458262849682722|-1.461449061008427|-5.546679019927979|-1.471112608909607|0.9214357137680054|-0.1990319639444351|0.6427218317985535|0.294070839881897|XArbitraryZVertical|-0.6793984886206476|-0.1796947518383895|0.2554261953571468|0.6639917984784907|0.1084406599402428|0.9940275549888611|-0.0122549794614315|0|0|0|-1|-1|3
2021-04-08 19:36:25.245 +0100|17942.3964425|-0.1797637939453125|1.454971313476562|0.145782470703125|17942.3764825|2.759780070698608|2.096016786157086|-1.420092208717553|-4.007401466369629|-1.722975134849548|1.217764735221863|-0.178803563117981|0.7327241897583008|0.06392860412597656|XArbitraryZVertical|-0.7068641811290254|-0.1948904736351561|0.2645850946761936|0.626382978195152|0.1298993080854416|0.9886656403541565|0.07527853548526764|0|0|0|-1|-1|3
2021-04-08 19:36:25.265 +0100|17942.4164025|-0.0793609619140625|1.594207763671875|0.1831207275390625|17942.3964425|3.002493916812919|2.303368638216848|-1.357834525882943|-3.377550840377808|-1.327853560447693|0.9358466863632202|-0.3016809225082397|0.5001908540725708|-0.07509720325469971|XArbitraryZVertical|-0.7269360081987435|-0.205523943172484|0.2760828960369004|0.5942241879063284|0.1571346074342728|0.9774091839790344|0.1413521021604538|0|0|0|-1|-1|3
2021-04-08 19:36:25.285 +0100|17942.4363625|0.0090789794921875|1.683609008789062|0.043365478515625|17942.4164025|-3.137216411746348|2.422066959508896|-1.305222408499802|-2.580023288726807|-0.8604738116264343|0.5598215460777283|-0.2960482239723206|0.5595787763595581|-0.0118100643157959|XArbitraryZVertical|-0.7431677613456886|-0.2154150569112947|0.2809491055559958|0.5677726727365405|0.1729710698127747|0.9649420380592346|0.1974039375782013|0|0|0|-1|-1|3
2021-04-08 19:36:25.305 +0100|17942.4563225|0.001800537109375|1.471755981445312|0.134918212890625|17942.4363625|-3.083803522132019|2.454382537248375|-1.268791130803836|-0.9015669822692871|-0.9851053357124329|0.5507353544235229|-0.1803873926401138|0.7572634816169739|-0.1585724353790283|XArbitraryZVertical|-0.7522648565165488|-0.2214936766545714|0.287345444091732|0.5499735818073054|0.1886884123086929|0.9547420144081116|0.2299237251281738|0|0|0|-1|-1|3
2021-04-08 19:36:25.325 +0100|17942.4762825|0.00469970703125|1.133193969726562|0.2087249755859375|17942.4563225|-3.091227966494506|2.427447678371613|-1.258609925985444|-0.01945434138178825|-0.9513317942619324|0.309639573097229|-0.1984368115663528|0.5869249701499939|-0.1050612926483154|XArbitraryZVertical|-0.7520236929106936|-0.2247361291577271|0.2963713551186796|0.5441674372466775|0.2011683881282806|0.9516643285751343|0.2320919185876846|0|0|0|-1|-1|3
2021-04-08 19:36:25.344 +0100|17942.4962425|0.029052734375|1.236343383789062|0.147674560546875|17942.4762825|-3.096326049973142|2.404369436405262|-1.253623598253537|-0.1211523041129112|-1.012659788131714|0.1501018404960632|-0.2024405896663666|0.2573069334030151|-0.002702087163925171|XArbitraryZVertical|-0.7505229564480789|-0.2283956420770833|0.3041330024046897|0.5404203005569784|0.2096583098173141|0.9501209855079651|0.2308985590934753|0|0|0|-1|-1|3
2021-04-08 19:36:25.364 +0100|17942.5162025|-0.00848388671875|1.325103759765625|0.1120147705078125|17942.4962425|-3.098259683836974|2.383491428411201|-1.252418231688261|0.1286562532186508|-0.8936887383460999|0.02230376191437244|-0.1975041925907135|0.2276999354362488|-0.05234396457672119|XArbitraryZVertical|-0.7478652139081959|-0.2331283893834452|0.3115514696973038|0.537851852675468|0.2152199447154999|0.9497443437576294|0.2273024469614029|0|0|0|-1|-1|3
2021-04-08 19:36:25.384 +0100|17942.5361625|-0.037933349609375|1.256942749023438|0.2218170166015625|17942.5162025|-3.127092870862735|2.337405308730599|-1.262205701859167|1.186115980148315|-0.8521713614463806|-0.05370001494884491|-0.2163460552692413|0.3774985074996948|-0.09851884841918945|XArbitraryZVertical|-0.7412904062197002|-0.2362884680365093|0.3198922145969358|0.540671291964125|0.2187572717666626|0.9527625441551208|0.2106874138116837|0|0|0|-1|-1|3
2021-04-08 19:36:25.404 +0100|17942.5561225|0.0758819580078125|1.1220703125|0.09881591796875|17942.5361625|3.0684530025253|2.240707171642021|-1.286910477059901|2.304244756698608|-0.5115523934364319|-0.2198769152164459|-0.2589375376701355|0.3075578212738037|0.02205847203731537|XArbitraryZVertical|-0.7292968571062356|-0.2346951377908054|0.3283228969971057|0.552492942797723|0.2195549011230469|0.9599742889404297|0.1739114224910736|0|0|0|-1|-1|3
2021-04-08 19:36:25.424 +0100|17942.5760825|0.1041717529296875|0.92529296875|0.0530242919921875|17942.5561225|2.912716983584932|2.080964953633237|-1.321996035149895|2.926715850830078|-0.4644906520843506|-0.3110595345497131|-0.1752740740776062|0.1953421831130981|0.01406300067901611|XArbitraryZVertical|-0.7119606348622038|-0.230727296026732|0.3361881041414411|0.571712081150637|0.2148862332105637|0.9692085385322571|0.120246060192585|0|0|0|-1|-1|3
2021-04-08 19:36:25.444 +0100|17942.5960415|0.1203155517578125|1.031906127929688|0.011077880859375|17942.5760825|2.700986102213698|1.862402552707306|-1.347449829288021|2.608923196792603|-0.7540817260742188|-0.1206102445721626|-0.1039130240678787|-0.01164549589157104|0.01592849940061569|XArbitraryZVertical|-0.6932511889347989|-0.2263662000231926|0.3457933400158661|0.5904135799331531|0.2121439278125763|0.9751616716384888|0.06367773562669754|0|0|0|-1|-1|3
2021-04-08 19:36:25.464 +0100|17942.6160015|0.1059722900390625|0.9935760498046875|0.0310211181640625|17942.5960415|2.465206386972804|1.616067210800171|-1.359196754146346|2.69977855682373|-0.8955902457237244|-0.146353080868721|-0.1015786379575729|0.02401280403137207|0.003557919524610043|XArbitraryZVertical|-0.6745317677097881|-0.2230678686065207|0.3562299592451651|0.60691678332386|0.2098095864057541|0.9776962399482727|0.009504759684205055|0|0|0|-1|-1|3
2021-04-08 19:36:25.485 +0100|17942.6359615|0.01397705078125|0.769683837890625|-0.0473785400390625|17942.6160015|2.188596201056188|1.322980451349909|-1.353342186551611|3.119475126266479|-1.37344491481781|0.1243195235729218|-0.08332955837249756|0.05196201801300049|0.07588506489992142|XArbitraryZVertical|-0.6522288637271068|-0.2194032704487979|0.3702457006844029|0.6240015416555764|0.2091539055109024|0.9764498472213745|-0.0529194287955761|0|0|0|-1|-1|3
2021-04-08 19:36:25.504 +0100|17942.6559215|0.037261962890625|0.544219970703125|-0.0091094970703125|17942.6359615|1.921803137803575|1.03605388411476|-1.324377383195072|3.376187801361084|-1.227620840072632|0.1741986572742462|-0.1768445372581482|-0.1608320474624634|0.07629489898681641|XArbitraryZVertical|-0.6260720735165738|-0.2141895613501606|0.3872611835830847|0.6420167921812319|0.2098802328109741|0.9697921872138977|-0.1243131831288338|0|0|0|-1|-1|3
2021-04-08 19:36:25.532 +0100|17942.6758815|0.1989288330078125|0.6638946533203125|0.1141815185546875|17942.6559215|1.745654972869466|0.8463619485991664|-1.285997521882359|2.612975597381592|-0.7492170333862305|0.1670216172933578|-0.1879458278417587|-0.3714459538459778|0.1555601507425308|XArbitraryZVertical|-0.6031455212096611|-0.2076443476816411|0.4008179689530487|0.6576050069443431|0.2104071974754333|0.9597182273864746|-0.1861986070871353|0|0|0|-1|-1|3
2021-04-08 19:36:25.548 +0100|17942.6958415|0.3184661865234375|1.032913208007812|-0.0154876708984375|17942.6758815|1.652873115922251|0.7463462213590316|-1.256740829264026|1.387070536613464|-0.4371200203895569|0.07895949482917786|-0.06353341042995453|-0.3451465964317322|0.2992347478866577|XArbitraryZVertical|-0.5877740600434161|-0.2027846023798048|0.4088825611351587|0.6679934139824183|0.2097435742616653|0.951088547706604|-0.2268001139163971|0|0|0|-1|-1|3
2021-04-08 19:36:25.564 +0100|17942.7158015|0.282379150390625|1.247024536132812|-0.045745849609375|17942.6958415|1.620462142423615|0.7032593257309692|-1.237151967430454|0.8951992392539978|-0.7897589802742004|0.3857679963111877|0.101748526096344|-0.024017333984375|0.2661623060703278|XArbitraryZVertical|-0.578553021747904|-0.200953054251139|0.416419944659726|0.671929266510728|0.2117895632982254|0.9448551535606384|-0.2497885376214981|0|0|0|-1|-1|3
2021-04-08 19:36:25.584 +0100|17942.7357615|0.3050384521484375|1.073684692382812|-0.038055419921875|17942.7158015|1.609639017147114|0.6774991055916634|-1.22053063819755|0.7105070352554321|-0.6917316913604736|0.4656481742858887|0.07481667399406433|0.3134347200393677|0.2085241377353668|XArbitraryZVertical|-0.5709748932282347|-0.2007665801294926|0.4250298603507047|0.67307512268959|0.2151007801294327|0.9392815828323364|-0.2673608958721161|0|0|0|-1|-1|3
2021-04-08 19:36:25.604 +0100|17942.7557215|0.4629669189453125|0.7025604248046875|-0.1558990478515625|17942.7357615|1.614952470540487|0.6718407659556742|-1.205447948670525|0.2181506007909775|-0.3494484424591064|0.6103740334510803|0.06186327338218689|0.2161932587623596|0.2433162927627563|XArbitraryZVertical|-0.566209180432689|-0.1989764077601392|0.4327730935183286|0.6726984535346616|0.2223779559135437|0.9339993596076965|-0.279631108045578|0|0|0|-1|-1|3
2021-04-08 19:36:25.625 +0100|17942.7756815|0.5359954833984375|0.7654571533203125|-0.11590576171875|17942.7557215|1.664491298991463|0.7122711314289757|-1.207297121640206|-1.602846622467041|-0.3218085467815399|0.5580909848213196|0.1880717575550079|-0.1355401277542114|0.1554447412490845|XArbitraryZVertical|-0.5704201642503125|-0.2001690696006364|0.4373247882219872|0.6658080063461798|0.2323694229125977|0.934658408164978|-0.2691063582897186|0|0|0|-1|-1|3
2021-04-08 19:36:25.644 +0100|17942.7956415|0.44500732421875|1.058929443359375|-0.1658477783203125|17942.7756815|1.761738601773204|0.7953197003993815|-1.237413247300211|-2.70353364944458|-0.5644375085830688|-0.1725971847772598|0.29172682762146|-0.2613161206245422|0.08304727077484131|XArbitraryZVertical|-0.5836661153798746|-0.2116360788068979|0.4363331055046771|0.6512738990897503|0.2336795926094055|0.9449406862258911|-0.2290880680084229|0|0|0|-1|-1|3
2021-04-08 19:36:25.663 +0100|17942.8156015|0.229400634765625|0.88177490234375|-0.12176513671875|17942.7956415|1.885907001046635|0.8953403770332183|-1.275667514027344|-2.567833662033081|-1.190302491188049|-0.03972374647855759|0.2621399462223053|0.07170844078063965|0.02869677543640137|XArbitraryZVertical|-0.5967447382518983|-0.2301391449217033|0.4347047362121977|0.6340060349961697|0.2269963175058365|0.9567646980285645|-0.1818633824586868|0|0|0|-1|-1|3
2021-04-08 19:36:25.684 +0100|17942.8355615|0.2110595703125|0.7303924560546875|-0.2157440185546875|17942.8156015|2.028958587055133|1.01024510767525|-1.303489866088981|-2.418534755706787|-0.9192121028900146|8.95368866622448e-05|0.05091583728790283|-0.01523643732070923|-0.008023381233215332|XArbitraryZVertical|-0.6070180291910274|-0.2476186394506379|0.4358241698620557|0.6166616467616931|0.2237124145030975|0.9644858241081238|-0.1404282450675964|0|0|0|-1|-1|3
2021-04-08 19:36:25.703 +0100|17942.8555215|0.258697509765625|0.8523406982421875|-0.2441864013671875|17942.8355615|2.203820747487993|1.166356367414743|-1.327197507737175|-2.566197633743286|-0.4477972984313965|-0.02168801985681057|-0.01981815695762634|-0.2409534454345703|-0.08224129676818848|XArbitraryZVertical|-0.6193341376579066|-0.2626197990302867|0.4333240877670154|0.5997386733296171|0.2217382937669754|0.9704762101173401|-0.09491213411092758|0|0|0|-1|-1|3
2021-04-08 19:36:25.723 +0100|17942.8754815|0.2747650146484375|1.025833129882812|-0.355712890625|17942.8555215|2.423908314549954|1.373337641746621|-1.344457533689031|-2.754800796508789|-0.3020472228527069|-0.08798608183860779|0.02666863799095154|-0.141639232635498|-0.2007557153701782|XArbitraryZVertical|-0.633573167998535|-0.2767177033549053|0.4279174307632309|0.5821505078111671|0.2200513035058975|0.9744945168495178|-0.04402470588684082|0|0|0|-1|-1|3
2021-04-08 19:36:25.745 +0100|17942.8954415|0.1748199462890625|1.070770263671875|-0.3160552978515625|17942.8754815|2.665064644483393|1.601298319022287|-1.351514460717792|-2.646610975265503|-0.4592241644859314|-0.1653112322092056|0.06463095545768738|-0.01507061719894409|-0.340922474861145|XArbitraryZVertical|-0.6470187374095658|-0.2910047777980422|0.4219175279429477|0.5645075177866568|0.2174283266067505|0.9760538935661316|0.006634054705500603|0|0|0|-1|-1|3
2021-04-08 19:36:25.764 +0100|17942.9154015|0.09820556640625|1.060134887695312|-0.3452606201171875|17942.8954415|2.882357899502166|1.80357703386604|-1.345894812980321|-2.14784049987793|-0.5115277171134949|0.04327615350484848|-0.007767200469970703|0.1008675098419189|-0.3470220565795898|XArbitraryZVertical|-0.6582411975675192|-0.3040412733330631|0.4177300363730483|0.5475209798193642|0.2169962823390961|0.9748160839080811|0.05144514143466949|0|0|0|-1|-1|3
2021-04-08 19:36:25.783 +0100|17942.9353615|0.1237030029296875|1.0906982421875|-0.313568115234375|17942.9154015|3.039494274317243|1.949262137141579|-1.333749366070395|-1.638912558555603|-0.1817458271980286|0.06622123718261719|-0.1058489680290222|0.09252417087554932|-0.4456099271774292|XArbitraryZVertical|-0.6670853807368498|-0.3136592179805537|0.4144908250375271|0.5336782728693892|0.2182153165340424|0.9720357060432434|0.08677002042531967|0|0|0|-1|-1|3
2021-04-08 19:36:25.804 +0100|17942.9553215|0.214874267578125|1.078659057617188|-0.3620758056640625|17942.9353615|-3.138643702152029|2.050940821824916|-1.321399231517327|-1.199842095375061|0.1043622568249702|0.02974250353872776|-0.1173183172941208|0.129571259021759|-0.4195947647094727|XArbitraryZVertical|-0.6745735173483152|-0.3193033557531371|0.4103172417288501|0.5240570849745941|0.2189119160175323|0.9690614342689514|0.1140081286430359|0|0|0|-1|-1|3
2021-04-08 19:36:25.824 +0100|17942.9752815|0.1641693115234375|0.8706207275390625|-0.3221588134765625|17942.9553215|-3.082085789793969|2.107789813114816|-1.312087611230069|-0.655717670917511|-0.0007970267906785011|0.09821699559688568|-0.02365674078464508|0.1092520952224731|-0.497372180223465|XArbitraryZVertical|-0.6796140517933069|-0.3218088747143667|0.4072034155230861|0.5184102570810633|0.2198242843151093|0.9667211174964905|0.1308724284172058|0|0|0|-1|-1|3
2021-04-08 19:36:25.843 +0100|17942.9952415|0.10162353515625|0.90087890625|-0.1555328369140625|17942.9752815|-3.043991702672661|2.14163605652541|-1.302377587496833|-0.8937966227531433|-0.194082647562027|0.1204909607768059|-0.03085102140903473|-0.037952721118927|-0.5123651027679443|XArbitraryZVertical|-0.6829997240141232|-0.3242873595328861|0.4067972192065454|0.5127037731070414|0.2231580764055252|0.9641914367675781|0.1433018296957016|0|0|0|-1|-1|3
2021-04-08 19:36:25.863 +0100|17943.0152015|0.1699371337890625|1.1654052734375|-0.1365509033203125|17942.9952415|-2.979937840100487|2.202443661891292|-1.289582745145597|-1.136417031288147|0.1249807700514793|-0.01210463419556618|-0.1194833219051361|-0.1243699789047241|-0.3596698045730591|XArbitraryZVertical|-0.6884322418894774|-0.3286275761573463|0.4037488899165754|0.5050266896928797|0.2239761203527451|0.9607193470001221|0.1638700664043427|0|0|0|-1|-1|3
2021-04-08 19:36:25.883 +0100|17943.0351615|0.2247772216796875|1.139083862304688|-0.097991943359375|17943.0152015|-2.925789800063307|2.259391401730605|-1.275456022187681|-0.8684892654418945|0.3541406095027924|0.2017170190811157|-0.07525227963924408|0.1759564280509949|-0.3187922537326813|XArbitraryZVertical|-0.6949469806828291|-0.330950018556018|0.3990059879509068|0.4983121646898668|0.2247431725263596|0.9567031264305115|0.1849584430456161|0|0|0|-1|-1|3
2021-04-08 19:36:25.903 +0100|17943.0551215|0.243927001953125|1.150192260742188|0.050628662109375|17943.0351615|-2.894271356035384|2.296341165005083|-1.26137970851118|-0.82291179895401|0.369479775428772|0.2343121618032455|-0.01380552351474762|0.2193023562431335|-0.3199547529220581|XArbitraryZVertical|-0.7011043174660607|-0.3308750954415716|0.3950591292166301|0.4928517069892991|0.2278106063604355|0.9525113701820374|0.202051192522049|0|0|0|-1|-1|3
2021-04-08 19:36:25.923 +0100|17943.0750815|0.227813720703125|1.1676025390625|0.0435638427734375|17943.0551215|-2.861302801634499|2.336577082584038|-1.249315918796752|-0.8538452982902527|0.4750243723392487|-0.06531636416912079|0.002367615699768066|0.1653058528900146|-0.1858420372009277|XArbitraryZVertical|-0.7070184020763417|-0.3310969997024948|0.3898023293646818|0.4884200508338398|0.2277660071849823|0.948768675327301|0.2190004885196686|0|0|0|-1|-1|3
2021-04-08 19:36:25.943 +0100|17943.0950415|0.118438720703125|0.993194580078125|0.0516510009765625|17943.0750815|-2.826140596944446|2.376903520257698|-1.239438329233547|-0.630040168762207|0.2437350302934647|-0.03402236104011536|0.02782341837882996|0.2311257719993591|-0.197508305311203|XArbitraryZVertical|-0.7118495046072609|-0.3326384705124701|0.3845880975172131|0.4844730692097965|0.2252289354801178|0.9456014037132263|0.2347561419010162|0|0|0|-1|-1|3
2021-04-08 19:36:25.963 +0100|17943.1150015|0.1472015380859375|0.971832275390625|0.0960845947265625|17943.0950415|-2.797974874947638|2.409925076518993|-1.230531166621409|-0.712658166885376|0.4841880202293396|-0.05425084382295609|-0.08619356155395508|0.1059175133705139|-0.1983170509338379|XArbitraryZVertical|-0.7160542891310854|-0.3338066549998177|0.3799740359896392|0.4811021255432902|0.2229738980531693|0.942666232585907|0.2483212500810623|0|0|0|-1|-1|3
2021-04-08 19:36:25.983 +0100|17943.1349615|0.2139434814453125|1.077590942382812|0.1562652587890625|17943.1150015|-2.761032953693963|2.458971299077114|-1.218376624478593|-1.134811162948608|0.8833522796630859|-0.0821586400270462|-0.09201061725616455|0.006741583347320557|-0.187105268239975|XArbitraryZVertical|-0.7226334379442937|-0.3342358192234231|0.3715358845687029|0.4775443643383436|0.2177436500787735|0.9385402798652649|0.2678253352642059|0|0|0|-1|-1|3
2021-04-08 19:36:26.003 +0100|17943.1549215|0.2293243408203125|1.221847534179688|0.2353515625|17943.1349615|-2.720148929363955|2.515510291150383|-1.202674652634032|-0.8621090650558472|0.9135400056838989|-0.1781231611967087|-0.005517825484275818|0.1034174561500549|-0.1731531918048859|XArbitraryZVertical|-0.7307117062317996|-0.3344615527377394|0.3608991111719155|0.4732312155631432|0.2108711153268814|0.9330049157142639|0.2916082441806793|0|0|0|-1|-1|3
2021-04-08 19:36:26.023 +0100|17943.1748815|0.1112060546875|1.175384521484375|0.2620086669921875|17943.1549215|-2.695972327887457|2.553959271719311|-1.197302286234394|-0.06472202390432358|0.6087124943733215|-0.1351749002933502|0.03099474310874939|0.2711663246154785|-0.06800830364227295|XArbitraryZVertical|-0.7350859808930958|-0.3338886616287444|0.3525170558927786|0.4731795192782702|0.2022821456193924|0.9310581684112549|0.3036660850048065|0|0|0|-1|-1|3
2021-04-08 19:36:26.043 +0100|17943.1948415|0.0914764404296875|0.9472503662109375|0.283172607421875|17943.1748815|-2.706566028385915|2.554204649536069|-1.205222801312704|0.8123183846473694|0.4964477121829987|-0.01639809273183346|-0.05704669654369354|0.2731428146362305|-0.04782646894454956|XArbitraryZVertical|-0.7345912718501189|-0.3303933785147431|0.3499576991963581|0.4782737706024765|0.1981147676706314|0.9339188933372498|0.2975682318210602|0|0|0|-1|-1|3
2021-04-08 19:36:26.063 +0100|17943.2148015|0.1171875|0.7957000732421875|0.243682861328125|17943.1948415|-2.740812159589371|2.534240293742983|-1.220704805084752|1.035322189331055|0.672325611114502|0.1408543735742569|-0.1144250333309174|0.05705744028091431|0.005983501672744751|XArbitraryZVertical|-0.7321880280544116|-0.3236102664512721|0.3490033899649988|0.4872103468950197|0.195739671587944|0.9393413066864014|0.2816458344459534|0|0|0|-1|-1|3
2021-04-08 19:36:26.083 +0100|17943.2347615|0.036865234375|0.7391357421875|0.305938720703125|17943.2148015|-2.782558096469148|2.507037491517794|-1.232977816990357|0.726729154586792|0.4926905333995819|0.2623936831951141|-0.07707774639129639|-0.1200853586196899|-0.02042102813720703|XArbitraryZVertical|-0.7305250915967101|-0.3158945639806288|0.3485421977435386|0.495037581656329|0.1964782774448395|0.9434798955917358|0.266912579536438|0|0|0|-1|-1|3
2021-04-08 19:36:26.103 +0100|17943.2547215|-0.0260467529296875|0.8539886474609375|0.27764892578125|17943.2347615|-2.815471086869576|2.484626063379557|-1.237749296718883|0.4203728437423706|0.3899764716625214|0.2924515306949615|-0.1382260620594025|-0.2121102809906006|0.03835254907608032|XArbitraryZVertical|-0.7303720862085619|-0.3098287461174697|0.3484293235775371|0.4991590980755899|0.1996584236621857|0.9450505971908569|0.2588744759559631|0|0|0|-1|-1|3
2021-04-08 19:36:26.123 +0100|17943.2746815|-0.0850982666015625|0.92987060546875|0.30548095703125|17943.2547215|-2.847823609926944|2.46095927880782|-1.239610700528602|0.5183820128440857|0.2372193187475204|0.4718964695930481|-0.2153022438287735|-0.1106205582618713|0.04750797152519226|XArbitraryZVertical|-0.730669029292034|-0.3041014608662153|0.3489127673567534|0.5019014703118809|0.2046215683221817|0.94565749168396|0.2527098655700684|0|0|0|-1|-1|3
2021-04-08 19:36:26.143 +0100|17943.2946415|-0.0349273681640625|0.987152099609375|0.3395843505859375|17943.2746815|-2.900058650931937|2.416056731633549|-1.242994729123857|0.7640237212181091|0.2402361929416656|0.5440313220024109|-0.2871506214141846|-0.04044163227081299|0.04887557029724121|XArbitraryZVertical|-0.7296671612159674|-0.2966870102045909|0.3519864094709875|0.5056365985132684|0.2136342227458954|0.9467524290084839|0.2408746927976608|0|0|0|-1|-1|3
2021-04-08 19:36:26.163 +0100|17943.3146015|0.0104217529296875|1.048065185546875|0.2958221435546875|17943.2946415|-2.961180815338719|2.363608484885316|-1.246032882243715|0.7367125749588013|0.2925105094909668|0.7307345867156982|-0.2752478122711182|0.02930903434753418|0.09523247182369232|XArbitraryZVertical|-0.7284600380115308|-0.2880848137495896|0.3553858613373624|0.5099550119561471|0.223948210477829|0.9477262496948242|0.2272937744855881|0|0|0|-1|-1|3
2021-04-08 19:36:26.183 +0100|17943.3345615|0.0419921875|1.027191162109375|0.324493408203125|17943.3146015|-3.026702891280733|2.306793137061086|-1.244268672608509|0.6446876525878906|0.2876302003860474|0.8267968893051147|-0.2334596663713455|0.08736854791641235|0.06721590459346771|XArbitraryZVertical|-0.7280795304493733|-0.2785073812711988|0.3594735119625802|0.5129451820015991|0.2377325743436813|0.947161853313446|0.2153323292732239|0|0|0|-1|-1|3
2021-04-08 19:36:26.203 +0100|17943.3545215|0.02191162109375|1.047439575195312|0.3264923095703125|17943.3345615|-3.091726510550249|2.251532092066298|-1.240794005477473|0.7636997699737549|0.2951030433177948|0.7791971564292908|-0.2205533385276794|0.08294987678527832|0.1299357265233994|XArbitraryZVertical|-0.7279290454372972|-0.2684972236061071|0.3632364044910819|0.5158371298612773|0.251818984746933|0.9460415840148926|0.2039429098367691|0|0|0|-1|-1|3
2021-04-08 19:36:26.223 +0100|17943.3744815|-0.0461578369140625|0.919403076171875|0.273193359375|17943.3545215|3.120846856482725|2.188988482975419|-1.23946703520307|0.9463019967079163|0.1136762350797653|0.7423626184463501|-0.2308856844902039|0.1018742918968201|0.149558037519455|XArbitraryZVertical|-0.7261518850647108|-0.2587846107213654|0.3678568843068258|0.520014734153003|0.2650963068008423|0.9456107616424561|0.1885320693254471|0|0|0|-1|-1|3
2021-04-08 19:36:26.243 +0100|17943.3944415|0.0173187255859375|0.75531005859375|0.220672607421875|17943.3744815|3.048814689866353|2.124494601810437|-1.237829047738908|0.904803454875946|0.3283932209014893|0.6640094518661499|-0.3160225450992584|0.02370363473892212|0.1150734275579453|XArbitraryZVertical|-0.7237682454089291|-0.2491869933250164|0.3726678384818282|0.524580003665938|0.2780132591724396|0.9450766444206238|0.1718692630529404|0|0|0|-1|-1|3
2021-04-08 19:36:26.263 +0100|17943.4144015|0.1241912841796875|0.753387451171875|0.2396392822265625|17943.3944415|3.010736693905456|2.099703400799539|-1.237261938759836|0.252670019865036|0.6181094646453857|0.6200777888298035|-0.2937889993190765|-0.1534791588783264|0.07134778797626495|XArbitraryZVertical|-0.723965144239333|-0.2418097908544664|0.3717086020818006|0.5284270870053539|0.2826504707336426|0.9448911547660828|0.1651950031518936|0|0|0|-1|-1|3
2021-04-08 19:36:26.283 +0100|17943.4343615|0.21539306640625|0.9689178466796875|0.2754669189453125|17943.4144015|3.007114717995363|2.111586512165868|-1.227446046119023|-0.5344215631484985|0.8255993723869324|0.5125676393508911|-0.1880343556404114|-0.2293369174003601|0.04072734713554382|XArbitraryZVertical|-0.7289222904306999|-0.2352162278706475|0.3680685464931983|0.5271348683015108|0.2886053919792175|0.941632091999054|0.1733087599277496|0|0|0|-1|-1|3
2021-04-08 19:36:26.303 +0100|17943.4543215|0.2997283935546875|1.082382202148438|0.352752685546875|17943.4343615|3.026042484881637|2.145917601761238|-1.212299654722458|-0.5940285325050354|0.8007456064224243|0.4152005314826965|-0.09750658273696899|-0.02401119470596313|0.07578393816947937|XArbitraryZVertical|-0.7365936267779941|-0.2299009983123597|0.3628957798378943|0.5223810779091164|0.2944215834140778|0.9364253282546997|0.1908492743968964|0|0|0|-1|-1|3
2021-04-08 19:36:26.323 +0100|17943.4742815|0.339141845703125|0.9369049072265625|0.430206298828125|17943.4543215|3.035392258909734|2.169619802170815|-1.200234724128526|-0.3549809157848358|0.6276832222938538|0.448011577129364|-0.02011987566947937|0.1573228240013123|0.1475123465061188|XArbitraryZVertical|-0.7426869887846398|-0.2246773060359216|0.3584213106480614|0.5191055296769761|0.2991272211074829|0.932124137878418|0.2041277140378952|0|0|0|-1|-1|3
2021-04-08 19:36:26.342 +0100|17943.4942415|0.39971923828125|0.752227783203125|0.4686279296875|17943.4742815|3.036913702364561|2.181708499413367|-1.189129180601633|-0.4738239347934723|0.4699316024780273|0.4096061289310455|0.02482733130455017|0.05008900165557861|0.190217137336731|XArbitraryZVertical|-0.7473266462907837|-0.219840195502131|0.3559745992181135|0.5161932332520955|0.3050985634326935|0.9280449748039246|0.2136536538600922|0|0|0|-1|-1|3
2021-04-08 19:36:26.362 +0100|17943.5142015|0.396026611328125|0.693817138671875|0.5076446533203125|17943.4942415|3.057080920906882|2.208592802270569|-1.174298842857522|-1.07394802570343|0.3428825438022614|0.3110304772853851|0.07673969864845276|-0.1467846035957336|0.2270843088626862|XArbitraryZVertical|-0.753428355489387|-0.2175311393371606|0.3532023872088453|0.510170771111179|0.3102693259716034|0.9224193096160889|0.2299481630325317|0|0|0|-1|-1|3
2021-04-08 19:36:26.382 +0100|17943.5341615|0.3441314697265625|0.833526611328125|0.5277252197265625|17943.5142015|3.106973495146325|2.259516062159782|-1.153189939438678|-1.636406421661377|0.1864340603351593|0.117838978767395|0.0966014564037323|-0.2077484130859375|0.2355248034000397|XArbitraryZVertical|-0.7620184126565243|-0.2195658936230796|0.3492758952479821|0.4991245509843246|0.313127875328064|0.9140623211860657|0.2577624917030334|0|0|0|-1|-1|3
2021-04-08 19:36:26.402 +0100|17943.5541215|0.3253021240234375|0.927215576171875|0.531494140625|17943.5341615|-3.117307985714251|2.316322492901814|-1.132886847693224|-1.46428906917572|0.113481879234314|-0.1267174035310745|0.03733181953430176|-0.1205758452415466|0.2446784675121307|XArbitraryZVertical|-0.7703212366920154|-0.2245734245481083|0.3443345936827593|0.4874481497840957|0.3115606904029846|0.9056401252746582|0.2876560688018799|0|0|0|-1|-1|3
2021-04-08 19:36:26.422 +0100|17943.5740815|0.4365234375|0.896514892578125|0.521087646484375|17943.5541215|-3.071276945361403|2.359851159625273|-1.118401490247153|-0.9994672536849976|0.1170983985066414|-0.2244215160608292|0.01143839955329895|0.01797038316726685|0.2201926410198212|XArbitraryZVertical|-0.7761564902014563|-0.2295447433199685|0.3400022134927749|0.4788411986406804|0.3079589009284973|0.8994028568267822|0.3102193772792816|0|0|0|-1|-1|3
2021-04-08 19:36:26.442 +0100|17943.5940415|0.500762939453125|0.907470703125|0.4254302978515625|17943.5740815|-3.032954548417135|2.396288569197075|-1.109037093226589|-0.9381740093231201|0.04376421123743057|-0.3765594661235809|0.1021142601966858|0.01525199413299561|0.2004714012145996|XArbitraryZVertical|-0.7802279262470943|-0.2344102305389195|0.3356981073333828|0.4728669255694083|0.3021523952484131|0.8952701091766357|0.3274075388908386|0|0|0|-1|-1|3
2021-04-08 19:36:26.462 +0100|17943.6140015|0.4386138916015625|0.946136474609375|0.271575927734375|17943.5940415|-2.989127832617195|2.434001062138639|-1.101424261352935|-0.9881632924079895|-0.2245367467403412|-0.5798367857933044|0.2098153829574585|-0.01139020919799805|0.1035150289535522|XArbitraryZVertical|-0.7832443738794415|-0.2416536992303079|0.3317651623078364|0.4669729922441379|0.2940149009227753|0.8918524980545044|0.3437365293502808|0|0|0|-1|-1|3
2021-04-08 19:36:26.482 +0100|17943.6339615|0.46533203125|0.92596435546875|0.1724700927734375|17943.6140015|-2.939510193732174|2.472996268971234|-1.094536411090093|-0.8959062099456787|-0.2400606870651245|-0.7324554324150085|0.1671177744865417|0.05909860134124756|-0.05474001169204712|XArbitraryZVertical|-0.7853393482347651|-0.2512302694976704|0.3283394484627584|0.46078054883938|0.2841917276382446|0.8887158036231995|0.3597490787506104|0|0|0|-1|-1|3
2021-04-08 19:36:26.502 +0100|17943.6539215|0.469512939453125|0.837860107421875|0.1385040283203125|17943.6339615|-2.890943865848264|2.511187332310108|-1.091597556982559|-0.6823474764823914|-0.2637166082859039|-0.8479102253913879|0.1820400357246399|0.06362378597259521|-0.1745842695236206|XArbitraryZVertical|-0.7861160391130976|-0.2612367731759824|0.3245800165318788|0.4565357538949483|0.2717872560024261|0.8873646259307861|0.3724461495876312|0|0|0|-1|-1|3
2021-04-08 19:36:26.522 +0100|17943.6738815|0.3941192626953125|0.756927490234375|0.1466522216796875|17943.6539215|-2.845457004866738|2.545085391680651|-1.09142008019561|-0.5863599181175232|-0.3872131109237671|-0.8306539058685303|0.2137582004070282|-0.03274524211883545|-0.2302358448505402|XArbitraryZVertical|-0.7855822007856752|-0.2713806402840643|0.3216137996822181|0.4536274294811028|0.2590967416763306|0.8872827887535095|0.3815737068653107|0|0|0|-1|-1|3
2021-04-08 19:36:26.542 +0100|17943.6938415|0.339385986328125|0.764678955078125|0.1276092529296875|17943.6738815|-2.801198208409984|2.576409228690456|-1.088408019770999|-0.8881093859672546|-0.3675375282764435|-0.7227834463119507|0.1663916260004044|-0.1083936095237732|-0.2527780830860138|XArbitraryZVertical|-0.7852818350881615|-0.281443687353994|0.3193309584493078|0.4496106539396597|0.248449444770813|0.8858895301818848|0.3917562067508698|0|0|0|-1|-1|3
2021-04-08 19:36:26.562 +0100|17943.7138015|0.2788238525390625|0.88970947265625|0.050140380859375|17943.6938415|-2.75532655100695|2.610629618610568|-1.07848432581388|-1.142815709114075|-0.2633416652679443|-0.5930741429328918|0.1156400740146637|-0.1530168652534485|-0.2924448549747467|XArbitraryZVertical|-0.7867823696649511|-0.2911493794551381|0.3160598525974237|0.4430711597319631|0.2393408566713333|0.8812423944473267|0.407588928937912|0|0|0|-1|-1|3
2021-04-08 19:36:26.582 +0100|17943.7337615|0.2139129638671875|0.98016357421875|0.034271240234375|17943.7138015|-2.716019265500292|2.640838615753102|-1.063043133138761|-1.108489751815796|-0.1610754430294037|-0.3045198023319244|0.06749308109283447|-0.01827913522720337|-0.3618201613426208|XArbitraryZVertical|-0.7898011864239836|-0.2991209628704175|0.3124695899616868|0.434860535894734|0.2334259003400803|0.8738391399383545|0.4265185296535492|0|0|0|-1|-1|3
2021-04-08 19:36:26.602 +0100|17943.7537225|0.2107696533203125|0.989044189453125|-0.00323486328125|17943.7337615|-2.68761492670286|2.665073077663763|-1.0465815318092|-0.9810954928398132|0.1195234656333923|-0.2018537074327469|-0.008855387568473816|0.09616583585739136|-0.4020469486713409|XArbitraryZVertical|-0.7935763797999446|-0.3043399589167015|0.3084700601856623|0.4271534008318455|0.2295894175767899|0.8657172322273254|0.4447725713253021|0|0|0|-1|-1|3
2021-04-08 19:36:26.622 +0100|17943.7736825|0.1156768798828125|0.841522216796875|-0.020050048828125|17943.7537225|-2.665640674868115|2.687112947518289|-1.031190390680824|-0.9237439632415771|0.1389723271131516|-0.07936879992485046|-0.0029897540807724|0.1514571905136108|-0.4558582603931427|XArbitraryZVertical|-0.7975592707028858|-0.3077668266794309|0.3037199510631721|0.4206341715035918|0.2255548387765884|0.857911229133606|0.4616424143314362|0|0|0|-1|-1|3
2021-04-08 19:36:26.642 +0100|17943.7936415|0.0880889892578125|0.8555908203125|0.0590057373046875|17943.7736825|-2.649308494473112|2.705147156521419|-1.01522584318923|-0.9183678030967712|0.3165774047374725|0.007424326613545418|-0.08438952267169952|0.02384340763092041|-0.5111739635467529|XArbitraryZVertical|-0.801824055962154|-0.3099544893611105|0.2991283607066611|0.4141602686652144|0.2229549586772919|0.8495997190475464|0.4779872000217438|0|0|0|-1|-1|3
2021-04-08 19:36:26.662 +0100|17943.8136025|0.1401214599609375|0.913116455078125|0.1962738037109375|17943.7936415|-2.637495327650896|2.724873316207833|-0.9980302307838229|-0.9194357395172119|0.6549354791641235|0.1376874446868896|-0.1373332440853119|-0.008252263069152832|-0.4611390829086304|XArbitraryZVertical|-0.8072323953804571|-0.3101056034759064|0.2926576812556128|0.4081200855247457|0.2193648666143417|0.8404051065444946|0.4955792427062988|0|0|0|-1|-1|3
2021-04-08 19:36:26.682 +0100|17943.8335625|0.217010498046875|0.9156341552734375|0.3331298828125|17943.8136025|-2.632915688751158|2.742891602179522|-0.9805570624289396|-0.7880962491035461|0.7519844770431519|0.3147459030151367|-0.08606339991092682|0.07722711563110352|-0.3681609034538269|XArbitraryZVertical|-0.813450034189703|-0.3078188739070711|0.2852120599291885|0.4027415330911345|0.2160686254501343|0.8308075666427612|0.5129068493843079|0|0|0|-1|-1|3
2021-04-08 19:36:26.702 +0100|17943.8535225|0.2129364013671875|0.9706573486328125|0.456573486328125|17943.8335625|-2.635742521577886|2.755972499131847|-0.9658491134503463|-0.5292628407478333|0.7288892269134521|0.3843091130256653|-0.01504629850387573|0.08550262451171875|-0.2242809534072876|XArbitraryZVertical|-0.819308055433457|-0.3036641874256767|0.2783548230113081|0.3987995314515595|0.2139144241809845|0.8225321173667908|0.526955246925354|0|0|0|-1|-1|3
2021-04-08 19:36:26.722 +0100|17943.8734825|0.249847412109375|0.857421875|0.52435302734375|17943.8535225|-2.644128198089879|2.76228792458576|-0.9556266505713|-0.3041556775569916|0.6413885951042175|0.479407399892807|0.003829672932624817|0.1426289081573486|-0.1164306998252869|XArbitraryZVertical|-0.8239022961468442|-0.298704753732229|0.2734235628752333|0.3964849388268264|0.2136847376823425|0.8166755437850952|0.5360790491104126|0|0|0|-1|-1|3
2021-04-08 19:36:26.742 +0100|17943.8934425|0.3260345458984375|0.965362548828125|0.5902557373046875|17943.8734825|-2.659258904680413|2.763138012517937|-0.9466945902536228|-0.1728751212358475|0.6558600664138794|0.6224663257598877|0.0199703574180603|0.06769216060638428|-0.04208546876907349|XArbitraryZVertical|-0.8283818908352114|-0.2920481347375856|0.269507172427372|0.3947878611214626|0.2159156054258347|0.8114883899688721|0.5430173277854919|0|0|0|-1|-1|3
2021-04-08 19:36:26.762 +0100|17943.9134025|0.3630828857421875|1.086761474609375|0.6547393798828125|17943.8934425|-2.680966104061884|2.756854946259621|-0.9405851425320806|0.1017058044672012|0.449064314365387|0.8247606754302979|0.09180890023708344|0.123004674911499|0.03140276670455933|XArbitraryZVertical|-0.8321110890730937|-0.2840927451624421|0.2674661130335697|0.3941377036235275|0.2211797088384628|0.8079030513763428|0.5462350845336914|0|0|0|-1|-1|3
2021-04-08 19:36:26.782 +0100|17943.9333625|0.3659210205078125|0.995880126953125|0.6421661376953125|17943.9134025|-2.713103380451066|2.738657411545155|-0.9423223949844458|0.7750913500785828|0.2896864712238312|0.8737737536430359|0.1134167015552521|0.2455477714538574|0.1019648909568787|XArbitraryZVertical|-0.8337480815026566|-0.2743686061532647|0.2687836577942914|0.3966630099181711|0.2305319607257843|0.8089256286621094|0.5408279895782471|0|0|0|-1|-1|3
2021-04-08 19:36:26.802 +0100|17943.95332375|0.3404693603515625|0.904327392578125|0.700958251953125|17943.9333625|-2.758045857037445|2.704998623688584|-0.9529716495843095|1.240035653114319|0.02894222550094128|1.04003632068634|0.1382342278957367|0.2257829308509827|0.1114724278450012|XArbitraryZVertical|-0.8326873452775132|-0.2628597317451014|0.274262304129475|0.4028855737192419|0.2449447065591812|0.8151404857635498|0.5249269008636475|0|0|0|-1|-1|3
2021-04-08 19:36:26.822 +0100|17943.97328375|0.2906341552734375|0.81768798828125|0.7294158935546875|17943.95332375|-2.810042871136527|2.662453416208875|-0.9658335892229173|1.134755611419678|-0.04731840267777443|1.099125504493713|0.07443022727966309|0.1076977252960205|0.1898473501205444|XArbitraryZVertical|-0.8303731379324606|-0.2506481235218968|0.2817081641443181|0.4102396946308469|0.2621941566467285|0.822523295879364|0.5046880841255188|0|0|0|-1|-1|3
2021-04-08 19:36:26.842 +0100|17943.99324375|0.274322509765625|0.827667236328125|0.7139739990234375|17943.97328375|-2.862770682386481|2.616805904504066|-0.974297055140762|1.031389474868774|-0.09785182774066925|1.104466557502747|0.02653086185455322|-0.008444786071777344|0.2327630519866943|XArbitraryZVertical|-0.8282720088192617|-0.2388376131872477|0.289815870425476|0.4158472969370093|0.2814528048038483|0.8273072242736816|0.4861558377742767|0|0|0|-1|-1|3
2021-04-08 19:36:26.861 +0100|17944.01320375|0.258270263671875|0.826324462890625|0.63482666015625|17943.99324375|-2.914114087752684|2.573695072778777|-0.979220355859691|0.943734347820282|0.02498045563697815|1.095406174659729|-0.02924245595932007|0.001494765281677246|0.2607318758964539|XArbitraryZVertical|-0.8267507721843993|-0.227047230835233|0.2968751416467433|0.420473439231364|0.2999488413333893|0.8300628662109375|0.4701345562934875|0|0|0|-1|-1|3
2021-04-08 19:36:26.881 +0100|17944.03316375|0.2606353759765625|0.7808837890625|0.543548583984375|17944.01320375|-2.965802488849139|2.531806982388932|-0.98369137532324|1.046249151229858|0.1173718497157097|1.037744998931885|-0.05078041553497314|-0.01000791788101196|0.2043335735797882|XArbitraryZVertical|-0.8251187945158081|-0.2150269368139657|0.3031292810294614|0.4255059816717051|0.317244827747345|0.8325479030609131|0.4541152119636536|0|0|0|-1|-1|3
2021-04-08 19:36:26.901 +0100|17944.05312375|0.255584716796875|0.7706451416015625|0.4314422607421875|17944.03316375|-3.015119349742574|2.494671699582927|-0.9869373421457434|0.8217231035232544|0.2562794089317322|0.969471275806427|-0.07494601607322693|-0.02937972545623779|0.1340344548225403|XArbitraryZVertical|-0.8238398543087259|-0.2030280931552412|0.3077509978555988|0.4305311346484462|0.3322552442550659|0.8343415856361389|0.4398650228977203|0|0|0|-1|-1|3
2021-04-08 19:36:26.921 +0100|17944.07308375|0.2089996337890625|0.7959136962890625|0.3831939697265625|17944.05312375|-3.056993321451346|2.466040018042138|-0.986823311284881|0.6061838269233704|0.3576778769493103|0.8762146830558777|-0.08602732419967651|-0.06604492664337158|0.03200387954711914|XArbitraryZVertical|-0.823575485358304|-0.1919556152187572|0.310498270095475|0.4341283744618571|0.344770759344101|0.8342787623405457|0.4302470684051514|0|0|0|-1|-1|3
2021-04-08 19:36:26.941 +0100|17944.09304375|0.2277374267578125|0.8452911376953125|0.3956146240234375|17944.07308375|-3.09326935916465|2.444296231837362|-0.9852573737583031|0.5916985273361206|0.5226149559020996|0.7896984815597534|-0.1388022601604462|-0.04250597953796387|-0.03599956631660461|XArbitraryZVertical|-0.8239370116102462|-0.1815293686420333|0.3116564106077909|0.437087278658486|0.354882150888443|0.8334143757820129|0.4236502349376678|0|0|0|-1|-1|3
2021-04-08 19:36:26.961 +0100|17944.11300375|0.2481231689453125|0.82244873046875|0.419677734375|17944.09304375|-3.129749769216776|2.425601397372936|-0.9854612744066467|0.7528114318847656|0.6125573515892029|0.7635992169380188|-0.1470365524291992|0.004378378391265869|-0.02189996838569641|XArbitraryZVertical|-0.8241912587008144|-0.1706331830762741|0.3113339938510731|0.4412077869992601|0.3626281321048737|0.8335270285606384|0.4168138206005096|0|0|0|-1|-1|3
2021-04-08 19:36:26.981 +0100|17944.13296375|0.2497100830078125|0.8272705078125|0.4205322265625|17944.11300375|3.11278542411536|2.403456378424654|-0.9868168613639159|0.8356875777244568|0.5832086205482483|0.8128308057785034|-0.1215419769287109|0.003019750118255615|0.005027920007705688|XArbitraryZVertical|-0.8237948759690006|-0.1590118200126739|0.3113225823208626|0.4462684041822532|0.3710080087184906|0.8342751860618591|0.40784552693367|0|0|0|-1|-1|3
2021-04-08 19:36:27.001 +0100|17944.15292375|0.2310333251953125|0.8800811767578125|0.40460205078125|17944.13296375|3.071667388659475|2.38117020143092|-0.987457149508125|0.7922865748405457|0.6077672243118286|0.798610508441925|-0.1317723989486694|-0.01579618453979492|0.03473418951034546|XArbitraryZVertical|-0.8233351969532013|-0.1471866376482784|0.3112123739583812|0.4512229270832344|0.3796362280845642|0.8346280455589294|0.399089515209198|0|0|0|-1|-1|3
2021-04-08 19:36:27.021 +0100|17944.17288375|0.2198333740234375|0.8727569580078125|0.3798065185546875|17944.15292375|3.03091628729274|2.359233670797846|-0.9881767465188878|0.8433942794799805|0.6116368174552917|0.7661475539207458|-0.1500672101974487|0.04130291938781738|0.02214479446411133|XArbitraryZVertical|-0.8226508649568984|-0.1355203719691784|0.3109167082559827|0.4563011630739246|0.3878755867481232|0.8350241780281067|0.3902404308319092|0|0|0|-1|-1|3
2021-04-08 19:36:27.041 +0100|17944.19284375|0.2594146728515625|0.8871307373046875|0.390167236328125|17944.17288375|2.987786574600975|2.336141920855639|-0.9907349784207865|1.033304810523987|0.6899885535240173|0.7164469361305237|-0.1783522367477417|0.02889639139175415|0.008104145526885986|XArbitraryZVertical|-0.8213282923014743|-0.1235693332906776|0.3101976034364962|0.4625234592519929|0.3952406942844391|0.8364289999008179|0.3796990811824799|0|0|0|-1|-1|3
2021-04-08 19:36:27.061 +0100|17944.21280375|0.29486083984375|0.8844451904296875|0.3758087158203125|17944.19284375|2.941339184817619|2.312005462014235|-0.9948773800192122|1.058770060539246|0.7783884406089783|0.7191765904426575|-0.1603208482265472|0.05304646492004395|0.02156081795692444|XArbitraryZVertical|-0.8194786491087315|-0.1109434710982286|0.3087332842781839|0.4699257932863891|0.4017302691936493|0.8386921882629395|0.3677074313163757|0|0|0|-1|-1|3
2021-04-08 19:36:27.081 +0100|17944.23276375|0.2688751220703125|0.9485015869140625|0.37451171875|17944.21280375|2.894908004244099|2.287739622474684|-0.9984245013335039|1.069003939628601|0.6841759085655212|0.7071141600608826|-0.110482931137085|0.02759087085723877|0.02107489109039307|XArbitraryZVertical|-0.8174739724236345|-0.09840578354974716|0.30716775365483|0.4771800415722332|0.4082887470722198|0.8406186699867249|0.3558947741985321|0|0|0|-1|-1|3
2021-04-08 19:36:27.101 +0100|17944.25272375|0.320770263671875|0.9673004150390625|0.4062042236328125|17944.23276375|2.846381106122278|2.261014081069653|-1.001286235268881|1.116941332817078|0.7585406899452209|0.7551266551017761|-0.1432743966579437|0.09771472215652466|0.01977536082267761|XArbitraryZVertical|-0.8150639292067823|-0.08563162892490583|0.3059698057784062|0.4844797017701775|0.4157963395118713|0.8421652317047119|0.3433239758014679|0|0|0|-1|-1|3
2021-04-08 19:36:27.121 +0100|17944.27268375|0.2764129638671875|0.9354705810546875|0.437774658203125|17944.25272375|2.794903177798301|2.23291889629852|-1.005029912098152|1.319043397903442|0.7371265888214111|0.6897500157356262|-0.1142851710319519|0.1114340424537659|0.06841328740119934|XArbitraryZVertical|-0.8121234736122083|-0.07238316803202585|0.3042040503859863|0.4926218254177974|0.4227874577045441|0.8441780209541321|0.3295677304267883|0|0|0|-1|-1|3
2021-04-08 19:36:27.141 +0100|17944.29264375|0.2440948486328125|0.736083984375|0.4471435546875|17944.27268375|2.737622617247082|2.19839775054443|-1.010870247172749|1.486953139305115|0.6958764791488647|0.6980040073394775|-0.1314961910247803|0.1217606067657471|0.1298952698707581|XArbitraryZVertical|-0.8077395135986237|-0.05912938214664087|0.3028916782220542|0.502312171770898|0.4299123287200928|0.8472943902015686|0.3118788003921509|0|0|0|-1|-1|3
2021-04-08 19:36:27.161 +0100|17944.31260375|0.3135223388671875|0.6407012939453125|0.4665985107421875|17944.29264375|2.678565838409785|2.164803142451048|-1.014878083618621|1.263662815093994|0.9815523028373718|0.7834171652793884|-0.2023876905441284|-0.05244994163513184|0.1584380567073822|XArbitraryZVertical|-0.8035358774224726|-0.04483177368998222|0.3006801649523123|0.5117731471832072|0.4373272061347961|0.849416196346283|0.2953595817089081|0|0|0|-1|-1|3
2021-04-08 19:36:27.181 +0100|17944.33256375|0.3355712890625|0.7837982177734375|0.4927978515625|17944.31260375|2.629814294546582|2.145389375386422|-1.01292839318944|0.8247167468070984|1.181231021881104|0.7832656502723694|-0.1492323577404022|-0.2088748812675476|0.1798166930675507|XArbitraryZVertical|-0.8018544841604059|-0.02977056297731359|0.296319870682424|0.5180132470281357|0.4443677365779877|0.8483856916427612|0.2877137959003448|0|0|0|-1|-1|3
2021-04-08 19:36:27.201 +0100|17944.35252375|0.3419952392578125|0.9385986328125|0.4733123779296875|17944.33256375|2.592840678736837|2.138843137907148|-1.00738563751078|0.6352105736732483|1.301421880722046|0.7560815811157227|-0.1142003834247589|-0.09792584180831909|0.207427978515625|XArbitraryZVertical|-0.802141284527253|-0.01521492138950003|0.2905144972576575|0.5214780619968237|0.4501988589763641|0.8454384803771973|0.2873242795467377|0|0|0|-1|-1|3
2021-04-08 19:36:27.221 +0100|17944.37248375|0.38397216796875|0.8929595947265625|0.4183807373046875|17944.35252375|2.557553340889073|2.137238565192811|-1.002725127065427|0.6412932276725769|1.512249350547791|0.6659783124923706|-0.1222988963127136|0.07125937938690186|0.1969757974147797|XArbitraryZVertical|-0.8027180687589762|-0.0002584558078929798|0.2829451541551029|0.5249626401056757|0.4539790153503418|0.8429402709007263|0.288712739944458|0|0|0|-1|-1|3
2021-04-08 19:36:27.241 +0100|17944.39244375|0.431549072265625|0.9491424560546875|0.38409423828125|17944.37248375|2.524891111543752|2.141511063347883|-0.9993150017950945|0.6686474084854126|1.673162579536438|0.5479887723922729|-0.0788915753364563|0.04784584045410156|0.1251738369464874|XArbitraryZVertical|-0.8036660141038199|0.01488280241185703|0.2733916894813321|0.528352782994583|0.4551579654216766|0.8411006927490234|0.2922011315822601|0|0|0|-1|-1|3
2021-04-08 19:36:27.261 +0100|17944.41240375|0.4721832275390625|0.99127197265625|0.3859100341796875|17944.39244375|2.491537985816991|2.147472536282779|-0.9983589296299553|0.8257361054420471|1.732476115226746|0.5186612606048584|-0.02920073270797729|0.09484142065048218|0.08220204710960388|XArbitraryZVertical|-0.8042177692033411|0.03012443077826039|0.2623684472188786|0.5324369909874994|0.4540814459323883|0.8405832052230835|0.2953473925590515|0|0|0|-1|-1|3
2021-04-08 19:36:27.281 +0100|17944.43236375|0.5131988525390625|0.951995849609375|0.3921051025390625|17944.41240375|2.452224533423524|2.149379842446113|-1.000198976198739|1.032760381698608|1.777767896652222|0.4893717169761658|0.009829491376876831|0.1462753415107727|0.08264049887657166|XArbitraryZVertical|-0.8034751614601594|0.04594568175435049|0.250648694499884|0.538044588818792|0.4522216618061066|0.841578483581543|0.2953666746616364|0|0|0|-1|-1|3
2021-04-08 19:36:27.301 +0100|17944.45232375|0.49481201171875|0.932037353515625|0.3892669677734375|17944.43236375|2.411469236046498|2.150047358491882|-1.004503202310481|1.011117339134216|1.715901732444763|0.3796320557594299|0.05453550815582275|0.1302103400230408|0.1127665340900421|XArbitraryZVertical|-0.8019231142576038|0.06132585667553508|0.2383134640317706|0.5443945150861289|0.448989063501358|0.8438955545425415|0.2936830818653107|0|0|0|-1|-1|3
2021-04-08 19:36:27.321 +0100|17944.47228375|0.5219573974609375|0.998565673828125|0.4041290283203125|17944.45232375|2.373680031296265|2.151929703114929|-1.009662450918468|0.9545796513557434|1.709818720817566|0.3154372870922089|0.05282917618751526|0.08369123935699463|0.09750089049339294|XArbitraryZVertical|-0.8002217354345414|0.07557725662682779|0.225938783159071|0.5503499186977885|0.4447901248931885|0.8466522693634033|0.2921334803104401|0|0|0|-1|-1|3
2021-04-08 19:36:27.340 +0100|17944.49224375|0.5652618408203125|1.12359619140625|0.381378173828125|17944.47228375|2.336138981155472|2.15478225688665|-1.015927852969837|1.076974391937256|1.741024136543274|0.2605046033859253|0.06711620092391968|0.123479962348938|0.1139036417007446|XArbitraryZVertical|-0.7982462909003221|0.08965627741513968|0.2128222629128469|0.5563016412146491|0.4395210444927216|0.849969744682312|0.2904707789421082|0|0|0|-1|-1|3
2021-04-08 19:36:27.360 +0100|17944.51220375|0.6059112548828125|1.234664916992188|0.32220458984375|17944.49224375|2.292148174676831|2.150854623562125|-1.024842204138634|1.372315287590027|1.615314364433289|0.2696789503097534|0.1262735724449158|0.2339602708816528|0.1094660758972168|XArbitraryZVertical|-0.7947030040951669|0.1036155376047311|0.199745781632553|0.563748844320731|0.4343034327030182|0.8546322584152222|0.2845780849456787|0|0|0|-1|-1|3
2021-04-08 19:36:27.380 +0100|17944.53216375|0.637176513671875|1.433609008789062|0.2554779052734375|17944.51220375|2.236928833692981|2.135183710263762|-1.036260770464119|1.679723858833313|1.545388579368591|0.2985201776027679|0.1642141044139862|0.357405424118042|0.06533119082450867|XArbitraryZVertical|-0.788903150783584|0.1178201662549212|0.1871806010184812|0.5733356667994111|0.4304357469081879|0.8605053424835205|0.2724995315074921|0|0|0|-1|-1|3
2021-04-08 19:36:27.400 +0100|17944.55212375|0.63067626953125|1.580047607421875|0.094757080078125|17944.53216375|2.164173416093268|2.101382192080524|-1.051954169787925|2.263590097427368|1.389693737030029|0.3140612542629242|0.2081963121891022|0.5090629458427429|0.02864041924476624|XArbitraryZVertical|-0.7797643066568657|0.1320369954806793|0.1749443730156425|0.5864542388041871|0.4276980757713318|0.8683938980102539|0.2509322762489319|0|0|0|-1|-1|3
2021-04-08 19:36:27.420 +0100|17944.57208375|0.655059814453125|1.750137329101562|-0.2108612060546875|17944.55212375|2.061226318295169|2.039136766976548|-1.069617939306798|2.994321346282959|1.399853110313416|0.546880841255188|0.1966423988342285|0.6617710590362549|-0.05344435572624207|XArbitraryZVertical|-0.7658545042509783|0.1480140111640761|0.1631455224372116|0.6041047254298603|0.4287233948707581|0.8770170211791992|0.2168825417757034|0|0|0|-1|-1|3
2021-04-08 19:36:27.440 +0100|17944.59204375|0.916656494140625|2.191925048828125|-0.728057861328125|17944.57208375|1.920383947275664|1.944930379253395|-1.084377162834946|3.63136625289917|1.692143321037292|0.8382501602172852|0.210288941860199|0.840551495552063|-0.3158913850784302|XArbitraryZVertical|-0.7465283812130127|0.1676800765370355|0.1508343613884288|0.6259616448575851|0.4351268708705902|0.8840124607086182|0.1708424687385559|0|0|0|-1|-1|3
2021-04-08 19:36:27.460 +0100|17944.61200375|1.864105224609375|2.839111328125|-2.150222778320312|17944.59204375|1.744023717417842|1.827157645017051|-1.092298923205085|4.355978488922119|2.164038419723511|0.9485203623771667|0.3553059101104736|1.09253716468811|-0.6577359437942505|XArbitraryZVertical|-0.722088274526798|0.1922614908382445|0.1351677657433945|0.6506565293897345|0.4453985095024109|0.8876878023147583|0.116751916706562|0|0|0|-1|-1|3
2021-04-08 19:36:27.480 +0100|17944.63196375|3.105972290039062|2.484893798828125|-4.03741455078125|17944.61200375|1.53747569219808|1.686708102014018|-1.088878021264743|4.947124004364014|1.819113850593567|1.110447764396667|1.097582101821899|1.88571298122406|-1.77935528755188|XArbitraryZVertical|-0.6917336558758485|0.2197859225839868|0.1174063451606462|0.6778013282740585|0.4603702127933502|0.8861074447631836|0.05360260605812073|0|0|0|-1|-1|3
2021-04-08 19:36:27.500 +0100|17944.65192375|4.709564208984375|0.2192535400390625|-4.425445556640625|17944.63196375|1.321563482868013|1.504665919217712|-1.072575499385059|4.849461078643799|-1.218447804450989|0.7269652485847473|2.299410104751587|1.737533092498779|-3.552725553512573|XArbitraryZVertical|-0.655034899740681|0.2348193722051845|0.1095181632690861|0.709785178087366|0.4768190681934357|0.8784341812133789|-0.03157828375697136|0|0|0|-1|-1|3
2021-04-08 19:36:27.520 +0100|17944.67188375|5.335830688476562|-0.2595977783203125|-1.44287109375|17944.65192375|1.163331843624084|1.29264539934881|-1.049680123859812|2.891345977783203|-6.076923370361328|-0.1828538328409195|3.798324108123779|0.06126439571380615|-4.527119159698486|XArbitraryZVertical|-0.6205800846977884|0.2157108154348655|0.1274202604169019|0.7430434035897122|0.4787139594554901|0.8672640323638916|-0.1366984099149704|0|0|0|-1|-1|3
2021-04-08 19:36:27.540 +0100|17944.69184475|3.463211059570312|-0.2083282470703125|2.594436645507812|17944.67188375|1.100554787097317|1.05832294950885|-1.077056597508055|-1.120593547821045|-11.94624519348145|-3.227680206298828|5.040679931640625|-1.356411457061768|-2.161340951919556|XArbitraryZVertical|-0.6039868768289917|0.1378753438535999|0.166830241702239|0.7670450044219121|0.4130397439002991|0.8805666565895081|-0.2323804795742035|0|0|0|-1|-1|3
2021-04-08 19:36:27.560 +0100|17944.71180475|1.986221313476562|-1.027206420898438|3.543701171875|17944.69184475|1.038597551708043|0.7390210857826678|-1.155061768472779|-0.4981361031532288|-13.60436820983887|-4.709078788757324|3.771902561187744|-1.021066427230835|1.93083131313324|XArbitraryZVertical|-0.5921539195008619|0.01003810327234414|0.2165363627918028|0.7761218034609789|0.2720272839069366|0.9148198962211609|-0.2985059320926666|0|0|0|-1|-1|3
2021-04-08 19:36:27.580 +0100|17944.73176475|3.84295654296875|-1.441986083984375|-1.300247192382812|17944.71180475|0.8207905525856204|0.2663954916691385|-1.209891289686577|-1.928922414779663|-13.79908752441406|-4.778935432434082|2.018061876296997|-1.639281988143921|4.314741611480713|XArbitraryZVertical|-0.5604556654232473|-0.1247270634630586|0.2560042062779489|0.7776853435413141|0.09296119958162308|0.9355776309967041|-0.3406652212142944|0|0|0|-1|-1|3
2021-04-08 19:36:27.600 +0100|17944.75172475|5.467315673828125|3.304611206054688|1.9466552734375|17944.73176475|0.3933695279202463|-0.4068576533127476|-1.367365558032867|-16.89020156860352|-11.00792980194092|-7.722424030303955|3.389824628829956|-2.825676918029785|-0.7206485271453857|XArbitraryZVertical|-0.5760928941546719|-0.2744947351027081|0.2735262958259938|0.7196896325692971|-0.07994891703128815|0.9793792366981506|-0.1855392307043076|0|0|0|-1|-1|3
2021-04-08 19:36:27.620 +0100|17944.77168475|3.968246459960938|1.26312255859375|2.148406982421875|17944.75172475|-1.016028790247389|-1.96753913328952|-1.217436158049807|-9.137279510498047|-9.836746215820312|-13.28563117980957|5.636083126068115|1.161104202270508|1.297646760940552|XArbitraryZVertical|-0.6089855084539617|-0.442715258128088|0.1949251813204326|0.6286048706128379|-0.3191727101802826|0.9382151961326599|0.1337202936410904|0|0|0|-1|-1|3
2021-04-08 19:36:27.640 +0100|17944.79164475|1.743194580078125|-5.149322509765625|3.826217651367188|17944.77168475|-0.9685177459658876|-2.08633302826919|-1.050689163104353|1.196530699729919|-6.488720417022705|-3.69597864151001|4.974648475646973|1.889924645423889|1.063311338424683|XArbitraryZVertical|-0.5714687224859971|-0.5439925737010012|0.1806943240788093|0.5872352763665362|-0.4323809444904327|0.8677659034729004|0.2450088411569595|0|0|0|-1|-1|3
2021-04-08 19:36:27.660 +0100|17944.81160475|0.0581817626953125|-1.106201171875|3.192596435546875|17944.79164475|-0.8328036325321432|-2.131314269249905|-1.032770004966666|2.129170894622803|-7.968414306640625|-2.041949987411499|2.873100996017456|-5.026568412780762|3.342014789581299|XArbitraryZVertical|-0.5263222584984297|-0.5993317294801251|0.2249403882928935|0.5596323504516744|-0.4340285956859589|0.8587217330932617|0.2724272906780243|0|0|0|-1|-1|3
2021-04-08 19:36:27.680 +0100|17944.83156475|-0.418914794921875|0.9530487060546875|2.483474731445312|17944.81160475|-0.8145528059026652|-2.237586304963403|-1.040159734965317|2.316779136657715|-4.754302024841309|1.574997425079346|0.6769375205039978|-3.122769117355347|3.074654817581177|XArbitraryZVertical|-0.5085136830081031|-0.6308023755810277|0.2603428323629887|0.5250943493956584|-0.3976857364177704|0.8624850511550903|0.3129956126213074|0|0|0|-1|-1|3
2021-04-08 19:36:27.700 +0100|17944.85152475|-0.153900146484375|-0.3130950927734375|2.27276611328125|17944.83156475|-0.726004995001394|-2.223183059178587|-1.13781662232567|6.305462837219238|-1.045476078987122|3.41303825378418|0.02355265617370605|-0.04614704847335815|2.429714441299438|XArbitraryZVertical|-0.4913793337469788|-0.6212132966627554|0.3188408039914712|0.5205583909240745|-0.3334120213985443|0.9077195525169373|0.2547192275524139|0|0|0|-1|-1|3
2021-04-08 19:36:27.720 +0100|17944.87148475|0.3651123046875|-0.081878662109375|1.477310180664062|17944.85152475|-0.4940676745484133|-1.985167483107746|-1.275966932555725|6.856249332427979|2.387722969055176|4.030842304229736|-0.08546969294548035|-0.9972415566444397|2.234817028045654|XArbitraryZVertical|-0.480116092906127|-0.5726986302590761|0.3762646043785182|0.5476584632076986|-0.2659851312637329|0.9568517208099365|0.116990365087986|0|0|0|-1|-1|3
2021-04-08 19:36:27.740 +0100|17944.89144475|-0.166351318359375|0.731201171875|1.146087646484375|17944.87148475|-0.10663925554534|-1.574032793632746|-1.370189886376645|4.279001712799072|0.6555008292198181|2.929833889007568|0.5318447351455688|-1.267192363739014|1.66563093662262|XArbitraryZVertical|-0.4752886637287351|-0.5238541226082211|0.4183713125698916|0.569774627619413|-0.1992632895708084|0.9799458980560303|0.0006449113134294748|0|0|0|-1|-1|3
2021-04-08 19:36:27.760 +0100|17944.91140475|-0.6678619384765625|0.7718353271484375|0.8912506103515625|17944.89144475|0.2889520999543944|-1.191500812806748|-1.403260273124228|2.37360405921936|-0.9548758268356323|1.668953895568848|0.1707726418972015|-0.364507794380188|1.249946236610413|XArbitraryZVertical|-0.4669965578765823|-0.5010413422746146|0.4494369310769039|0.5734792425082595|-0.1549026221036911|0.9859986305236816|-0.06174357607960701|0|0|0|-1|-1|3
2021-04-08 19:36:27.780 +0100|17944.93136475|-0.6355743408203125|1.005416870117188|0.6661224365234375|17944.91140475|0.5950005639892217|-0.900708739653409|-1.407663478149551|1.877854585647583|0.1479659825563431|1.399246454238892|-0.4577739834785461|-0.2225627899169922|1.063132286071777|XArbitraryZVertical|-0.4597509156395188|-0.4880531308124612|0.4705089614247089|0.5736329807493822|-0.1272928863763809|0.9867233037948608|-0.100866474211216|0|0|0|-1|-1|3
2021-04-08 19:36:27.800 +0100|17944.95132491667|-0.28997802734375|0.98895263671875|0.3070831298828125|17944.93136475|0.8645330864269897|-0.6140489114201197|-1.399488447690807|1.648333430290222|1.742944121360779|1.13619327545166|-0.5876133441925049|-0.06110703945159912|0.882571280002594|XArbitraryZVertical|-0.4605798307014325|-0.4671200500087555|0.4822329031322691|0.5806174116441232|-0.09822256863117218|0.9853626489639282|-0.1393301635980606|0|0|0|-1|-1|3
2021-04-08 19:36:27.820 +0100|17944.97128491667|-0.2095947265625|0.8330535888671875|0.084075927734375|17944.95132491667|1.032479536243429|-0.4097753095682031|-1.386959304668879|0.859774112701416|1.918516039848328|0.9545237421989441|-0.2970577478408813|0.04440814256668091|0.5764381885528564|XArbitraryZVertical|-0.4670548179137667|-0.4449999375742515|0.4847666985651557|0.5906236155281851|-0.07282970100641251|0.983149528503418|-0.1676696985960007|0|0|0|-1|-1|3
2021-04-08 19:36:27.839 +0100|17944.99124491667|-0.3231048583984375|0.8273773193359375|0.0957183837890625|17944.97128491667|1.129268960410179|-0.2838424389265745|-1.387237656959571|-0.0793212354183197|1.13286554813385|0.683829665184021|-0.1481468081474304|-0.09774786233901978|0.289118766784668|XArbitraryZVertical|-0.4764611887971404|-0.4305479900272919|0.4837202583672836|0.5946662609747003|-0.05111686885356903|0.9832003712654114|-0.1752263307571411|0|0|0|-1|-1|3
2021-04-08 19:36:27.859 +0100|17945.01120491667|-0.38580322265625|0.9437713623046875|-0.026947021484375|17944.99124491667|1.17981184615062|-0.2139657499744886|-1.399608042233333|-0.8093934059143066|0.9678338766098022|0.4537523686885834|-0.2465416789054871|-0.1835792660713196|0.2407189756631851|XArbitraryZVertical|-0.4867173046877542|-0.4241129733547997|0.4802556557178079|0.5937920437075996|-0.03617234155535698|0.9853830337524414|-0.1664689034223557|0|0|0|-1|-1|3
2021-04-08 19:36:27.879 +0100|17945.03116491667|-0.37567138671875|0.93218994140625|-0.0842437744140625|17945.01120491667|1.208390092958415|-0.1662541236550093|-1.413320636029386|-0.4157102108001709|1.12441623210907|0.3855922222137451|-0.3623213171958923|-0.07783609628677368|0.1588146835565567|XArbitraryZVertical|-0.4966259781360001|-0.4195603849459005|0.4749350284293127|0.5931007289464088|-0.02595299482345581|0.987626314163208|-0.1546634435653687|0|0|0|-1|-1|3
2021-04-08 19:36:27.899 +0100|17945.05112491667|-0.26507568359375|0.7631683349609375|-0.14605712890625|17945.03116491667|1.264375831705029|-0.08603222145031603|-1.424166783142933|-0.4853814542293549|1.352439045906067|0.5868505835533142|-0.3709592223167419|-0.01066160202026367|0.1030711978673935|XArbitraryZVertical|-0.5074077987916832|-0.4120125012863925|0.4695752906994484|0.593533797460092|-0.01255435962229967|0.9892691373825073|-0.1455660462379456|0|0|0|-1|-1|3
2021-04-08 19:36:27.919 +0100|17945.07108491667|-0.180572509765625|0.76422119140625|-0.0320587158203125|17945.05112491667|1.354228243724279|0.03370295223857842|-1.441463182111694|-1.362030386924744|1.668617606163025|0.677051305770874|-0.3048059940338135|-0.1906073093414307|-0.001134142279624939|XArbitraryZVertical|-0.5222016544117066|-0.4035533107700076|0.4620049348032619|0.5924539621451609|0.004345966968685389|0.9916481375694275|-0.1289003193378448|0|0|0|-1|-1|3
2021-04-08 19:36:27.939 +0100|17945.09104491667|-0.21136474609375|1.00994873046875|-0.0770721435546875|17945.07108491667|1.493262029386079|0.2040884308869103|-1.470913413277327|-1.767549633979797|1.437832117080688|0.5192150473594666|-0.2167581617832184|-0.2767996788024902|0.01838082075119019|XArbitraryZVertical|-0.5411875681868599|-0.3978584866652091|0.4508370725337396|0.5878526911762135|0.02021047286689281|0.9950158596038818|-0.09764928370714188|0|0|0|-1|-1|3
2021-04-08 19:36:27.959 +0100|17945.11100491667|-0.4083709716796875|1.1007080078125|-0.2199249267578125|17945.09104491667|1.783140734005898|0.5159589021643457|-1.499790918755681|-1.639778017997742|0.871682345867157|0.8568419218063354|-0.2083582282066345|-0.04609441757202148|-0.006340689957141876|XArbitraryZVertical|-0.5592399486068134|-0.3954672900820824|0.4412788280392937|0.5797667816865919|0.0350039005279541|0.9974801540374756|-0.0617126040160656|0|0|0|-1|-1|3
2021-04-08 19:36:27.979 +0100|17945.13096491667|-0.429168701171875|1.079055786132812|-0.2989044189453125|17945.11100491667|2.31794324158805|1.065645039339436|-1.505790066944923|-1.5061856508255|0.9793704748153687|1.24787163734436|-0.4253783524036407|0.1034153699874878|-0.163476824760437|XArbitraryZVertical|-0.5754327574098879|-0.3913542551090942|0.4369780362774426|0.5698853609128084|0.05684883147478104|0.9978878498077393|-0.03143797814846039|0|0|0|-1|-1|3
2021-04-08 19:36:27.999 +0100|17945.15092491667|-0.2520294189453125|1.27264404296875|-0.3244781494140625|17945.13096491667|2.802685458098861|1.576326113137566|-1.487871711122764|-1.449515223503113|1.681032419204712|1.247147440910339|-0.5373575091362|0.06143498420715332|-0.2707054615020752|XArbitraryZVertical|-0.5947900645232032|-0.3826928218997883|0.4304467314595421|0.5607911219207206|0.08282940089702606|0.996563732624054|0.0004580335807986557|0|0|0|-1|-1|3
2021-04-08 19:36:28.019 +0100|17945.17088491667|-0.2208099365234375|1.148773193359375|-0.4521331787109375|17945.15092491667|3.021658821942692|1.830990714544265|-1.460636203936461|-0.9873962998390198|1.864704012870789|1.172349214553833|-0.4078574180603027|0.2246283292770386|-0.326317310333252|XArbitraryZVertical|-0.6139564692939327|-0.3704041760439111|0.421463714546576|0.5551815979276133|0.1062375828623772|0.9939385056495667|0.02828359976410866|0|0|0|-1|-1|3
2021-04-08 19:36:28.039 +0100|17945.19084591667|-0.3058013916015625|0.9023590087890625|-0.3952789306640625|17945.17088491667|3.090843318093785|1.932075451749815|-1.430459796547078|-0.6747499108314514|1.458670973777771|1.458117365837097|-0.3229397535324097|0.2454572319984436|-0.4815856218338013|XArbitraryZVertical|-0.6303057429236785|-0.356981704785599|0.4154073279848445|0.5501959606112639|0.1308474689722061|0.9901689887046814|0.04944253340363503|0|0|0|-1|-1|3
2021-04-08 19:36:28.059 +0100|17945.21080591667|-0.1780853271484375|0.9101104736328125|-0.3271484375|17945.19084591667|3.118182357863993|1.991563237381593|-1.395440331005668|-1.150020956993103|1.872284173965454|1.625507950782776|-0.4608473181724548|-0.01449549198150635|-0.4794009923934937|XArbitraryZVertical|-0.6471202634160109|-0.3418557407816165|0.410416171288423|0.5439933548812262|0.1592427343130112|0.9846644997596741|0.07125996798276901|0|0|0|-1|-1|3
2021-04-08 19:36:28.079 +0100|17945.23076591667|0.0016632080078125|1.130325317382812|-0.3472900390625|17945.21080591667|-3.128284217795625|2.06919647226567|-1.356500852485204|-1.259260177612305|2.221532583236694|1.527099847793579|-0.421667754650116|-0.1328118443489075|-0.4498605728149414|XArbitraryZVertical|-0.667243112376399|-0.3249840816670419|0.4013818597542637|0.5367166906701867|0.18678979575634|0.9771264791488647|0.101656049489975|0|0|0|-1|-1|3
2021-04-08 19:36:28.099 +0100|17945.25072591667|0.0309295654296875|1.163848876953125|-0.2349700927734375|17945.23076591667|-3.111984214640351|2.12702007326314|-1.318392188155668|-0.8900614976882935|1.907900094985962|1.593873620033264|-0.2348839044570923|0.1241534352302551|-0.4861022233963013|XArbitraryZVertical|-0.6864556862036992|-0.3077437802982337|0.391906775106429|0.5296052595882769|0.2120878249406815|0.9683148264884949|0.1318552941083908|0|0|0|-1|-1|3
2021-04-08 19:36:28.119 +0100|17945.27068591667|0.102447509765625|1.017379760742188|-0.1068115234375|17945.25072591667|-3.133973398395706|2.142119182849481|-1.283498373920314|-0.4619151949882507|1.801786065101624|1.662138700485229|-0.2132594436407089|0.2166459560394287|-0.4169434309005737|XArbitraryZVertical|-0.7019907333878718|-0.2895210923305561|0.3858576747009823|0.5239279715189284|0.2383606284856796|0.959013044834137|0.153226912021637|0|0|0|-1|-1|3
2021-04-08 19:36:28.139 +0100|17945.29064591667|0.0966949462890625|0.682220458984375|0.1044464111328125|17945.27068591667|3.116667412729818|2.146588185921189|-1.248812483723376|-0.6509665250778198|1.693742513656616|1.870531558990479|-0.1788621246814728|0.1601244211196899|-0.2813141345977783|XArbitraryZVertical|-0.7163828255211235|-0.2700905533341516|0.38075098857219|0.5185321193084799|0.2654256820678711|0.948609471321106|0.1723065227270126|0|0|0|-1|-1|3
2021-04-08 19:36:28.159 +0100|17945.31060591667|0.156494140625|0.66680908203125|0.269317626953125|17945.29064591667|3.091143299538288|2.157671275001788|-1.206950293003578|-1.069942235946655|1.806008219718933|2.078075408935547|-0.2048941552639008|-0.2024949789047241|-0.1464685499668121|XArbitraryZVertical|-0.7322541438032889|-0.2496753728939694|0.3761823192455908|0.5098558548226362|0.2963252365589142|0.934535026550293|0.1970678418874741|0|0|0|-1|-1|3
2021-04-08 19:36:28.179 +0100|17945.33056591667|0.2964019775390625|1.092727661132812|0.3615264892578125|17945.31060591667|3.078408350237941|2.184352513948161|-1.159801110650705|-1.075605750083923|2.041203498840332|2.028704881668091|-0.1943271160125732|-0.310644805431366|-0.01607656478881836|XArbitraryZVertical|-0.750119543025602|-0.228776941630327|0.3697069897875381|0.4982957745634628|0.3266517221927643|0.9167236685752869|0.2300364375114441|0|0|0|-1|-1|3
2021-04-08 19:36:28.199 +0100|17945.35052591667|0.4458770751953125|1.236801147460938|0.399322509765625|17945.33056591667|3.051532586177102|2.202030377358303|-1.117291454389522|-0.3376873135566711|2.223520755767822|2.116111993789673|-0.08150705695152283|0.1013116240501404|0.0793241560459137|XArbitraryZVertical|-0.7661451692580951|-0.2056642528145748|0.3622064817713432|0.4894184910327407|0.3536937236785889|0.8989170789718628|0.2585524022579193|0|0|0|-1|-1|3
2021-04-08 19:36:28.219 +0100|17945.37048591667|0.50054931640625|0.8347320556640625|0.3311767578125|17945.35052591667|2.990627622126507|2.193765142955074|-1.084044918825322|0.524971067905426|2.320152521133423|2.260943412780762|0.02341604232788086|0.3838276863098145|0.13748899102211|XArbitraryZVertical|-0.7778364505127512|-0.1772760235241626|0.3552313070765502|0.4871905167542924|0.3798893094062805|0.8838570713996887|0.2729126513004303|0|0|0|-1|-1|3
2021-04-08 19:36:28.239 +0100|17945.39044591667|0.5029449462890625|0.7104644775390625|0.4466400146484375|17945.37048591667|2.906339846801553|2.166680682867186|-1.054927147989878|0.9568191170692444|2.374477863311768|2.388203620910645|0.09331294894218445|0.04403018951416016|0.0523083508014679|XArbitraryZVertical|-0.7858359658434956|-0.1445324266765989|0.3497342880119969|0.4891405048238804|0.408274233341217|0.869864284992218|0.2768555879592896|0|0|0|-1|-1|3
2021-04-08 19:36:28.259 +0100|17945.41040591667|0.6029815673828125|0.77642822265625|0.608978271484375|17945.39044591667|2.824651617275543|2.147392645323575|-1.026418383934656|0.9462538361549377|2.778164386749268|2.263820886611938|0.05523920059204102|-0.148845911026001|0.1152766942977905|XArbitraryZVertical|-0.7930883045082874|-0.1103628126190715|0.3421359482343643|0.491705296536601|0.4341560900211334|0.8554496169090271|0.28233802318573|0|0|0|-1|-1|3
2021-04-08 19:36:28.279 +0100|17945.43036591667|0.6885223388671875|0.7547149658203125|0.7320556640625|17945.41040591667|2.743118066655924|2.136155067421196|-0.9997442508786729|1.326363563537598|3.015650272369385|2.305310726165771|0.1349123418331146|-0.08374923467636108|0.2746598124504089|XArbitraryZVertical|-0.7995522318245831|-0.07415594298758502|0.3313633242047029|0.4953945623330596|0.4564116597175598|0.8413327932357788|0.2895657420158386|0|0|0|-1|-1|3
2021-04-08 19:36:28.299 +0100|17945.45032591667|0.7683563232421875|0.6998291015625|0.6652069091796875|17945.43036591667|2.657702118394754|2.128472651311161|-0.9746759850775005|1.270690679550171|3.31515645980835|2.328204393386841|0.1836015582084656|-0.04002946615219116|0.4281455874443054|XArbitraryZVertical|-0.8045513631001192|-0.03546327943631838|0.3180982045371993|0.5002529631952679|0.4763714671134949|0.8275200128555298|0.2971210777759552|0|0|0|-1|-1|3
2021-04-08 19:36:28.319 +0100|17945.47028591667|0.8090972900390625|0.8447723388671875|0.5850372314453125|17945.45032591667|2.581808440794025|2.133581814595785|-0.94838344241831|1.037569880485535|3.423614263534546|2.234529495239258|0.2655076384544373|-0.1137287020683289|0.3769498765468597|XArbitraryZVertical|-0.8096398409131328|0.003273634121470637|0.3024738617686255|0.502973331172291|0.4930828809738159|0.8124741315841675|0.3110547661781311|0|0|0|-1|-1|3
2021-04-08 19:36:28.338 +0100|17945.49024591667|0.8596649169921875|1.05609130859375|0.5192108154296875|17945.47028591667|2.513557160964694|2.148335992417925|-0.9216192198385106|0.9939746856689453|3.551316022872925|2.223146200180054|0.2926057577133179|-0.003292500972747803|0.2705955505371094|XArbitraryZVertical|-0.8144230168618489|0.04173078120419382|0.2851378132227937|0.5036569221701116|0.5064815878868103|0.796581506729126|0.3300526142120361|0|0|0|-1|-1|3
2021-04-08 19:36:28.359 +0100|17945.51020591667|0.9351654052734375|1.367950439453125|0.54119873046875|17945.49024591667|2.442206246542228|2.163720817151807|-0.8977967422281979|1.419812560081482|3.600053787231445|2.156991958618164|0.331343948841095|0.2090569138526917|0.1841444373130798|XArbitraryZVertical|-0.8170644345717671|0.08100523366720261|0.2662801586782893|0.5049146557547944|0.5169375538825989|0.7819554209709167|0.3483122885227203|0|0|0|-1|-1|3
2021-04-08 19:36:28.378 +0100|17945.53016591667|0.98822021484375|1.303192138671875|0.400146484375|17945.51020591667|2.364480137758759|2.175003049126232|-0.8820610140126462|1.477770090103149|3.529657125473022|1.931646823883057|0.3790925145149231|0.5518476963043213|0.1816420257091522|XArbitraryZVertical|-0.8162024015115491|0.119782600895376|0.245708464535157|0.5090119894228333|0.5230372548103333|0.7720504403114319|0.361068457365036|0|0|0|-1|-1|3
2021-04-08 19:36:28.398 +0100|17945.55012591667|0.9893341064453125|1.396621704101562|0.2247314453125|17945.53016591667|2.289161096301433|2.183608975813213|-0.8725980596284464|1.90435802936554|3.14975905418396|1.589959144592285|0.4612268805503845|0.5104112029075623|0.04957076907157898|XArbitraryZVertical|-0.8128880495291376|0.1551902291209488|0.2252923166164773|0.5141716539803864|0.5258637070655823|0.7660016417503357|0.3697419762611389|0|0|0|-1|-1|3
2021-04-08 19:36:28.418 +0100|17945.57008591667|1.1021728515625|1.393875122070312|0.1360931396484375|17945.55012591667|2.2090502278379|2.183075097777063|-0.8715654455571442|2.421712160110474|2.975250482559204|1.474999666213989|0.4570408463478088|0.629636287689209|-0.09606495499610901|XArbitraryZVertical|-0.8060426649105683|0.1877578078154878|0.205013382573062|0.5225053239520937|0.5267079472541809|0.7653374671936035|0.3699155449867249|0|0|0|-1|-1|3
2021-04-08 19:36:28.438 +0100|17945.59004591667|1.227523803710938|1.610763549804688|-0.0912322998046875|17945.57008591667|2.124139883691405|2.175863390001033|-0.8756441173625127|2.234634160995483|2.810223340988159|1.346697688102722|0.5368688702583313|0.6726870536804199|-0.1661007702350616|XArbitraryZVertical|-0.7964342178523375|0.2187623071799178|0.1843791839186772|0.5327663179889286|0.5267901420593262|0.7679561972618103|0.3643288314342499|0|0|0|-1|-1|3
2021-04-08 19:36:28.458 +0100|17945.61000691667|1.319320678710938|2.22039794921875|-0.3975372314453125|17945.59004591667|2.042205059216256|2.16661632767164|-0.8825350688405426|2.672510385513306|2.525719404220581|1.092679023742676|0.6671873331069946|0.6998776793479919|-0.3760398924350739|XArbitraryZVertical|-0.7857055630163353|0.2467767759689748|0.1640159793399822|0.5430165776600665|0.5257443189620972|0.7723516225814819|0.3564640283584595|0|0|0|-1|-1|3
2021-04-08 19:36:28.478 +0100|17945.62996691667|1.663970947265625|2.47314453125|-1.030792236328125|17945.61000691667|1.938683676577654|2.13363252496528|-0.8973433922903938|3.569488763809204|2.310582876205444|1.301173329353333|0.7629379034042358|1.311863899230957|-0.6556367874145508|XArbitraryZVertical|-0.7690679838976964|0.2737345964898995|0.143832319919973|0.5593891279271028|0.5274819731712341|0.7816727757453918|0.3327923715114594|0|0|0|-1|-1|3
2021-04-08 19:36:28.498 +0100|17945.64992691667|2.520156860351562|2.402572631835938|-2.340667724609375|17945.62996691667|1.800982711396015|2.073158313295302|-0.9124732723379433|4.755489826202393|2.436635494232178|1.722752094268799|0.9969686269760132|1.639736652374268|-1.081684112548828|XArbitraryZVertical|-0.74481878206537|0.3041921594206042|0.1226288761896384|0.5810975702785477|0.5362032055854797|0.7910192608833313|0.2945757806301117|0|0|0|-1|-1|3
2021-04-08 19:36:28.518 +0100|17945.66988691667|2.918685913085938|1.177947998046875|-4.206771850585938|17945.64992691667|1.636658413833776|1.985444460953364|-0.92217100514193|4.637467861175537|1.421550631523132|1.878185153007507|1.729325890541077|1.777639865875244|-2.160543441772461|XArbitraryZVertical|-0.7136951493126856|0.3351474936955181|0.1025584102560075|0.6064629778429701|0.552899956703186|0.7969149947166443|0.2433692216873169|0|0|0|-1|-1|3
2021-04-08 19:36:28.538 +0100|17945.68984691667|4.299209594726562|0.666290283203125|-5.460540771484375|17945.66988691667|1.478248110168846|1.855788153198821|-0.9182721914861383|4.273521423339844|-1.853641033172607|1.758272767066956|2.348540782928467|0.734133243560791|-3.869213104248047|XArbitraryZVertical|-0.6796793986490822|0.3512721217232438|0.09989316648751946|0.6361330522622252|0.5827022790908813|0.7945536971092224|0.1707123816013336|0|0|0|-1|-1|3
2021-04-08 19:36:28.558 +0100|17945.70980691667|6.8973388671875|1.46697998046875|-1.945709228515625|17945.68984691667|1.348048694576004|1.692751119485248|-0.9183327288816279|3.042789936065674|-4.140417098999023|-0.4756497442722321|2.91774845123291|-0.1479377150535583|-5.531990051269531|XArbitraryZVertical|-0.6484723162710916|0.341195152777391|0.11145083488259|0.6713034586633627|0.6026365160942078|0.7945904731750488|0.07386095821857452|0|0|0|-1|-1|3
2021-04-08 19:36:28.578 +0100|17945.72976691667|4.543685913085938|0.5712432861328125|3.749664306640625|17945.70980691667|1.276276364290119|1.472348513595688|-0.9539244362238222|1.200064659118652|-12.25883960723877|-2.914903879165649|6.168363094329834|0.3473028540611267|-3.192163705825806|XArbitraryZVertical|-0.6285974761644358|0.276470285894758|0.1445805169187844|0.7124085611171056|0.5756855010986328|0.8156920075416565|-0.05685878917574883|0|0|0|-1|-1|3
2021-04-08 19:36:28.598 +0100|17945.74972691667|1.771438598632812|-0.8806610107421875|6.006912231445312|17945.72976691667|1.232222349348628|1.127112676273566|-1.029094881593777|-0.02015380375087261|-17.43819618225098|-4.514181137084961|4.994180679321289|0.1076606512069702|2.884202480316162|XArbitraryZVertical|-0.6082631818996302|0.1391092069831813|0.2106904279838331|0.752511947152416|0.4656731486320496|0.8568326830863953|-0.2213290631771088|0|0|0|-1|-1|3
2021-04-08 19:36:28.618 +0100|17945.76968691667|1.843231201171875|-6.444778442382812|1.017837524414062|17945.74972691667|1.079609233907372|0.6565415577471825|-1.092120633040799|-0.8477053046226501|-16.20920372009277|-4.473287582397461|1.796858787536621|-1.00961446762085|6.21220064163208|XArbitraryZVertical|-0.5633023345702983|-0.01631858354573546|0.2721454645134221|0.779975131399686|0.2811441719532013|0.8876056671142578|-0.3648483753204346|0|0|0|-1|-1|3
2021-04-08 19:36:28.638 +0100|17945.78964691667|2.554122924804688|3.316619873046875|6.624847412109375|17945.76968691667|0.9777193533554602|0.2238432495873179|-1.246252421746679|-17.97765922546387|-14.01014518737793|-7.558834552764893|1.977739334106445|-6.413234710693359|2.557077407836914|XArbitraryZVertical|-0.5545912337156407|-0.192270331340191|0.3214280491829299|0.7430644931131379|0.07078384608030319|0.9477962851524353|-0.3109213709831238|0|0|0|-1|-1|3
2021-04-08 19:36:28.658 +0100|17945.80960691667|5.910293579101562|7.5390625|-2.086318969726562|17945.78964691667|-1.498073211842389|-2.360337563345247|-1.207666183040917|-23.64517021179199|-5.683302879333496|-24.46969413757324|2.551637172698975|-0.4784908294677734|5.355401515960693|XArbitraryZVertical|-0.6766308886457055|-0.4102107204396917|0.1710740068725806|0.5870532972571549|-0.2501232028007507|0.9347895979881287|0.2522043883800507|0|0|0|-1|-1|3
2021-04-08 19:36:28.678 +0100|17945.82956691667|4.376693725585938|-6.835433959960938|0.117584228515625|17945.80960691667|-1.476363549413906|-2.401293349409127|-0.6847466179299063|-4.61729621887207|0.9318539500236511|-10.46009254455566|5.733429431915283|9.00372314453125|1.409569621086121|XArbitraryZVertical|-0.6807911852759028|-0.5678437453497771|0.002202029921508611|0.4626792789747384|-0.5224608182907104|0.6324767470359802|0.5718463063240051|0|0|0|-1|-1|3
2021-04-08 19:36:28.698 +0100|17945.84952691667|0.8791961669921875|-1.44549560546875|1.55413818359375|17945.82956691667|-1.339291417300901|-2.381428494610464|-0.6370592848803341|8.854947090148926|-5.939963340759277|-3.184104681015015|5.845175266265869|-4.087693214416504|-1.020295381546021|XArbitraryZVertical|-0.6385096927467533|-0.6193457521586909|0.009318731739568395|0.4567597800123077|-0.5538842678070068|0.5948341488838196|0.582567572593689|0|0|0|-1|-1|3
2021-04-08 19:36:28.718 +0100|17945.86948691667|-0.5182952880859375|-0.1242218017578125|2.495925903320312|17945.84952691667|-1.242237129110219|-2.433287692180427|-0.7014396970475368|5.95867395401001|-4.867881774902344|1.929210424423218|2.224074840545654|-3.650185823440552|1.232364892959595|XArbitraryZVertical|-0.6094990559938519|-0.6469886051553138|0.0725337018007262|0.4523888902859487|-0.4969624578952789|0.6453181505203247|0.5801666975021362|0|0|0|-1|-1|3
2021-04-08 19:36:28.738 +0100|17945.88944691667|-0.8253936767578125|-1.193191528320312|2.183990478515625|17945.86948691667|-1.180041489132206|-2.467293407492893|-0.8552873044604881|7.852384090423584|-3.029907703399658|4.547075748443604|-0.01893690228462219|-0.7752214670181274|1.711399674415588|XArbitraryZVertical|-0.5917676678299124|-0.6372026929889453|0.1577336758442717|0.4678717709256701|-0.4095749258995056|0.7547594308853149|0.5124325156211853|0|0|0|-1|-1|3
2021-04-08 19:36:28.757 +0100|17945.90940691667|-0.2029571533203125|-0.017730712890625|1.19952392578125|17945.88944691667|-1.12279524161573|-2.436672378429158|-1.047907328416499|9.051780700683594|1.568952560424805|4.708155155181885|-0.5388224124908447|-1.871720671653748|2.106911659240723|XArbitraryZVertical|-0.5788159359969309|-0.5959478910070052|0.2383569713562777|0.5029953127014147|-0.3235883712768555|0.8663800954818726|0.3803635537624359|0|0|0|-1|-1|3
2021-04-08 19:36:28.778 +0100|17945.92936691667|-0.219879150390625|0.6724853515625|0.8746490478515625|17945.90940691667|-1.009829222297371|-2.29397974523311|-1.224869221267943|6.827477931976318|1.547950863838196|4.038649559020996|-0.04984429478645325|-1.324016213417053|1.118905305862427|XArbitraryZVertical|-0.5676998028051968|-0.5384337052786463|0.295843741993182|0.5479806552334892|-0.2542016506195068|0.9407615065574646|0.2243878394365311|0|0|0|-1|-1|3
2021-04-08 19:36:28.798 +0100|17945.94932691667|-0.370147705078125|0.969482421875|0.7446441650390625|17945.92936691667|-0.817353489589881|-2.089974669917996|-1.34501641788017|4.721795558929443|0.6297401785850525|2.64414381980896|0.01489441096782684|-0.3893535733222961|0.8030185699462891|XArbitraryZVertical|-0.5557923999581095|-0.4966211291302025|0.3384007624639465|0.574410400829622|-0.1943675428628922|0.9746198058128357|0.1110754758119583|0|0|0|-1|-1|3
2021-04-08 19:36:28.818 +0100|17945.96928825|-0.48358154296875|0.70587158203125|0.5696563720703125|17945.94932691667|-0.537187765028738|-1.802702239744166|-1.413160685294641|2.732789993286133|0.5798516273498535|1.695858716964722|-0.1817503571510315|-0.05721157789230347|0.7949295043945312|XArbitraryZVertical|-0.5467161304448024|-0.4681256614605734|0.3656017262786126|0.5901656025511022|-0.15278260409832|0.9876012206077576|0.03608032315969467|0|0|0|-1|-1|3
2021-04-08 19:36:28.837 +0100|17945.98924825|-0.4272003173828125|0.9859466552734375|0.31744384765625|17945.96928825|-0.2941094056380621|-1.549937248607017|-1.44464568396608|1.240869641304016|0.6556686758995056|1.08698296546936|-0.3261592984199524|-0.1856415867805481|0.5622260570526123|XArbitraryZVertical|-0.544161055870286|-0.4500851284125145|0.3790532384951733|0.5980224937829249|-0.1257900446653366|0.9920535683631897|-0.002624244894832373|0|0|0|-1|-1|3
2021-04-08 19:36:28.857 +0100|17946.00920825|-0.4162139892578125|1.38140869140625|-0.063934326171875|17945.98924825|-0.09705078104021486|-1.339145102043574|-1.460312307110813|0.8519513607025146|0.7859129309654236|0.7192433476448059|-0.3513931930065155|-0.1860870718955994|0.4206094741821289|XArbitraryZVertical|-0.5447900318272246|-0.4365165282692423|0.3851399574219037|0.6035930303660085|-0.1073158457875252|0.993902862071991|-0.02531428262591362|0|0|0|-1|-1|3
2021-04-08 19:36:28.877 +0100|17946.02916825|-0.517333984375|0.9698944091796875|-0.228851318359375|17946.00920825|0.05119809660873417|-1.181689854321014|-1.464850343548408|0.798972487449646|0.225909560918808|0.2584606409072876|-0.3035537600517273|0.372779369354248|0.06445550918579102|XArbitraryZVertical|-0.5445304960082018|-0.4282851209449279|0.3881775167223668|0.6077636307026516|-0.09784325212240219|0.994392991065979|-0.04011678695678711|0|0|0|-1|-1|3
2021-04-08 19:36:28.897 +0100|17946.04912825|-0.534149169921875|0.6053924560546875|-0.1415557861328125|17946.02916825|0.1749319967807782|-1.057611150010422|-1.465928667253556|0.3763198852539062|-0.08686075359582901|0.4702621698379517|-0.3933187127113342|0.1401678919792175|-0.1558370590209961|XArbitraryZVertical|-0.5427253352855266|-0.4239733737921574|0.3923131325093249|0.6097428445775327|-0.09119290858507156|0.9945064187049866|-0.05139157921075821|0|0|0|-1|-1|3
2021-04-08 19:36:28.917 +0100|17946.06908825|-0.395660400390625|0.77593994140625|0.0769195556640625|17946.04912825|0.2761594217708068|-0.9568766277225839|-1.472463412831846|-0.1214735507965088|0.3156086802482605|0.5062157511711121|-0.4656180441379547|-0.3778898119926453|-0.1302857398986816|XArbitraryZVertical|-0.5434702930002413|-0.419954125132097|0.3967515164099089|0.6089885224992297|-0.08024916052818298|0.9951692223548889|-0.05655714496970177|0|0|0|-1|-1|3
2021-04-08 19:36:28.937 +0100|17946.08904825|-0.24798583984375|0.84014892578125|0.1556396484375|17946.06908825|0.2060625246400999|-1.014162411960935|-1.481764228136604|-0.6450693011283875|0.7881892919540405|0.01551385596394539|-0.3790346682071686|-0.2671419382095337|0.08564406633377075|XArbitraryZVertical|-0.5500254269343754|-0.4171131381748754|0.3923702523604501|0.6078934288512678|-0.07549344003200531|0.9960392713546753|-0.04697731882333755|0|0|0|-1|-1|3
2021-04-08 19:36:28.957 +0100|17946.10900825|-0.380096435546875|0.66583251953125|0.1243133544921875|17946.08904825|0.04887575081773027|-1.159086149683611|-1.491500591343434|-0.8239728808403015|0.1837373375892639|0.2769894897937775|-0.1807003617286682|-0.1223305463790894|0.191078782081604|XArbitraryZVertical|-0.5577294053010994|-0.4160385276664887|0.3864947025166677|0.6053691627092099|-0.07259486615657806|0.996857762336731|-0.03169970959424973|0|0|0|-1|-1|3
2021-04-08 19:36:28.977 +0100|17946.12896825|-0.578704833984375|0.5689544677734375|-0.099212646484375|17946.10900825|-0.1071090520167088|-1.320123812116696|-1.507495876070645|-1.116792917251587|-0.6597363948822021|0.8786048889160156|-0.2663070559501648|-0.3155629634857178|0.1453012228012085|XArbitraryZVertical|-0.5637822260451573|-0.4174967797703632|0.3882019271371224|0.597616468977955|-0.06128320842981339|0.9979972243309021|-0.0156920813024044|0|0|0|-1|-1|3
2021-04-08 19:36:28.997 +0100|17946.14892825|-0.672088623046875|0.607086181640625|0.0224151611328125|17946.12896825|-0.7151947626472916|-1.94336948429067|-1.52787436698957|-1.870784997940063|-0.6471896767616272|1.232600450515747|-0.5082491636276245|-0.4018498659133911|-0.1149694919586182|XArbitraryZVertical|-0.5741557241371431|-0.4220846536564805|0.3926152785446059|0.581414761097393|-0.03996787592768669|0.9990789890289307|0.01562050078064203|0|0|0|-1|-1|3
2021-04-08 19:36:29.017 +0100|17946.16888825|-0.581207275390625|1.07574462890625|-0.0703887939453125|17946.14892825|-1.625653030557215|-2.859792855796053|-1.508986484036528|-2.219938993453979|0.1026351973414421|1.054777383804321|-0.6525439023971558|-0.4220861196517944|-0.07601594179868698|XArbitraryZVertical|-0.5900265679850114|-0.4260729530161044|0.3918701274515284|0.5628219905568961|-0.01717888191342354|0.998090386390686|0.05933902412652969|0|0|0|-1|-1|3
2021-04-08 19:36:29.037 +0100|17946.18884825|-0.567779541015625|1.134918212890625|-0.118988037109375|17946.16888825|-1.973388356813057|3.085779305719585|-1.468769738049525|-2.135897636413574|0.4518008828163147|1.390130639076233|-0.6118821501731873|-0.04552000761032104|-0.1054296568036079|XArbitraryZVertical|-0.6086324142709109|-0.4247501166895006|0.3866773350903908|0.5473889484372032|0.005681680515408516|0.994799792766571|0.1016921550035477|0|0|0|-1|-1|3
2021-04-08 19:36:29.057 +0100|17946.20880825|-0.432708740234375|0.8850250244140625|-0.316009521484375|17946.18884825|-2.175194349841472|2.894386121500821|-1.426282004287206|-1.684694886207581|0.6511464715003967|1.584551572799683|-0.6111204624176025|0.1712972521781921|-0.2669980823993683|XArbitraryZVertical|-0.627139202113604|-0.4201350142509592|0.3842070357087304|0.5315712259688575|0.03523921966552734|0.989575982093811|0.1396340131759644|0|0|0|-1|-1|3
2021-04-08 19:36:29.077 +0100|17946.22876825|-0.3479156494140625|0.9927978515625|-0.1067352294921875|17946.20880825|-2.310043933382898|2.776250072002561|-1.379639424625122|-1.870445847511292|0.7702787518501282|1.944455504417419|-0.5188523530960083|-0.02330440282821655|-0.4184064865112305|XArbitraryZVertical|-0.6472101408891612|-0.4121250106060832|0.3809488529843733|0.5158973449193837|0.06787952780723572|0.9817850589752197|0.1774559766054153|0|0|0|-1|-1|3
2021-04-08 19:36:29.097 +0100|17946.24872825|-0.2576751708984375|1.365554809570312|-0.0975189208984375|17946.22876825|-2.391546352943032|2.715771104083055|-1.326245256789743|-2.352290868759155|1.08098316192627|1.690132617950439|-0.475714236497879|-0.05963224172592163|-0.3330173492431641|XArbitraryZVertical|-0.6690982036391835|-0.4031844055707685|0.3753433524390966|0.4988661914735805|0.1000129878520966|0.9702461361885071|0.2205001413822174|0|0|0|-1|-1|3
2021-04-08 19:36:29.117 +0100|17946.26868825|-0.30126953125|1.247222900390625|0.0019989013671875|17946.24872825|-2.444042930392201|2.685449927832228|-1.275376347541815|-1.828435659408569|0.8350077867507935|1.866571187973022|-0.3980502486228943|0.3281709551811218|-0.4056007862091064|XArbitraryZVertical|-0.6895439585499749|-0.3939759101191472|0.3689141965129401|0.4829230481434996|0.128245010972023|0.9566799402236938|0.2613757848739624|0|0|0|-1|-1|3
2021-04-08 19:36:29.137 +0100|17946.28864925|-0.1822052001953125|1.111419677734375|0.124053955078125|17946.26868825|-2.514873858471415|2.634187073372502|-1.230500174310332|-1.073394298553467|0.9686598181724548|2.118939876556396|-0.4530892968177795|0.3687148094177246|-0.3457300364971161|XArbitraryZVertical|-0.70733993493111|-0.3814809103255556|0.3672036076421608|0.4682992542930058|0.162181094288826|0.9426558613777161|0.2917149364948273|0|0|0|-1|-1|3
2021-04-08 19:36:29.157 +0100|17946.30860925|-0.0587005615234375|0.970794677734375|0.18927001953125|17946.28864925|-2.595966507006505|2.58386692104426|-1.192231503986582|-0.8408040404319763|1.470361828804016|2.334857702255249|-0.4267621040344238|0.1959410309791565|-0.1921044886112213|XArbitraryZVertical|-0.7244926527701412|-0.363181509655189|0.3647912925068823|0.4584070717677797|0.1956072747707367|0.9291960000991821|0.3135808110237122|0|0|0|-1|-1|3
2021-04-08 19:36:29.177 +0100|17946.32856925|0.032379150390625|0.8944091796875|0.18548583984375|17946.30860925|-2.676814599379691|2.536808361384086|-1.151542501557968|-0.7212162017822266|1.312756538391113|2.547623634338379|-0.3095530271530151|0.1169106364250183|-0.1578401625156403|XArbitraryZVertical|-0.7418474225493089|-0.34219760863739|0.3627820776862579|0.4482772383862318|0.2314590960741043|0.913392961025238|0.3348736166954041|0|0|0|-1|-1|3
2021-04-08 19:36:29.197 +0100|17946.34852925|0.1808624267578125|1.028640747070312|0.164703369140625|17946.32856925|-2.764484530228263|2.485386075709582|-1.112757569447123|-0.2304823398590088|1.513294696807861|2.745200634002686|-0.2698934972286224|-0.02086901664733887|-0.1579841673374176|XArbitraryZVertical|-0.7577275203600118|-0.3178448836452307|0.3625030971037629|0.4397899879981117|0.2697871625423431|0.8969214558601379|0.3503527343273163|0|0|0|-1|-1|3
2021-04-08 19:36:29.217 +0100|17946.36848925|0.38616943359375|1.024124145507812|0.0905609130859375|17946.34852925|-2.861240277314166|2.431869290003446|-1.078092995109661|0.3462479114532471|1.800166249275208|2.875864505767822|-0.170712023973465|0.1167451143264771|-0.2026538550853729|XArbitraryZVertical|-0.7719152318153741|-0.2890431166751787|0.3625166354632266|0.4349515816264519|0.3082247078418732|0.8810573816299438|0.358798086643219|0|0|0|-1|-1|3
2021-04-08 19:36:29.237 +0100|17946.38844925|0.5283660888671875|0.8892974853515625|0.162994384765625|17946.38844925|-3.087119687783714|2.311010590359317|-1.024726561648413|1.285305380821228|1.911905169487|2.979779243469238|0.1166405975818634|0.090129554271698|-0.1944534778594971|XArbitraryZVertical|-0.7918202976378793|-0.2194348972372521|0.3637333809628425|0.4388247080211938|0.3834360241889954|0.8545722365379333|0.3502621054649353|0|0|0|-1|-1|3
2021-04-08 19:36:29.257 +0100|17946.40840925|0.64996337890625|0.8178863525390625|0.28118896484375||||||||||||||||||||||||3
2021-04-08 19:36:29.277 +0100|17946.42836925|0.72723388671875|0.806915283203125|0.35223388671875|17946.40840925|3.085937535695191|2.257766901684413|-0.9978184971279865|1.151714086532593|2.063266754150391|2.960679054260254|0.1823828220367432|-0.03737306594848633|-0.07253512740135193|XArbitraryZVertical|-0.7991363508445094|-0.1824616351115463|0.3633594482403965|0.4427855106229101|0.4191647469997406|0.8402903079986572|0.3438223004341125|0|0|0|-1|-1|3
2021-04-08 19:36:29.297 +0100|17946.44832925|0.7891845703125|0.8832244873046875|0.4590301513671875|17946.42836925|2.988382406768992|2.217159458152636|-0.9642375247206617|1.0898118019104|2.012000322341919|2.97445011138916|0.2568903565406799|-0.02741003036499023|-0.0184999406337738|XArbitraryZVertical|-0.8065394258150218|-0.1454622227457876|0.3621844062913477|0.4440243035320603|0.4550544917583466|0.8216145038604736|0.3433302044868469|0|0|0|-1|-1|3
2021-04-08 19:36:29.316 +0100|17946.46828925|0.8628997802734375|1.120574951171875|0.54730224609375|17946.44832925|2.897003607329176|2.185171224072006|-0.9304947806530836|1.385035157203674|2.215123176574707|2.862685918807983|0.291446179151535|0.04595381021499634|0.08161970973014832|XArbitraryZVertical|-0.8127142339960621|-0.1081266619061166|0.359615902034975|0.4455117647977406|0.4881865382194519|0.8019156455993652|0.3443916141986847|0|0|0|-1|-1|3
2021-04-08 19:36:29.337 +0100|17946.48824925|0.7899932861328125|0.7823944091796875|0.544525146484375|17946.46828925|2.804615998761347|2.156689406480306|-0.902229165147952|1.511316657066345|2.230628490447998|2.73560619354248|0.3342271447181702|0.3159206509590149|0.190745085477829|XArbitraryZVertical|-0.8163602077063681|-0.0702177095361099|0.3550440261207813|0.4500769819365034|0.5164808630943298|0.7847106456756592|0.3427490293979645|0|0|0|-1|-1|3
2021-04-08 19:36:29.356 +0100|17946.50820925|0.757781982421875|0.6732330322265625|0.556060791015625|17946.48824925|2.720517384021165|2.136504634693029|-0.8715065579841511|1.263478994369507|2.395050287246704|2.669057607650757|0.2779389619827271|0.1093948483467102|0.1926567256450653|XArbitraryZVertical|-0.8194110784500146|-0.03278274411411979|0.3497001789333476|0.4529907481084634|0.5433958172798157|0.7652995586395264|0.3450184464454651|0|0|0|-1|-1|3
2021-04-08 19:36:29.377 +0100|17946.52816925|0.834747314453125|0.9753875732421875|0.4889068603515625|17946.50820925|2.652174056249751|2.136936925110932|-0.8383783077415318|0.8712832927703857|2.83069896697998|2.511958360671997|0.1946756839752197|-0.0828392505645752|0.1937853991985321|XArbitraryZVertical|-0.8242059626843924|0.003831362837321753|0.3402508498111206|0.4526580761908698|0.5643421411514282|0.743559718132019|0.3586603105068207|0|0|0|-1|-1|3
2021-04-08 19:36:29.396 +0100|17946.54812925|0.8856048583984375|1.082443237304688|0.513641357421875|17946.52816925|2.592716337192524|2.151392696367489|-0.8073040593778419|0.8796414732933044|2.956278800964355|2.292470216751099|0.2383372783660889|0.1861739754676819|0.124586284160614|XArbitraryZVertical|-0.8294964428588201|0.03966584992901748|0.3269207278673982|0.4510934803868462|0.5781451463699341|0.7224256992340088|0.3792754709720612|0|0|0|-1|-1|3
2021-04-08 19:36:29.416 +0100|17946.56809025|0.813201904296875|1.0367431640625|0.5186614990234375|17946.54812925|2.538275506244059|2.170531641638785|-0.7821421633320433|0.8783740997314453|2.783807754516602|1.912222862243652|0.2929362058639526|0.3848443031311035|0.1117722392082214|XArbitraryZVertical|-0.8335844117941544|0.07307350306658116|0.3118009289795344|0.4500860734594487|0.5856035351753235|0.7048007249832153|0.4004054069519043|0|0|0|-1|-1|3
2021-04-08 19:36:29.436 +0100|17946.58805025|0.75677490234375|0.9287872314453125|0.4888916015625|17946.56809025|2.48909324740673|2.188732415575736|-0.7653245188886186|0.9687141180038452|2.496265411376953|1.557416081428528|0.2485964298248291|0.3520134091377258|0.09710320830345154|XArbitraryZVertical|-0.8357630984316146|0.1019953280682104|0.2966562782947766|0.4506577130312063|0.5877987146377563|0.6927710771560669|0.4178059995174408|0|0|0|-1|-1|3
2021-04-08 19:36:29.456 +0100|17946.60801025|0.7772064208984375|1.172515869140625|0.4716644287109375|17946.58805025|2.44395331794526|2.206270491492889|-0.7516268842708792|0.9093812704086304|2.383223295211792|1.445967555046082|0.1779056787490845|0.259676456451416|0.07224905490875244|XArbitraryZVertical|-0.8368745135898087|0.1283045680701551|0.2821076455595216|0.4512143801177038|0.5879631042480469|0.6828282475471497|0.4336420297622681|0|0|0|-1|-1|3
2021-04-08 19:36:29.476 +0100|17946.62797025|0.9398345947265625|1.812576293945312|0.3926544189453125|17946.60801025|2.400648683834797|2.224842119382008|-0.7430306487605227|1.252574324607849|2.444753170013428|1.15269947052002|0.168544590473175|0.3716794848442078|0.03876158595085144|XArbitraryZVertical|-0.8370632138065225|0.1527925305176459|0.2664637376873958|0.4527436969271933|0.5844457149505615|0.6765228509902954|0.4480407536029816|0|0|0|-1|-1|3
2021-04-08 19:36:29.496 +0100|17946.64793025|1.112442016601562|2.286697387695312|0.21380615234375|17946.62797025|2.349974747355052|2.238879994856164|-0.7470111380554286|1.923027873039246|2.42063570022583|0.8704960346221924|0.3197866082191467|0.9726200699806213|-0.04096871614456177|XArbitraryZVertical|-0.8344026133709463|0.176172271220057|0.2481210788288383|0.4595341010003992|0.5759800672531128|0.6794487833976746|0.4545287787914276|0|0|0|-1|-1|3
2021-04-08 19:36:29.516 +0100|17946.66789025|1.291885375976562|3.102188110351562|-0.09783935546875|17946.64793025|2.282243763099931|2.239788689711966|-0.761863390477198|3.163559198379517|2.284598112106323|1.100204348564148|0.509712815284729|1.484762668609619|-0.1924710273742676|XArbitraryZVertical|-0.8270798827664149|0.2007751420829207|0.2283710848056958|0.4727314683243461|0.5675877332687378|0.6902709007263184|0.4487435817718506|0|0|0|-1|-1|3
2021-04-08 19:36:29.536 +0100|17946.68785025|1.7808837890625|3.913375854492188|-1.05718994140625|17946.66789025|2.166215479088446|2.202031681973128|-0.7931486357248136|5.32208776473999|2.221735954284668|1.505281567573547|0.6666567921638489|2.167942523956299|-0.4175708591938019|XArbitraryZVertical|-0.8085158883192963|0.230923439546828|0.2074892454617811|0.4999247214663235|0.5664053559303284|0.7125658988952637|0.4140471518039703|0|0|0|-1|-1|3
2021-04-08 19:36:29.556 +0100|17946.70781025|2.5831298828125|3.374099731445312|-2.498733520507812|17946.68785025|1.973629683887093|2.105961835933927|-0.8395094287308035|7.944758415222168|2.235495328903198|1.870203733444214|1.059165120124817|2.989266157150269|-1.168308734893799|XArbitraryZVertical|-0.7731936739896529|0.2691881946456348|0.1818647050239308|0.5446418432136493|0.5744555592536926|0.7443155646324158|0.340581476688385|0|0|0|-1|-1|3
2021-04-08 19:36:29.576 +0100|17946.72777025|3.568893432617188|1.222015380859375|-4.498504638671875|17946.70781025|1.709968401348149|1.937521537186021|-0.8806509511731838|9.363324165344238|0.4732496440410614|1.841968417167664|1.78167462348938|2.891688823699951|-2.281620979309082|XArbitraryZVertical|-0.7209806339233165|0.3071247313173009|0.1560319914300193|0.6012616677585749|0.5943167209625244|0.771153450012207|0.2282773554325104|0|0|0|-1|-1|3
2021-04-08 19:36:29.596 +0100|17946.74773025|6.040771484375|-1.561492919921875|-3.478347778320312|17946.72777025|1.411601420341475|1.6720958343875|-0.8969784716985182|8.056689262390137|-4.044665336608887|1.312975406646729|2.544278383255005|1.356769561767578|-4.072254657745361|XArbitraryZVertical|-0.6549357484696329|0.3203268324284644|0.1469759563845707|0.6684669540351128|0.6207754015922546|0.7814451456069946|0.06310022622346878|0|0|0|-1|-1|3
2021-04-08 19:36:29.616 +0100|17946.76769025|5.355636596679688|-0.052520751953125|2.117095947265625|17946.74773025|1.229384860603156|1.415631149933912|-0.9048763528524763|2.091838836669922|-8.545242309570312|-2.444708585739136|4.896596431732178|-2.317842483520508|-4.212447166442871|XArbitraryZVertical|-0.6085815971253477|0.2861666254263555|0.1618832950699912|0.7221710043150373|0.610360860824585|0.7863487601280212|-0.09547420591115952|0|0|0|-1|-1|3
2021-04-08 19:36:29.636 +0100|17946.78765025|1.930206298828125|0.148895263671875|6.80572509765625|17946.76769025|1.220908665994894|1.165659015269608|-0.9860864722353678|-3.021147012710571|-15.13849639892578|-4.99198055267334|5.490557193756104|-0.9645785689353943|0.7997514605522156|XArbitraryZVertical|-0.6017240286346522|0.1707411616755633|0.2081460902587325|0.7519647183414213|0.5072756409645081|0.8338722586631775|-0.2175512909889221|0|0|0|-1|-1|3
2021-04-08 19:36:29.656 +0100|17946.80761025|2.267242431640625|-3.19830322265625|4.263107299804688|17946.78765025|1.124983127321997|0.7746543435132078|-1.113683063152151|0.4438115060329437|-15.17083358764648|-7.87689208984375|2.043012857437134|-0.6179566979408264|6.295618534088135|XArbitraryZVertical|-0.5849638225181015|0.01027797727120496|0.250323779754863|0.7713946853402193|0.3087174594402313|0.8973303437232971|-0.3154233694076538|0|0|0|-1|-1|3
2021-04-08 19:36:29.676 +0100|17946.82757025|2.987701416015625|-0.47479248046875|2.012054443359375|17946.80761025|0.964207077251839|0.3082996209560437|-1.251603438445535|-11.57389259338379|-18.38526344299316|-4.694816589355469|2.063151836395264|-2.96650218963623|6.366114616394043|XArbitraryZVertical|-0.5705280258936924|-0.1580982967737662|0.2916397803550175|0.7512983194620091|0.09521936625242233|0.9494889974594116|-0.299005389213562|0|0|0|-1|-1|3
2021-04-08 19:36:29.696 +0100|17946.84753125|3.924652099609375|8.071044921875|2.265899658203125|17946.82757025|-1.453828635417955|-2.318636581455597|-1.322279265963302|-30.0832633972168|-1.745312571525574|-19.36604499816895|2.859670162200928|-3.775339126586914|-0.03117741644382477|XArbitraryZVertical|-0.6642633415725403|-0.3773461049248239|0.210717546751061|0.6098871482929946|-0.1803331971168518|0.9692782163619995|0.1672717332839966|0|0|0|-1|-1|3
2021-04-08 19:36:29.716 +0100|17946.86749125|4.004791259765625|0.531005859375|1.475082397460938|17946.84753125|-1.426339226388787|-2.350198129673758|-0.7600562463047502|-13.7080659866333|-2.811599969863892|-15.21299934387207|3.401468276977539|4.725130558013916|3.310841083526611|XArbitraryZVertical|-0.668746318025304|-0.5545193687346487|0.02468175027274232|0.4946488514213278|-0.5155730843544006|0.6889622211456299|0.5094267129898071|0|0|0|-1|-1|3
2021-04-08 19:36:29.736 +0100|17946.88745125|1.056533813476562|-8.250411987304688|4.715682983398438|17946.86749125|-1.27692172689762|-2.253590932231171|-0.7070600367141134|9.067647933959961|-2.561372756958008|1.439592599868774|5.387698173522949|2.759669780731201|-1.827116966247559|XArbitraryZVertical|-0.6243153455980215|-0.5916784449175604|0.01089036417646245|0.5099299722056266|-0.5898311138153076|0.6496013998985291|0.4797060787677765|0|0|0|-1|-1|3
2021-04-08 19:36:29.756 +0100|17946.90741125|-0.4022674560546875|-1.287689208984375|2.484909057617188|17946.88745125|-0.9660523523834756|-2.186832644445149|-0.8922519551915274|7.065532684326172|-5.378911018371582|0.3199548721313477|2.139936923980713|-9.439055442810059|3.87784481048584|XArbitraryZVertical|-0.5477206033804485|-0.6175231568277562|0.1468789558663426|0.5450633652872033|-0.5122812390327454|0.7784872055053711|0.3626654148101807|0|0|0|-1|-1|3
