loggingTime(txt)|accelerometerTimestamp_sinceReboot(s)|accelerometerAccelerationX(G)|accelerometerAccelerationY(G)|accelerometerAccelerationZ(G)|motionTimestamp_sinceReboot(s)|motionYaw(rad)|motionRoll(rad)|motionPitch(rad)|motionRotationRateX(rad/s)|motionRotationRateY(rad/s)|motionRotationRateZ(rad/s)|motionUserAccelerationX(G)|motionUserAccelerationY(G)|motionUserAccelerationZ(G)|motionAttitudeReferenceFrame(txt)|motionQuaternionX(R)|motionQuaternionY(R)|motionQuaternionZ(R)|motionQuaternionW(R)|motionGravityX(G)|motionGravityY(G)|motionGravityZ(G)|motionMagneticFieldX(µT)|motionMagneticFieldY(µT)|motionMagneticFieldZ(µT)|motionHeading(°)|motionMagneticFieldCalibrationAccuracy(Z)|label
2021-04-08 20:30:26.291 +0100|20495.694843|-0.1149444580078125|-0.111297607421875|-1.01055908203125|20495.674883|0.5582412274430704|-0.205828972384264|0.02991923226430397|-0.02824883908033371|0.2825466692447662|-0.1785506159067154|-0.1018345952033997|0.1074763014912605|0.03140175342559814|XArbitraryZVertical|-0.04260483922260279|0.09464632756442996|-0.2725446736574799|-0.9565283558964648|-0.2042872309684753|-0.02991476841270924|-0.9784538149833679|0|0|0|-1|-1|3
2021-04-08 20:30:26.303 +0100|20495.714803|-0.2088470458984375|0.005767822265625|-0.958099365234375|20495.714803|0.5523376803885512|-0.2047709125451823|0.02052892733176812|-0.345479428768158|0.02682041935622692|-0.03818730264902115|-0.002602085471153259|-0.004144869744777679|0.01099050045013428|XArbitraryZVertical|-0.0376910123083957|0.09554445713023643|-0.2702201063709861|-0.9573045102685597|-0.2033000141382217|-0.02052748575806618|-0.9789012670516968|0|0|0|-1|-1|3
2021-04-08 20:30:26.305 +0100|20495.734763|-0.1655426025390625|0.046112060546875|-0.9637603759765625||||||||||||||||||||||||3
2021-04-08 20:30:26.316 +0100|20495.754723|-0.1581573486328125|0.03662109375|-0.95843505859375|20495.734763|0.5504388685236|-0.204481694067057|0.0148565891861747|-0.1739397346973419|-0.02270936965942383|-0.04190090298652649|0.02936173975467682|0.06847653537988663|0.01393991708755493|XArbitraryZVertical|-0.0348469633285978|0.09621088487548124|-0.2696018906268284|-0.9575198126377058|-0.2030372768640518|-0.01485604234039783|-0.9790583252906799|0|0|0|-1|-1|3
2021-04-08 20:30:26.336 +0100|20495.774683|-0.194183349609375|0.0037384033203125|-0.9512481689453125|20495.754723|0.5503527572652241|-0.2074413131609066|0.01170837867220274|-0.008341077715158463|-0.1667774319648743|0.0822523757815361|0.04918909072875977|0.04355431348085403|0.02092868089675903|XArbitraryZVertical|-0.03373526423876472|0.09805568503106732|-0.269668466388471|-0.957353751751883|-0.2059426307678223|-0.01170811150223017|-0.9784940481185913|0|0|0|-1|-1|3
2021-04-08 20:30:26.356 +0100|20495.794643|-0.209014892578125|-0.005401611328125|-0.9604644775390625|20495.774683|0.5529791483976683|-0.2102726253920931|0.01230140983583665|0.002582110930234194|-0.1861810684204102|0.1747685670852661|0.02241617441177368|0.0308263786137104|0.02366113662719727|XArbitraryZVertical|-0.03453113286166195|0.09928531288680688|-0.270846811896702|-0.9568658054006379|-0.2087107300758362|-0.01230109948664904|-0.9779000282287598|0|0|0|-1|-1|3
2021-04-08 20:30:26.376 +0100|20495.814603|-0.2176055908203125|0.0280303955078125|-0.965423583984375|20495.794643|0.55651562314676|-0.212140839628615|0.01167790096315256|-0.03546062856912613|-0.06222178414463997|0.1752934753894806|0.007627487182617188|-0.006311368197202682|0.01555585861206055|XArbitraryZVertical|-0.03466318211216381|0.1002027590258481|-0.272538053283907|-0.9562850444863495|-0.2105388790369034|-0.01167763583362103|-0.9775157570838928|0|0|0|-1|-1|3
2021-04-08 20:30:26.396 +0100|20495.834563|-0.1949462890625|-0.0033721923828125|-0.9780120849609375|20495.814603|0.5590778630027941|-0.2114843383991168|0.01014673826531071|0.05044778808951378|0.07725030183792114|0.1008337885141373|-0.01431205868721008|0.03408870846033096|0.01795327663421631|XArbitraryZVertical|-0.03397004031474706|0.1000549521434726|-0.2738531635247188|-0.9559496234664997|-0.2099005877971649|-0.01014656387269497|-0.9776700735092163|0|0|0|-1|-1|3
2021-04-08 20:30:26.415 +0100|20495.854523|-0.18896484375|-0.0285186767578125|-0.9776763916015625|20495.834563|0.5610144812113007|-0.2091210006540797|0.01076092267155982|0.1246056705713272|0.0618097186088562|0.06549257785081863|0.007362276315689087|0.02174814790487289|-3.808736801147461e-05|XArbitraryZVertical|-0.03403561843154213|0.09880793172673291|-0.2747875227078972|-0.9558088196420059|-0.2075881063938141|-0.0107607152312994|-0.9781571626663208|0|0|0|-1|-1|3
2021-04-08 20:30:26.435 +0100|20495.874483|-0.19012451171875|0.0250091552734375|-0.9826202392578125|20495.854523|0.5622911120779807|-0.2075355817409941|0.01119730922728893|-2.519064582884312e-05|0.04912636429071426|0.03809930384159088|0.01524019241333008|-0.01523003727197647|0.004038810729980469|XArbitraryZVertical|-0.03408881788187736|0.09796827968914779|-0.2754024617023057|-0.9557164208342441|-0.2060360759496689|-0.01119707524776459|-0.978480339050293|0|0|0|-1|-1|3
2021-04-08 20:30:26.456 +0100|20495.894443|-0.19482421875|0.03045654296875|-0.9820556640625|20495.894443|0.5635017091343124|-0.2078181311464294|0.01156073948131875|0.0851389542222023|-0.03365448117256165|-0.004848697688430548|0.009519085288047791|0.05030365288257599|-0.00882565975189209|XArbitraryZVertical|-0.03436068330018419|0.09803227462121629|-0.2759577055112678|-0.9555398612651379|-0.2063116878271103|-0.01156048197299242|-0.9784180521965027|0|0|0|-1|-1|3
2021-04-08 20:30:26.475 +0100|20495.914403|-0.1978607177734375|0.0201568603515625|-0.98297119140625||||||||||||||||||||||||3
2021-04-08 20:30:26.495 +0100|20495.934363|-0.214111328125|0.0388031005859375|-0.9797515869140625|20495.914403|0.5635572369858726|-0.2086634188978625|0.01244416343434972|0.06861858814954758|-0.05172637104988098|-0.03067807480692863|0.01110680401325226|0.02756641060113907|-0.007652699947357178|XArbitraryZVertical|-0.0349019362043369|0.09831273386109927|-0.2759247436778224|-0.9555010594551185|-0.2071364521980286|-0.01244384236633778|-0.9782329201698303|0|0|0|-1|-1|3
2021-04-08 20:30:26.515 +0100|20495.954323|-0.205780029296875|0.0235443115234375|-0.98052978515625|20495.934363|0.5631900819284462|-0.2093328417421006|0.01452990713571378|0.1214722469449043|-0.02700355648994446|-0.04169503971934319|-0.002679049968719482|0.05209764465689659|-0.002844750881195068|XArbitraryZVertical|-0.03597227257070425|0.09835005567856843|-0.2756310428821175|-0.9555422524354218|-0.2077854126691818|-0.01452939584851265|-0.9780665040016174|0|0|0|-1|-1|3
2021-04-08 20:30:26.535 +0100|20495.974283|-0.2047271728515625|0.021942138671875|-0.9762725830078125|20495.954323|0.5630404956288013|-0.2091226748439801|0.0171746182081227|0.1405147165060043|-0.001187886111438274|-0.03155478835105896|0.0003262907266616821|0.04844013601541519|-0.004795193672180176|XArbitraryZVertical|-0.03719897947714518|0.09788592797952948|-0.2754278817003009|-0.9556015040932179|-0.2075711488723755|-0.01717377454042435|-0.9780691862106323|0|0|0|-1|-1|3
2021-04-08 20:30:26.556 +0100|20495.994243|-0.2066192626953125|0.0099945068359375|-0.96148681640625|20495.974283|0.5630786002947038|-0.2085749754279462|0.01856967144458193|0.1036511212587357|0.0210359264165163|-0.01864973083138466|0.002577751874923706|0.035903699696064|-0.0006014704704284668|XArbitraryZVertical|-0.03779162715608669|0.09743016453003178|-0.2753847881767237|-0.9556372681254806|-0.2070302665233612|-0.0185686033219099|-0.9781582951545715|0|0|0|-1|-1|3
2021-04-08 20:30:26.575 +0100|20496.014203|-0.205169677734375|-0.0240020751953125|-0.94683837890625|20495.994243|0.5630719132048321|-0.2076772834249138|0.01981193814877696|0.0893847793340683|0.04049606993794441|-0.0198843739926815|-0.003615379333496094|0.04070102795958519|0.0162079930305481|XArbitraryZVertical|-0.03826096490672209|0.09682912458685634|-0.2753350490342336|-0.9556939534993972|-0.2061471939086914|-0.0198106411844492|-0.9783204197883606|0|0|0|-1|-1|3
2021-04-08 20:30:26.595 +0100|20496.034164|-0.1969757080078125|-0.042510986328125|-0.923675537109375|20496.014203|0.5627477488885543|-0.2069431226639931|0.02006383550239808|0.01319678872823715|0.04119174182415009|-0.04617589712142944|0.002409681677818298|0.002378663048148155|0.02341902256011963|XArbitraryZVertical|-0.0382645524938105|0.09644956965997419|-0.2751813002549614|-0.9557765686169178|-0.2054278552532196|-0.02006248943507671|-0.9784666299819946|0|0|0|-1|-1|3
2021-04-08 20:30:26.616 +0100|20496.054124|-0.209564208984375|-0.05255126953125|-0.905853271484375|20496.034164|0.5613005533464959|-0.2061452063074812|0.01791004295847288|-0.1542386263608932|0.03232597187161446|-0.08757589012384415|0.003773480653762817|-0.0193975456058979|0.04799091815948486|XArbitraryZVertical|-0.03705630935278286|0.0963935276768817|-0.274614136024556|-0.9559928842661772|-0.2046554237604141|-0.0179090853780508|-0.9786702394485474|0|0|0|-1|-1|3
2021-04-08 20:30:26.635 +0100|20496.074084|-0.2153778076171875|-0.043426513671875|-0.897369384765625|20496.054124|0.5579086257963867|-0.2054138878223287|0.01338154850743115|-0.2868156135082245|0.03963129222393036|-0.1676079630851746|-0.003306031227111816|-0.03585785999894142|0.06734418869018555|XArbitraryZVertical|-0.03462827217543289|0.09672839696822597|-0.2732339091791138|-0.9564454281302207|-0.2039541006088257|-0.01338114868849516|-0.978888988494873|0|0|0|-1|-1|3
2021-04-08 20:30:26.656 +0100|20496.094044|-0.2195587158203125|-0.0400848388671875|-0.8570404052734375|20496.074084|0.552105710726015|-0.2046113900997257|0.007295595770276022|-0.3540836274623871|0.03806652128696442|-0.2920095324516296|-0.01242542266845703|-0.04525462910532951|0.07609879970550537|XArbitraryZVertical|-0.03132696772227368|0.09727095375551273|-0.2707746949201899|-0.9572033469490624|-0.203181266784668|-0.007295531220734119|-0.9791139364242554|0|0|0|-1|-1|3
2021-04-08 20:30:26.675 +0100|20496.114004|-0.2498779296875|-0.044769287109375|-0.8278656005859375|20496.094044|0.5437252889707983|-0.2046603280306487|0.00181051503586875|-0.3805230855941772|-0.04406621679663658|-0.424021452665329|-0.009183362126350403|-0.03838002681732178|0.1136499643325806|XArbitraryZVertical|-0.02829782309722927|0.09815802086181978|-0.2670322283330785|-0.9582578832899354|-0.2032342553138733|-0.00181051401887089|-0.9791284799575806|0|0|0|-1|-1|3
2021-04-08 20:30:26.695 +0100|20496.133964|-0.2785186767578125|-0.032012939453125|-0.8049163818359375|20496.114004|0.532088349726287|-0.206387010931722|-0.003781195807498726|-0.4587127864360809|-0.1186580061912537|-0.5795038938522339|-0.03822536766529083|-0.04597062617540359|0.1454577445983887|XArbitraryZVertical|-0.02526875262260586|0.09988063423597855|-0.2617056257718842|-0.9596330633627094|-0.2049234658479691|0.003781186882406473|-0.9787706732749939|0|0|0|-1|-1|3
2021-04-08 20:30:26.715 +0100|20496.153924|-0.6250457763671875|-0.064239501953125|-0.606475830078125|20496.133964|0.5181730980127143|-0.2108929602303902|-0.01077051886144041|-0.5052545666694641|-0.3190254867076874|-0.6511092185974121|-0.05270294845104218|-0.04903823882341385|0.1638228297233582|XArbitraryZVertical|-0.02178812986277978|0.1031089000901657|-0.2553188674150669|-0.961096358919589|-0.2093210220336914|0.01077031064778566|-0.9777876734733582|0|0|0|-1|-1|3
2021-04-08 20:30:26.735 +0100|20496.173884|-0.4897308349609375|-0.1314239501953125|-0.6226348876953125|20496.153924|0.4939051463757083|-0.2146565221447478|-0.02295434904012352|-1.279871106147766|0.4505812227725983|-1.645916938781738|-0.2757986187934875|-0.05911455303430557|0.3002633452415466|XArbitraryZVertical|-0.01511963385120301|0.1066549675046529|-0.2442196232047141|-0.9637183985395188|-0.2129557281732559|0.02295233309268951|-0.9767922163009644|0|0|0|-1|-1|3
2021-04-08 20:30:26.755 +0100|20496.193844|-0.364166259765625|-0.0392303466796875|-0.5096893310546875|20496.173884|0.458088654511041|-0.2031217659261038|-0.04540188560243288|-1.413267493247986|0.4135355949401855|-0.9473576545715332|-0.3777494728565216|-0.1728571057319641|0.3843009471893311|XArbitraryZVertical|-0.001021260823569468|0.1038402922247146|-0.2280600325832209|-0.9680933875186788|-0.2015200108289719|0.04538628831505775|-0.978432297706604|0|0|0|-1|-1|3
2021-04-08 20:30:26.775 +0100|20496.213804|-0.4125518798828125|-0.023193359375|-0.45684814453125|20496.193844|0.431713939165403|-0.200528402336256|-0.07308506862325086|-1.788046956062317|0.13889279961586|-1.446654796600342|-0.1749408543109894|-0.08899486809968948|0.4425097703933716|XArbitraryZVertical|0.01408256049843586|0.1054939035202837|-0.2165387046678298|-0.9704554958965699|-0.198655441403389|0.07302002608776093|-0.9773454070091248|0|0|0|-1|-1|3
2021-04-08 20:30:26.795 +0100|20496.233764|-0.49920654296875|0.1226043701171875|-0.4276275634765625|20496.213804|0.3910478480898765|-0.2041724911612707|-0.1059695663098755|-2.197827339172363|-0.08846074342727661|-1.795168399810791|-0.1721904277801514|-0.1526604890823364|0.5031093955039978|XArbitraryZVertical|0.03190927484048638|0.1100624839389095|-0.1982920623632726|-0.973420930936713|-0.2016195356845856|0.1057713478803635|-0.9737361073493958|0|0|0|-1|-1|3
2021-04-08 20:30:26.815 +0100|20496.253724|-0.4508056640625|0.2093505859375|-0.47528076171875|20496.233764|0.3440450605363608|-0.210355264514913|-0.1428207228052374|-2.381220579147339|0.04004999250173569|-2.012544393539429|-0.2928152978420258|-0.05792295932769775|0.5386633276939392|XArbitraryZVertical|0.05198329562728349|0.115316517740596|-0.1771755977879776|-0.9760167520355589|-0.2066813558340073|0.1423356831073761|-0.9679996967315674|0|0|0|-1|-1|3
2021-04-08 20:30:26.835 +0100|20496.273684|-0.4542236328125|0.2276458740234375|-0.5684051513671875|20496.253724|0.2913315871955924|-0.2190002379274669|-0.1811055677212001|-2.48508358001709|-0.07980535924434662|-2.264616012573242|-0.2496326714754105|0.01765307784080505|0.495093822479248|XArbitraryZVertical|0.07313819051637657|0.1207283544243287|-0.1534682862743353|-0.9780199735259923|-0.2137006968259811|0.1801171749830246|-0.9601509571075439|0|0|0|-1|-1|3
2021-04-08 20:30:26.867 +0100|20496.293644|-0.4640655517578125|0.2592010498046875|-0.6740570068359375|20496.273684|0.2331116375610284|-0.2341537296850243|-0.2209749993430521|-2.695370435714722|-0.2471088171005249|-2.372752904891968|-0.2236648797988892|0.00152316689491272|0.393562912940979|XArbitraryZVertical|0.09526380236549245|0.1280445194945274|-0.1275841026105194|-0.9789034434695755|-0.2263781428337097|0.219181016087532|-0.9490588307380676|0|0|0|-1|-1|3
2021-04-08 20:30:26.875 +0100|20496.313604|-0.4444732666015625|0.2906951904296875|-0.75396728515625|20496.293644|0.1707758476230034|-0.2552010115428565|-0.2656494710271407|-3.17914342880249|-0.3683488070964813|-2.422831773757935|-0.2243567556142807|-0.003013491630554199|0.2848217487335205|XArbitraryZVertical|0.1201220484105051|0.1368768262706783|-0.1006372326081714|-0.97811436612284|-0.2435848861932755|0.2625360190868378|-0.9336708784103394|0|0|0|-1|-1|3
2021-04-08 20:30:26.895 +0100|20496.333564|-0.461669921875|0.3743133544921875|-0.844818115234375|20496.313604|0.1020447338980235|-0.282936389049128|-0.3198985300384406|-3.842870473861694|-0.4214400947093964|-2.499979972839355|-0.1857318878173828|-0.03779688477516174|0.1772870421409607|XArbitraryZVertical|0.1503727591168207|0.1470574346416083|-0.07227331235858481|-0.9749557899336222|-0.2650131285190582|0.3144702315330505|-0.9115242958068848|0|0|0|-1|-1|3
2021-04-08 20:30:26.915 +0100|20496.353524|-0.5135650634765625|0.530853271484375|-0.9267120361328125|20496.333564|0.02344587265863401|-0.3186315158148489|-0.3855251904570679|-4.605077266693115|-0.4218685626983643|-2.623003482818604|-0.1607154011726379|-0.02909058332443237|0.05337733030319214|XArbitraryZVertical|0.1873067377493027|0.1579109893608977|-0.04174909672597176|-0.9686265231182164|-0.2902737855911255|0.376045823097229|-0.8799605965614319|0|0|0|-1|-1|3
2021-04-08 20:30:26.935 +0100|20496.373485|-0.5034942626953125|0.7306365966796875|-0.881439208984375|20496.353524|-0.06844224594056156|-0.3633111595776457|-0.4623854837510247|-5.444557189941406|-0.2305591702461243|-2.70077919960022|-0.1820380389690399|0.04062610864639282|-0.07271522283554077|XArbitraryZVertical|0.2312531401781488|0.1680377113627899|-0.008615396394988987|-0.9582333393058688|-0.3180539906024933|0.4460843503475189|-0.8365706205368042|0|0|0|-1|-1|3
2021-04-08 20:30:26.955 +0100|20496.393445|-0.503143310546875|0.940155029296875|-0.8571929931640625|20496.373485|-0.1745754371027525|-0.4168529982478094|-0.5470412459026833|-5.80928373336792|-0.01426389999687672|-2.657979726791382|-0.1626396179199219|0.1568249464035034|-0.1280032992362976|XArbitraryZVertical|0.2806387552492075|0.1754312773420065|0.02643840959927286|-0.9432745341828114|-0.3457989990711212|0.5201625227928162|-0.7809315323829651|0|0|0|-1|-1|3
2021-04-08 20:30:26.975 +0100|20496.413405|-0.45208740234375|1.008560180664062|-0.7872467041015625|20496.393445|-0.2900441151627602|-0.479513324802026|-0.6274202564143625|-5.598016262054443|0.1227092370390892|-2.489587545394897|-0.1263208091259003|0.3188108801841736|-0.1321428418159485|XArbitraryZVertical|0.3292585446807618|0.1801856676093082|0.06101887117747561|-0.9248776652740714|-0.3734813630580902|0.5870583057403564|-0.7182438969612122|0|0|0|-1|-1|3
2021-04-08 20:30:26.995 +0100|20496.433365|-0.4046478271484375|0.973175048828125|-0.7918243408203125|20496.413405|-0.4109400038145948|-0.5512486227693466|-0.7005529177548472|-5.543727397918701|0.1507539749145508|-2.227563858032227|-0.07068467140197754|0.356870710849762|-0.1590887904167175|XArbitraryZVertical|0.3754132741677369|0.1828745135334581|0.0929799379527919|-0.9038676201769279|-0.4004005193710327|0.6446405053138733|-0.6512435674667358|0|0|0|-1|-1|3
2021-04-08 20:30:27.015 +0100|20496.453325|-0.35528564453125|1.0179443359375|-0.78790283203125|20496.433365|-0.5408790477212052|-0.6358724912252364|-0.7692783806560959|-5.557445526123047|0.115130253136158|-1.895846962928772|0.01260298490524292|0.2848979830741882|-0.2147217988967896|XArbitraryZVertical|0.4208772447610427|0.1840147406740077|0.1221897320375823|-0.8798128576937557|-0.4266508221626282|0.6956170201301575|-0.578001856803894|0|0|0|-1|-1|3
2021-04-08 20:30:27.035 +0100|20496.473285|-0.2874908447265625|1.119140625|-0.7984466552734375|20496.453325|-0.6810305621584257|-0.733484904532454|-0.8350804879455431|-5.727134704589844|0.2214186638593674|-1.504521608352661|0.07831600308418274|0.2561320662498474|-0.2866942584514618|XArbitraryZVertical|0.4662781741241674|0.1825267716301864|0.1479213016198407|-0.8528704220533107|-0.4492883086204529|0.741350531578064|-0.4985372722148895|0|0|0|-1|-1|3
2021-04-08 20:30:27.054 +0100|20496.493245|-0.2502593994140625|1.18463134765625|-0.771209716796875|20496.473285|-0.8355750823592548|-0.8467750139941165|-0.8974771439666844|-5.724184036254883|0.217016413807869|-1.127323389053345|0.1656732559204102|0.3128334283828735|-0.3889827728271484|XArbitraryZVertical|0.5116982379283997|0.1778564785836254|0.170381548371428|-0.8231053460348332|-0.4671571254730225|0.7817561626434326|-0.4130639731884003|0|0|0|-1|-1|3
2021-04-08 20:30:27.074 +0100|20496.513205|-0.2411041259765625|1.222900390625|-0.70477294921875|20496.493245|-0.9996704263533553|-0.9734623140534485|-0.9504927220420001|-5.226747512817383|0.2151326537132263|-0.7758828401565552|0.2257581353187561|0.358569860458374|-0.4494601488113403|XArbitraryZVertical|0.5542786561447109|0.1711925914711575|0.1888398093664572|-0.7923433069794612|-0.4806263744831085|0.8137019872665405|-0.3269365429878235|0|0|0|-1|-1|3
2021-04-08 20:30:27.094 +0100|20496.533165|-0.20147705078125|1.165008544921875|-0.5948333740234375|20496.513205|-1.159167748346025|-1.100366214135727|-0.9890799030326445|-4.608493328094482|0.2768774032592773|-0.5091534852981567|0.2492940723896027|0.3943225145339966|-0.483260840177536|XArbitraryZVertical|0.5905532231927068|0.1634634016009312|0.2032902270103838|-0.763675284063781|-0.48977330327034|0.8355208039283752|-0.2490532100200653|0|0|0|-1|-1|3
2021-04-08 20:30:27.114 +0100|20496.553125|-0.1800384521484375|1.199111938476562|-0.520599365234375|20496.533165|-1.310729316387369|-1.221506912310555|-1.016497545530038|-3.945728540420532|0.3816485404968262|-0.2105169892311096|0.283305823802948|0.3187212347984314|-0.4416321516036987|XArbitraryZVertical|0.6214065995376236|0.1542331720152322|0.214895263802844|-0.7374862858388012|-0.4945643544197083|0.8502697348594666|-0.1801319271326065|0|0|0|-1|-1|3
2021-04-08 20:30:27.134 +0100|20496.573085|-0.1680145263671875|1.0882568359375|-0.485626220703125|20496.553125|-1.439341420797501|-1.323292832735932|-1.03529020944523|-2.965993642807007|0.4271063804626465|0.03572110086679459|0.3085231482982635|0.335408627986908|-0.4135634899139404|XArbitraryZVertical|0.64552812659473|0.1441824735554433|0.223272884885798|-0.7159986647111073|-0.4947267770767212|0.8600105047225952|-0.1250097006559372|0|0|0|-1|-1|3
2021-04-08 20:30:27.154 +0100|20496.593045|-0.171051025390625|0.8229827880859375|-0.4574432373046875|20496.573085|-1.539223119137176|-1.401144812953881|-1.049104963522788|-2.367115020751953|0.3951340615749359|0.2594374716281891|0.3224759995937347|0.2720146179199219|-0.3992722034454346|XArbitraryZVertical|0.6632425115055877|0.1343099141296444|0.2285682888904235|-0.6998763592319219|-0.4911930859088898|0.8669775128364563|-0.08414043486118317|0|0|0|-1|-1|3
2021-04-08 20:30:27.174 +0100|20496.613005|-0.179901123046875|0.781158447265625|-0.3033599853515625|20496.593045|-1.631621367035644|-1.474420299922033|-1.062829359311035|-2.388745784759521|0.326770007610321|0.5129523873329163|0.317380964756012|0.01313591003417969|-0.4139026403427124|XArbitraryZVertical|0.6791511258469267|0.1239002216682307|0.2313813792870832|-0.6854671637054558|-0.484144926071167|0.8737351894378662|-0.04680496826767921|0|0|0|-1|-1|3
2021-04-08 20:30:27.194 +0100|20496.632964375|-0.096832275390625|0.885040283203125|-0.0956268310546875|20496.613005|-1.730994880905401|-1.55410707952372|-1.079578380080257|-2.505446672439575|0.4369632601737976|0.8036846518516541|0.2843628227710724|-0.1392666697502136|-0.3595892190933228|XArbitraryZVertical|0.6955315017630803|0.1109051483359058|0.2320719231522909|-0.6708789945759834|-0.4716345369815826|0.881758987903595|-0.007871956564486027|0|0|0|-1|-1|3
2021-04-08 20:30:27.214 +0100|20496.652924375|-0.120697021484375|0.86907958984375|-0.00616455078125|20496.632964375|-1.843818009774703|-1.646686969676289|-1.093201735582844|-2.728663206100464|0.2659755349159241|0.7246267795562744|0.3521958887577057|-0.0054282546043396|-0.1544313430786133|XArbitraryZVertical|0.7127375361129306|0.09710728270183085|0.2323252688844955|-0.6546758288766643|-0.4583214521408081|0.8881031274795532|0.03484923765063286|0|0|0|-1|-1|3
2021-04-08 20:30:27.234 +0100|20496.672884375|-0.1308746337890625|0.857269287109375|-0.024261474609375|20496.652924375|-1.957934282474438|-1.747841258481068|-1.10156805530517|-2.316295385360718|-0.1087590903043747|0.6606335043907166|0.3430174887180328|-0.03437381982803345|-0.1120659112930298|XArbitraryZVertical|0.7297014690803176|0.08577123954668724|0.2299939973949694|-0.6381865104295243|-0.4451300203800201|0.8919175267219543|0.07964187860488892|0|0|0|-1|-1|3
2021-04-08 20:30:27.254 +0100|20496.692845375|-0.1560821533203125|0.882171630859375|0.0077667236328125|20496.672884375|-2.042697547167523|-1.828656885784957|-1.105545341934642|-1.237303733825684|-0.4031347930431366|0.6989526152610779|0.295751690864563|-0.04922699928283691|-0.1803734451532364|XArbitraryZVertical|0.7422926640695918|0.07878388242304707|0.2257758403909011|-0.6259552529814822|-0.4338138699531555|0.8937090039253235|0.1144106015563011|0|0|0|-1|-1|3
2021-04-08 20:30:27.274 +0100|20496.712805375|-0.1714935302734375|0.78192138671875|0.0970611572265625|20496.692845375|-2.084715953290993|-1.875562277885765|-1.113779309881651|-0.2493492364883423|-0.5294340848922729|0.5577884912490845|0.2669615149497986|0.01560604572296143|-0.09104549884796143|XArbitraryZVertical|0.7487148386689848|0.07505058250952988|0.2188377308222318|-0.6212115407231603|-0.4209387004375458|0.8973727822303772|0.1324129998683929|0|0|0|-1|-1|3
2021-04-08 20:30:27.294 +0100|20496.732765375|-0.234771728515625|0.8217010498046875|0.2242279052734375|20496.712805375|-2.086537361665645|-1.890382453746192|-1.125700051471592|0.4465546607971191|-0.7614615559577942|0.583903431892395|0.2531658709049225|-0.1041989922523499|-0.07223103940486908|XArbitraryZVertical|0.7496598127120832|0.07512140743273604|0.2101864980504614|-0.6230480906237864|-0.4087452292442322|0.9025692343711853|0.135266125202179|0|0|0|-1|-1|3
2021-04-08 20:30:27.315 +0100|20496.752725375|-0.283447265625|0.954681396484375|0.2952728271484375|20496.732765375|-2.063889706618165|-1.884709711958343|-1.140269368414704|0.8728620409965515|-0.689608097076416|0.4772045016288757|0.1783117353916168|-0.1301052570343018|0.05988147854804993|XArbitraryZVertical|0.7473218470234119|0.07710687219896752|0.2007165942771102|-0.6287111846309739|-0.3969556987285614|0.9087459444999695|0.1288708299398422|0|0|0|-1|-1|3
2021-04-08 20:30:27.334 +0100|20496.772685375|-0.3865814208984375|1.188446044921875|0.3350830078125|20496.752725375|-2.024156468394266|-1.861520403808402|-1.153713099607102|1.213882684707642|-0.6672506928443909|0.388113409280777|0.1224864423274994|0.01280361413955688|0.169083833694458|XArbitraryZVertical|0.7427177516128847|0.0801868220409433|0.1925723344172953|-0.6362833822931092|-0.3880968689918518|0.9142743945121765|0.1161191686987877|0|0|0|-1|-1|3
2021-04-08 20:30:27.355 +0100|20496.792645375|-0.49468994140625|1.247573852539062|0.333984375|20496.772685375|-1.947517050007154|-1.804168103580418|-1.169866750522392|2.042293310165405|-0.6195084452629089|0.3700282275676727|0.0169169008731842|0.2142499089241028|0.2317373752593994|XArbitraryZVertical|0.7334554685954867|0.08467818088492408|0.183926298242274|-0.6488789923271246|-0.3796952962875366|0.9206985831260681|0.09025463461875916|0|0|0|-1|-1|3
2021-04-08 20:30:27.374 +0100|20496.812605375|-0.557220458984375|1.170608520507812|0.305694580078125|20496.812605375|-1.703908683027156|-1.59586430416009|-1.195863611017121|2.49549674987793|-0.1647084802389145|0.3329367935657501|-0.1714880168437958|0.2520541548728943|0.3339004516601562|XArbitraryZVertical|0.7041164138032967|0.0938598327494336|0.1688837031307335|-0.6832925902342187|-0.3660950362682343|0.9305322766304016|0.009179185144603252|0|0|0|-1|-1|3
2021-04-08 20:30:27.394 +0100|20496.832565375|-0.590728759765625|1.08660888671875|0.1342315673828125||||||||||||||||||||||||3
2021-04-08 20:30:27.414 +0100|20496.852525375|-0.582611083984375|1.085403442382812|0.1049346923828125|20496.832565375|-1.560190635394338|-1.461957251637932|-1.199267608135726|2.783145666122437|0.1207822188735008|0.2328758984804153|-0.2331935167312622|0.1830795407295227|0.1903150081634521|XArbitraryZVertical|0.6863079392384204|0.09624899799856249|0.1644879869505739|-0.7018985217265884|-0.3608928918838501|0.9317734241485596|-0.03943508490920067|0|0|0|-1|-1|3
2021-04-08 20:30:27.434 +0100|20496.872485375|-0.5942840576171875|1.043533325195312|0.125274658203125|20496.852525375|-1.394276424035226|-1.303642239244077|-1.191908316714135|3.247690439224243|0.2425044029951096|0.2062315791845322|-0.2263182699680328|0.1400610208511353|0.196325421333313|XArbitraryZVertical|0.6644454592608817|0.09843442472367736|0.1613543343494923|-0.7230406573799263|-0.3567664921283722|0.9290764927864075|-0.09764578938484192|0|0|0|-1|-1|3
2021-04-08 20:30:27.454 +0100|20496.892445375|-0.590362548828125|1.0087890625|0.0909576416015625|20496.872485375|-1.228577244011214|-1.144980473883822|-1.173177314595218|3.332801342010498|0.2959404587745667|0.1439943909645081|-0.237198144197464|0.1485253572463989|0.2870705127716064|XArbitraryZVertical|0.6402513072473267|0.1005186353374153|0.1584492363357778|-0.7448948357246573|-0.3526462912559509|0.9219855666160583|-0.1599485278129578|0|0|0|-1|-1|3
2021-04-08 20:30:27.474 +0100|20496.912405375|-0.5503997802734375|1.1016845703125|0.0074615478515625|20496.892445375|-1.073281133456788|-0.9951305450133556|-1.141617811823359|3.659723281860352|0.475104033946991|0.07854810357093811|-0.2438537776470184|0.08904439210891724|0.3215223252773285|XArbitraryZVertical|0.6133854399441506|0.1024236010617856|0.1564031932226535|-0.7673369722289071|-0.3490577042102814|0.9093078970909119|-0.2265354096889496|0|0|0|-1|-1|3
2021-04-08 20:30:27.493 +0100|20496.932365375|-0.4636077880859375|1.106338500976562|-0.1776580810546875|20496.912405375|-0.9313909117811978|-0.8552739117928023|-1.094136627953344|4.228314876556396|0.7368311285972595|-0.1444358825683594|-0.2229091823101044|0.1949332356452942|0.3341914713382721|XArbitraryZVertical|0.5819845609018347|0.1039245473511875|0.1562133880656578|-0.7912591898663426|-0.3462900519371033|0.8885324597358704|-0.3009873330593109|0|0|0|-1|-1|3
2021-04-08 20:30:27.513 +0100|20496.952325375|-0.4234161376953125|0.940460205078125|-0.34149169921875|20496.932365375|-0.8146762041522003|-0.7386612104992785|-1.031610898950301|4.025552749633789|0.6471226811408997|-0.3713913559913635|-0.1358256340026855|0.2809264063835144|0.2678355574607849|XArbitraryZVertical|0.5467465594722284|0.1061035575738749|0.1579002892631273|-0.8154004328347814|-0.3456966578960419|0.8581271767616272|-0.3796204626560211|0|0|0|-1|-1|3
2021-04-08 20:30:27.533 +0100|20496.972285375|-0.4456024169921875|0.9969329833984375|-0.39727783203125|20496.952325375|-0.7443339945493656|-0.6682202585480025|-0.9699155029469185|2.836583375930786|0.5194229483604431|-0.6684776544570923|-0.08236640691757202|0.1414404511451721|0.09535467624664307|XArbitraryZVertical|0.5157407477032332|0.1101135770059395|0.1615108709735772|-0.8341468339833996|-0.3502972722053528|0.8248379230499268|-0.4437729716300964|0|0|0|-1|-1|3
2021-04-08 20:30:27.553 +0100|20496.992246375|-0.6078948974609375|0.9676361083984375|-0.18927001953125|20496.972285375|-0.7166110042580242|-0.6365718330317169|-0.9285801780547538|1.467317819595337|0.2327971756458282|-0.55042964220047|-0.07325276732444763|0.1648518443107605|0.09156602621078491|XArbitraryZVertical|0.4964139795238408|0.112894511431195|0.1665835726529377|-0.8444394115061846|-0.3560539782047272|0.8007703423500061|-0.4816559851169586|0|0|0|-1|-1|3
2021-04-08 20:30:27.573 +0100|20497.012206375|-0.434051513671875|0.8897247314453125|-0.0880889892578125|20496.992246375|-0.728827093258562|-0.6447991616120184|-0.9221040525494204|-1.118900179862976|0.2707837224006653|-0.565571129322052|-0.2100678086280823|0.2634285092353821|0.2186706066131592|XArbitraryZVertical|0.495391812165417|0.1147362624497114|0.1710383737376489|-0.8439008502018865|-0.3631140887737274|0.7968745231628418|-0.4828450977802277|0|0|0|-1|-1|3
2021-04-08 20:30:27.593 +0100|20497.032166375|-0.4166412353515625|0.950408935546875|-0.05682373046875|20497.012206375|-0.7612158860719281|-0.6604626813783664|-0.930603325873965|-1.154118299484253|0.395275205373764|-0.3356278836727142|-0.134620189666748|0.04221230745315552|0.2872396111488342|XArbitraryZVertical|0.5017263564941885|0.1113746774021523|0.1789705401225664|-0.8389494045118047|-0.3664638996124268|0.8019804954528809|-0.4717326760292053|0|0|0|-1|-1|3
2021-04-08 20:30:27.613 +0100|20497.052126375|-0.6457672119140625|1.001190185546875|-0.1253814697265625|20497.032166375|-0.7948269728760646|-0.6824983609979349|-0.9422353183947089|-0.7401651740074158|0.1012165173888206|-0.6609369516372681|-0.0284176766872406|0.1495150923728943|0.404531717300415|XArbitraryZVertical|0.5097931039436776|0.1094272597510261|0.1849253854540346|-0.8330302975798799|-0.370859831571579|0.8088744282722473|-0.4562733173370361|0|0|0|-1|-1|3
2021-04-08 20:30:27.633 +0100|20497.072086375|-0.4648284912109375|0.7432708740234375|-0.0523834228515625|20497.052126375|-0.8168681108684338|-0.7007236031606776|-0.934665942187444|0.3257685303688049|0.08665978163480759|-0.8088536262512207|-0.1821208298206329|0.1536684036254883|0.34818035364151|XArbitraryZVertical|0.5100391366463827|0.1131684942518299|0.1911319362479326|-0.8309763207264914|-0.3830502033233643|0.8044006824493408|-0.454105943441391|0|0|0|-1|-1|3
2021-04-08 20:30:27.653 +0100|20497.092046375|-0.4138031005859375|0.15966796875|-0.20965576171875|20497.072086375|-0.835006047784779|-0.7089883227438177|-0.9243855371259837|-0.2262448519468307|0.3174997568130493|-0.8985840678215027|-0.1634805798530579|0.09400713443756104|0.4185432195663452|XArbitraryZVertical|0.5082461420248769|0.1144424007389126|0.1988806610769828|-0.8300816261094043|-0.3921537399291992|0.7982507944107056|-0.4571775794029236|0|0|0|-1|-1|3
2021-04-08 20:30:27.673 +0100|20497.112006375|-0.6912689208984375|0.5316314697265625|-0.098785400390625|20497.092046375|-0.8680610301746123|-0.7375624688532315|-0.9202985537654599|-0.7252837419509888|-0.4093776047229767|-0.8764115571975708|0.03752458095550537|-0.5757352709770203|0.2274803519248962|XArbitraryZVertical|0.5116421470281063|0.1188419696026751|0.2062184069907849|-0.8255743420300498|-0.4072458148002625|0.7957824468612671|-0.4481978118419647|0|0|0|-1|-1|3
2021-04-08 20:30:27.693 +0100|20497.131966375|-0.885467529296875|0.7088165283203125|-0.194580078125|20497.112006375|-0.9027048659077154|-0.7779898410113081|-0.9276538516019849|-1.420351028442383|-0.6844980716705322|-0.1037394180893898|-0.1703402698040009|-0.4090712070465088|0.3017648160457611|XArbitraryZVertical|0.5204454586931828|0.1246634190706051|0.2082755857462078|-0.8186677467646624|-0.4209080040454865|0.8002151250839233|-0.4271911084651947|0|0|0|-1|-1|3
2021-04-08 20:30:27.713 +0100|20497.151926375|-0.7095184326171875|0.8763275146484375|-0.1794891357421875|20497.131966375|-0.9553103930807589|-0.8273232617976245|-0.9588349709286919|-2.972123384475708|0.04682256653904915|0.2800027430057526|-0.4724270403385162|-0.1039536595344543|0.2300804853439331|XArbitraryZVertical|0.5390358255338162|0.1225741548151342|0.2088122640810894|-0.8067300700860971|-0.4228830933570862|0.8185228705406189|-0.3888319134712219|0|0|0|-1|-1|3
2021-04-08 20:30:27.733 +0100|20497.171886375|-0.618194580078125|0.9002532958984375|0.0014190673828125|20497.151926375|-1.043199497581312|-0.8974783091057223|-1.014333009148895|-4.4382643699646|0.1086964309215546|0.6274586915969849|-0.3296562731266022|-0.03713196516036987|0.09159156680107117|XArbitraryZVertical|0.5683763137168925|0.1107439828867826|0.2097341152922055|-0.7878424963410294|-0.41291344165802|0.8491284251213074|-0.3293682634830475|0|0|0|-1|-1|3
2021-04-08 20:30:27.753 +0100|20497.191846375|-0.4723663330078125|0.8286895751953125|0.2800140380859375|20497.171886375|-1.210107497540178|-1.039680081204837|-1.086408079741266|-6.382390022277832|0.1864329725503922|0.601719081401825|-0.2423427402973175|0.05870449542999268|0.2102553397417068|XArbitraryZVertical|0.6108398563787867|0.09457996126339609|0.2114315974967113|-0.7571169127475592|-0.4015178680419922|0.8849599957466125|-0.2358586043119431|0|0|0|-1|-1|3
2021-04-08 20:30:27.773 +0100|20497.211806375|-0.3083648681640625|1.189010620117188|0.3585052490234375|20497.191846375|-1.493237064745499|-1.290591262124137|-1.153460324359052|-7.320932865142822|0.2216212749481201|0.662039577960968|-0.1212244033813477|-0.1215390563011169|0.3389933705329895|XArbitraryZVertical|0.6621565533398638|0.07417271842763053|0.2141168625034985|-0.7142836739856426|-0.3895184993743896|0.9141719937324524|-0.1120942160487175|0|0|0|-1|-1|3
2021-04-08 20:30:27.793 +0100|20497.231766375|-0.2098388671875|1.276382446289062|0.3162841796875|20497.211806375|-1.853419171033005|-1.618907555978321|-1.184209074567854|-6.8729248046875|0.04079530388116837|0.6892520189285278|0.02089530229568481|0.1827462911605835|0.3153952360153198|XArbitraryZVertical|0.7115327783112393|0.05279481906688218|0.2151587527888102|-0.6668137590752253|-0.3765936195850372|0.9262011647224426|0.01813237555325031|0|0|0|-1|-1|3
2021-04-08 20:30:27.813 +0100|20497.251726375|-0.208251953125|1.131820678710938|0.2259674072265625|20497.231766375|-2.184143215395656|-1.92762098479269|-1.172274133140899|-5.586701393127441|-0.2946552932262421|0.6664986610412598|0.1430012881755829|0.3587291836738586|0.2042196840047836|XArbitraryZVertical|0.7526870084833277|0.03516474886429609|0.2124771716912554|-0.6221569358452692|-0.3636136054992676|0.9216354489326477|0.1355485916137695|0|0|0|-1|-1|3
2021-04-08 20:30:27.833 +0100|20497.271687375|-0.2101898193359375|1.194168090820312|0.18585205078125|20497.251726375|-2.407785087853534|-2.141297678740503|-1.142006255313899|-3.767996311187744|-0.5261750817298889|0.7515473961830139|0.1481427252292633|0.2572782635688782|0.01557421684265137|XArbitraryZVertical|0.7821409864266692|0.02291205265155817|0.2064886759563491|-0.5874462807044193|-0.3499257266521454|0.9094694852828979|0.2245389670133591|0|0|0|-1|-1|3
2021-04-08 20:30:27.853 +0100|20497.291647375|-0.11468505859375|1.307891845703125|0.0857086181640625|20497.271687375|-2.550879069886542|-2.279397970263162|-1.117608180206236|-2.609147310256958|-0.3357572257518768|0.8863862156867981|0.1114420592784882|0.2809517979621887|-0.08587908744812012|XArbitraryZVertical|0.8014453998128591|0.012275139984702|0.1987602348564607|-0.563940733983829|-0.3324358463287354|0.8990557789802551|0.2849308252334595|0|0|0|-1|-1|3
2021-04-08 20:30:27.873 +0100|20497.311607375|-0.049896240234375|1.314697265625|-0.0085906982421875|20497.291647375|-2.64355442980091|-2.367407495366808|-1.103351102088134|-1.343844652175903|-0.1863609850406647|0.9012221693992615|0.1718915104866028|0.3803638815879822|-0.2019555270671844|XArbitraryZVertical|0.8130703355520963|0.002612427980624002|0.1919658129276417|-0.5495990658469911|-0.3150349855422974|0.8927224278450012|0.3221803903579712|0|0|0|-1|-1|3
2021-04-08 20:30:27.893 +0100|20497.331567375|-0.085113525390625|1.19769287109375|-0.0994110107421875|20497.311607375|-2.695568168498323|-2.41797191402368|-1.104935882152374|-0.2630506455898285|-0.2461914718151093|0.9266038537025452|0.2412735521793365|0.444805920124054|-0.3308621346950531|XArbitraryZVertical|0.8174898108832213|-0.005081699079535914|0.1852949782910478|-0.5452986405883649|-0.2974114120006561|0.8934354186058044|0.3366308212280273|0|0|0|-1|-1|3
2021-04-08 20:30:27.913 +0100|20497.351527375|-0.06622314453125|1.179946899414062|-0.13153076171875|20497.331567375|-2.726023723463552|-2.449654916349761|-1.117935095692457|0.3414431810379028|-0.1348110884428024|0.9657546877861023|0.2056314051151276|0.309556245803833|-0.4354973137378693|XArbitraryZVertical|0.817511394034397|-0.01143229405801532|0.1783961931355868|-0.5474663303614763|-0.2791642546653748|0.8991988897323608|0.336911141872406|0|0|0|-1|-1|3
2021-04-08 20:30:27.933 +0100|20497.371487375|-0.053955078125|0.9275970458984375|-0.2360382080078125|20497.351527375|-2.745395622306773|-2.468465398207655|-1.137226247371778|0.5441898703575134|0.01813723519444466|0.9783559441566467|0.1805219650268555|0.2750383019447327|-0.4493712186813354|XArbitraryZVertical|0.8148134573507623|-0.01781396645059478|0.1728114742491738|-0.5530804472065736|-0.2619131207466125|0.9074717164039612|0.32847660779953|0|0|0|-1|-1|3
2021-04-08 20:30:27.953 +0100|20497.391447375|-0.112762451171875|0.7323455810546875|-0.070037841796875|20497.371487375|-2.765703610055536|-2.487397495994475|-1.152534779222607|0.2762909531593323|-0.109670527279377|0.6468263864517212|0.2002737820148468|0.136709988117218|-0.5359818935394287|XArbitraryZVertical|0.8127721136159901|-0.02363119148292635|0.1682526386399285|-0.5572560847691198|-0.247164860367775|0.9137964248657227|0.3223138749599457|0|0|0|-1|-1|3
2021-04-08 20:30:27.973 +0100|20497.411407375|-0.0443572998046875|0.9210357666015625|-0.0101776123046875|20497.391447375|-2.77592159595706|-2.499448738858177|-1.168588817605756|0.6090840697288513|-0.09386040270328522|0.6311691999435425|0.1300590336322784|-0.208819568157196|-0.4514634013175964|XArbitraryZVertical|0.8099356024395222|-0.02727280784214886|0.163673633668952|-0.5625579515573298|-0.2344451397657394|0.9201990962028503|0.3134789764881134|0|0|0|-1|-1|3
2021-04-08 20:30:27.993 +0100|20497.431367375|0.0323028564453125|0.8776092529296875|-0.075469970703125|20497.411407375|-2.785396948544892|-2.509574739599573|-1.179698613306114|0.1857546418905258|-0.1002324447035789|0.2855094373226166|0.1520539522171021|-0.0332256555557251|-0.2898377478122711|XArbitraryZVertical|0.8080054244809118|-0.03019767366904411|0.1605150863680113|-0.566083328547587|-0.2252053171396255|0.9244911670684814|0.3075693249702454|0|0|0|-1|-1|3
2021-04-08 20:30:28.012 +0100|20497.451327375|-0.043121337890625|0.7653656005859375|-0.048858642578125|20497.431367375|-2.788191918792756|-2.516627018931038|-1.184823154359311|0.18106609582901|-0.3618748188018799|0.1446941047906876|0.2474769800901413|-0.01662749052047729|-0.3804526329040527|XArbitraryZVertical|0.807303581712512|-0.03021401415370559|0.1576680801410879|-0.5678811289968254|-0.2202560752630234|0.9264324903488159|0.3053039312362671|0|0|0|-1|-1|3
2021-04-08 20:30:28.033 +0100|20497.471287375|-0.037841796875|0.7218780517578125|0.0301513671875|20497.451327375|-2.789700248903926|-2.526944003676818|-1.187315596811515|-0.1035650968551636|-0.4771168828010559|0.02158424071967602|0.1971155554056168|-0.1406249403953552|-0.359489768743515|XArbitraryZVertical|0.8074865926229973|-0.02831760287185306|0.1535501244744655|-0.5688463462313519|-0.2157626003026962|0.9273679256439209|0.3056729733943939|0|0|0|-1|-1|3
2021-04-08 20:30:28.052 +0100|20497.491247375|-0.04132080078125|0.766815185546875|0.2048797607421875|20497.471287375|-2.799166657434073|-2.545352460181384|-1.180712361017689|-0.7008249163627625|-0.5180928111076355|-0.07180891185998917|0.1625681966543198|-0.2053644061088562|-0.3239292800426483|XArbitraryZVertical|0.8103456002073727|-0.02581593205513966|0.149782779731269|-0.5658965566156715|-0.213533341884613|0.9248771071434021|0.3146529197692871|0|0|0|-1|-1|3
2021-04-08 20:30:28.072 +0100|20497.511207375|-0.1309814453125|0.87701416015625|0.2990875244140625|20497.491247375|-2.824588386354154|-2.581273528094184|-1.162982683537845|-1.25214695930481|-0.7553026080131531|-0.093281090259552|0.1849743723869324|-0.1674562692642212|-0.1790961921215057|XArbitraryZVertical|0.8169697698546249|-0.0232194043386555|0.1448506088673039|-0.5577094013987566|-0.2107777744531631|0.9179901480674744|0.3359574973583221|0|0|0|-1|-1|3
2021-04-08 20:30:28.092 +0100|20497.531168375|-0.241302490234375|0.958160400390625|0.4349822998046875|20497.511207375|-2.852951248540127|-2.623484667735794|-1.139190391233973|-1.292725443840027|-0.8682847023010254|-0.1225019097328186|0.09657655656337738|-0.05664122104644775|-0.08609876036643982|XArbitraryZVertical|0.825426166581044|-0.01963935294007904|0.138507020696771|-0.5469021762441972|-0.2071730345487595|0.9082950949668884|0.3634281158447266|0|0|0|-1|-1|3
2021-04-08 20:30:28.112 +0100|20497.551128375|-0.34033203125|1.013534545898438|0.497161865234375|20497.531168375|-2.874445905509088|-2.660941248614418|-1.117326093186221|-1.060708165168762|-0.8886796236038208|-0.1081560030579567|-0.00412788987159729|0.03426450490951538|0.02666610479354858|XArbitraryZVertical|0.8330602446710572|-0.01535535208639051|0.1314720579995729|-0.5371128065407995|-0.2025531828403473|0.8989322781562805|0.3884503245353699|0|0|0|-1|-1|3
2021-04-08 20:30:28.132 +0100|20497.571088375|-0.3345184326171875|0.9333038330078125|0.4840545654296875|20497.551128375|-2.888801918798995|-2.690191743792854|-1.100160454784464|-0.795807957649231|-0.7458338737487793|-0.08717712759971619|-0.1277078688144684|0.1181495785713196|0.07304555177688599|XArbitraryZVertical|0.8389810523182363|-0.01131606792978032|0.1250278098802801|-0.5294818526725144|-0.1978086233139038|0.8912801146507263|0.4080345332622528|0|0|0|-1|-1|3
2021-04-08 20:30:28.152 +0100|20497.591048375|-0.3456878662109375|0.82208251953125|0.4250030517578125|20497.571088375|-2.899095547899031|-2.713063774733074|-1.086706213078429|-0.7365236282348633|-0.7003020048141479|-0.04872037097811699|-0.1495971381664276|0.09256190061569214|0.05273899435997009|XArbitraryZVertical|0.8435621399426851|-0.007959148738831481|0.1195665969884361|-0.5234916557742775|-0.1933906078338623|0.8850987553596497|0.423320859670639|0|0|0|-1|-1|3
2021-04-08 20:30:28.172 +0100|20497.611008375|-0.3455047607421875|0.80322265625|0.4392547607421875|20497.591048375|-2.90884075455932|-2.734533618886464|-1.074075149751779|-0.7068174481391907|-0.6014485955238342|-0.05114109814167023|-0.1545471101999283|-0.0258481502532959|-0.0164787769317627|XArbitraryZVertical|0.8478080783614471|-0.004998734795824778|0.1143220485920792|-0.5178099173859745|-0.1886695176362991|0.8791497945785522|0.4376070499420166|0|0|0|-1|-1|3
2021-04-08 20:30:28.192 +0100|20497.630968375|-0.3314361572265625|0.7923583984375|0.5254669189453125|20497.611008375|-2.916556911613175|-2.750698051370238|-1.061638897296735|-0.6649956107139587|-0.4170834720134735|-0.1096904277801514|-0.1619948595762253|-0.06648486852645874|-0.0308423638343811|XArbitraryZVertical|0.8516627843741648|-0.002706439372206299|0.1106634731417321|-0.5122664331476199|-0.1857230812311172|0.8731555342674255|0.4506736397743225|0|0|0|-1|-1|3
2021-04-08 20:30:28.212 +0100|20497.65092875|-0.3364410400390625|0.86956787109375|0.608306884765625|20497.630968375|-2.922816728959162|-2.763127056625451|-1.048065407868906|-0.5811031460762024|-0.2810769379138947|-0.09026585519313812|-0.1460513174533844|-0.09918642044067383|0.04934251308441162|XArbitraryZVertical|0.8555458080915064|-0.0007278466253348636|0.1082390801446552|-0.5062858322956277|-0.1844699829816818|0.8664590120315552|0.4639183282852173|0|0|0|-1|-1|3
2021-04-08 20:30:28.232 +0100|20497.67088875|-0.3387603759765625|0.8223419189453125|0.6366119384765625|20497.65092875|-2.926596219799712|-2.770846349310471|-1.039013105973902|-0.3271413743495941|-0.2044112086296082|-0.08304780721664429|-0.1489094942808151|0.00590825080871582|0.1345441043376923|XArbitraryZVertical|0.8580846416807059|0.0005655918772921689|0.1067198123471959|-0.5022959854128021|-0.1837174594402313|0.8619042038917542|0.4726191461086273|0|0|0|-1|-1|3
2021-04-08 20:30:28.252 +0100|20497.69084875|-0.3385009765625|0.8439178466796875|0.646759033203125|20497.67088875|-2.927315090251413|-2.775118903327821|-1.034669433712298|-0.07728312909603119|-0.2092246562242508|-0.06973244249820709|-0.1530389040708542|-0.03459006547927856|0.1587144732475281|XArbitraryZVertical|0.8593267785018568|0.001785103888397793|0.1054604465285705|-0.500432480434988|-0.1830366253852844|0.8596935272216797|0.4768913984298706|0|0|0|-1|-1|3
2021-04-08 20:30:28.272 +0100|20497.71080875|-0.3284454345703125|0.86383056640625|0.6098480224609375|20497.69084875|-2.92459043064783|-2.776190344385902|-1.035989767502001|0.2639794051647186|-0.1420743763446808|-0.02470691315829754|-0.1545815616846085|-0.02925205230712891|0.1809419989585876|XArbitraryZVertical|0.8590712885776824|0.003085508545027989|0.1041980282924327|-0.5011285189316832|-0.1821195483207703|0.8603672385215759|0.4760259985923767|0|0|0|-1|-1|3
2021-04-08 20:30:28.292 +0100|20497.73076875|-0.33917236328125|0.9326171875|0.6616058349609375|20497.71080875|-2.91759275968609|-2.772670587113579|-1.045051499839895|0.7306639552116394|-0.1166950389742851|0.02301986142992973|-0.1473489552736282|-0.01428854465484619|0.1501044034957886|XArbitraryZVertical|0.8567540781802475|0.004244662691762997|0.1031132911288647|-0.5052942081078297|-0.180975079536438|0.8649503588676453|0.4680911302566528|0|0|0|-1|-1|3
2021-04-08 20:30:28.312 +0100|20497.75072875|-0.4022064208984375|1.118240356445312|0.827056884765625|20497.73076875|-2.905568637141205|-2.764879727610118|-1.065210948623467|1.440703153610229|-0.1499225497245789|0.2009935826063156|-0.1515782475471497|0.02723860740661621|0.1845295429229736|XArbitraryZVertical|0.8515587441609818|0.005218334672640023|0.1014592648680808|-0.5143215409308978|-0.1781648546457291|0.8748911023139954|0.450359046459198|0|0|0|-1|-1|3
2021-04-08 20:30:28.332 +0100|20497.77068875|-0.4684295654296875|1.304351806640625|0.8689727783203125|20497.75072875|-2.887540372425238|-2.75239892753632|-1.103861174164183|2.593497514724731|-0.2305399030447006|0.4411812424659729|-0.2169806957244873|0.165152907371521|0.389360636472702|XArbitraryZVertical|0.8415557212477813|0.005264111670202046|0.09816031181712952|-0.5311505567016375|-0.170806810259819|0.8929521441459656|0.4164874851703644|0|0|0|-1|-1|3
2021-04-08 20:30:28.352 +0100|20497.79064975|-0.4293212890625|1.373458862304688|0.7812042236328125|20497.77068875|-2.849037132353844|-2.721595125106043|-1.167572486986182|4.012161731719971|-0.1808472275733948|0.5546954274177551|-0.3074397146701813|0.3729693293571472|0.5302668809890747|XArbitraryZVertical|0.8240838248054748|0.005272308230017275|0.09350244008348194|-0.5586729815102417|-0.1599986851215363|0.9198007583618164|0.3582839071750641|0|0|0|-1|-1|3
2021-04-08 20:30:28.372 +0100|20497.81060975|-0.47491455078125|1.409423828125|0.5742340087890625|20497.79064975|-2.752163621953194|-2.63432004639447|-1.263339772116126|6.063060760498047|-0.2347088158130646|0.7425359487533569|-0.2926790714263916|0.3847533464431763|0.530733048915863|XArbitraryZVertical|0.7951284341396002|0.005786063877602076|0.08808373616465394|-0.599982131135589|-0.1470188349485397|0.9531064033508301|0.2645254135131836|0|0|0|-1|-1|3
2021-04-08 20:30:28.392 +0100|20497.83056975|-0.4826812744140625|1.223968505859375|0.4463348388671875|20497.81060975|-2.457935652468526|-2.352361310833189|-1.385467817358246|7.984975814819336|-0.1015408560633659|0.8109612464904785|-0.3312243521213531|0.4520453810691833|0.4942872524261475|XArbitraryZVertical|0.7515669810486921|0.006797817919417309|0.08109539533049667|-0.6546178435825321|-0.1307971924543381|0.9828757643699646|0.1297982782125473|0|0|0|-1|-1|3
2021-04-08 20:30:28.412 +0100|20497.85052975|-0.388336181640625|0.84429931640625|0.2743377685546875|20497.83056975|-1.314163632961065|-1.215527839516925|-1.449291886122163|9.218571662902832|0.4849452674388885|0.9103136658668518|-0.3720499277114868|0.3002803921699524|0.5301990509033203|XArbitraryZVertical|0.6920128615642244|0.006144058506757091|0.07573318244066371|-0.7178754080072564|-0.1136380061507225|0.9926274418830872|-0.04216089844703674|0|0|0|-1|-1|3
2021-04-08 20:30:28.432 +0100|20497.87048975|-0.2451324462890625|0.614227294921875|0.2498016357421875|20497.85052975|-0.4879322437571968|-0.3835168285038872|-1.317197203728359|9.924032211303711|1.232738375663757|0.857001006603241|-0.3302855491638184|-0.02761638164520264|0.5657029151916504|XArbitraryZVertical|0.6194085064194528|0.001138177733635259|0.07434500324526926|-0.7815399178972821|-0.09387891739606857|0.968015730381012|-0.2326636165380478|0|0|0|-1|-1|3
2021-04-08 20:30:28.451 +0100|20497.89044975|0.0353240966796875|-0.0535125732421875|-0.34759521484375|20497.87048975|-0.2907689234496143|-0.1680960933194075|-1.130456672895261|9.050228118896484|1.641278743743896|0.4019506573677063|-0.2206183671951294|-0.2408644556999207|0.6414618492126465|XArbitraryZVertical|0.5383576957378132|-0.007176904712962878|0.07741886266971518|-0.8391221028197886|-0.07131348550319672|0.9046069383621216|-0.4202389717102051|0|0|0|-1|-1|3
2021-04-08 20:30:28.472 +0100|20497.91040975|0.3105926513671875|-0.2811279296875|-0.4477996826171875|20497.89044975|-0.2507423085969661|-0.09230222883873493|-0.9885230286726957|5.520909309387207|2.214290142059326|-0.2527375817298889|-0.00122394785284996|-0.6856017112731934|0.4055704474449158|XArbitraryZVertical|0.4752356304984413|-0.0189603932052662|0.08824683640782695|-0.8752166557085552|-0.05068717896938324|0.8352146744728088|-0.5475832223892212|0|0|0|-1|-1|3
2021-04-08 20:30:28.492 +0100|20497.93036975|0.1362152099609375|0.0975494384765625|-0.3765106201171875|20497.91040975|-0.2520943919992351|-0.05996903139858879|-0.9246752676438038|0.5864466428756714|0.9898806214332581|-0.3584915399551392|0.3289160430431366|-1.107537269592285|0.1805717349052429|XArbitraryZVertical|0.4456771455497145|-0.02942869104091482|0.09919846328713007|-0.8891938166316316|-0.03608535602688789|0.7984252572059631|-0.6010116934776306|0|0|0|-1|-1|3
2021-04-08 20:30:28.512 +0100|20497.95032975|0.006500244140625|0.7100677490234375|-0.2912750244140625|20497.93036975|-0.2804535412633551|-0.06930996602627558|-0.9554264906153908|-3.41525411605835|0.5163401961326599|-1.073594808578491|0.2194204926490784|-0.8302924036979675|0.1590815782546997|XArbitraryZVertical|0.4592640426465232|-0.03375240889478635|0.1082728756652065|-0.881030295235786|-0.03997788578271866|0.8165600299835205|-0.5758746266365051|0|0|0|-1|-1|3
2021-04-08 20:30:28.532 +0100|20497.97028975|-0.103668212890625|0.9554290771484375|-0.4168853759765625|20497.95032975|-0.3272279794371711|-0.1043731740961488|-1.028913313736798|-3.849087953567505|-0.1156279668211937|-0.7584981322288513|0.09641087055206299|-0.3464999198913574|0.1934101581573486|XArbitraryZVertical|0.49222617585137|-0.03523585952871166|0.1162835374506627|-0.8619455622157514|-0.05373281612992287|0.8567390441894531|-0.5129436254501343|0|0|0|-1|-1|3
2021-04-08 20:30:28.552 +0100|20497.99024975|-0.098114013671875|0.6574859619140625|-0.1490325927734375|20497.97028975|-0.3921460204240779|-0.163496407793259|-1.112238928689848|-4.383209705352783|-0.2357397228479385|-1.33482301235199|-0.03038249164819717|0.1749332547187805|0.02015745639801025|XArbitraryZVertical|0.5295613977466104|-0.0344769828398732|0.1226288223611198|-0.8386527657298823|-0.0720505490899086|0.8966919779777527|-0.4367521405220032|0|0|0|-1|-1|3
2021-04-08 20:30:28.571 +0100|20498.01021075|-0.3285980224609375|0.7239837646484375|-0.222076416015625|20497.99024975|-0.4942815068887591|-0.2687357348222161|-1.190691217559829|-4.590706348419189|-0.821773886680603|-0.9933708310127258|0.03503276407718658|-0.2874814867973328|0.1509305238723755|XArbitraryZVertical|0.5659879333310066|-0.0284061117161301|0.1278753946601967|-0.8139402834654494|-0.09851010143756866|0.9286256432533264|-0.3577015101909637|0|0|0|-1|-1|3
2021-04-08 20:30:28.591 +0100|20498.03017075|-0.16217041015625|0.9896087646484375|-0.2897186279296875|20498.01021075|-0.6696007207063674|-0.4466425216060943|-1.279634691031264|-5.562886714935303|-0.2574493885040283|-1.292045474052429|-0.1710954606533051|-0.2332403659820557|0.09296667575836182|XArbitraryZVertical|0.6082720161553979|-0.02350758325031835|0.1321570142030394|-0.7822961170549479|-0.1239950433373451|0.9579110741615295|-0.2589050829410553|0|0|0|-1|-1|3
2021-04-08 20:30:28.611 +0100|20498.05013075|-0.061614990234375|1.2305908203125|-0.4180145263671875|20498.03017075|-1.001141995085105|-0.7669238634707329|-1.358479653714936|-5.249126434326172|0.2503942251205444|-0.9836806654930115|-0.07473571598529816|-0.1071228981018066|-0.09735071659088135|XArbitraryZVertical|0.6508050531895853|-0.02421495064725415|0.140093686882285|-0.7458152245441093|-0.1462275981903076|0.9775453805923462|-0.1517328321933746|0|0|0|-1|-1|3
2021-04-08 20:30:28.631 +0100|20498.07009075|-0.1358184814453125|0.93255615234375|-0.06585693359375|20498.05013075|-1.476029399993898|-1.228444532932587|-1.39563345659262|-4.391977787017822|0.1957660764455795|-0.8943088054656982|0.1026778221130371|0.2801944613456726|-0.3542159795761108|XArbitraryZVertical|0.6855954802879658|-0.0265971358457203|0.1473556784099083|-0.7124169564345584|-0.1641562730073929|0.9846981763839722|-0.05850286036729813|0|0|0|-1|-1|3
2021-04-08 20:30:28.651 +0100|20498.09005075|-0.0917816162109375|1.112335205078125|0.1970672607421875|20498.07009075|-1.972819307898612|-1.71397406526481|-1.388974008744794|-4.454895973205566|0.2051369994878769|-0.6381954550743103|0.06131134927272797|-0.01626121997833252|-0.2005136013031006|XArbitraryZVertical|0.7155811200374582|-0.02905832319120078|0.1527086720523743|-0.6810135618212769|-0.1789726614952087|0.9835157990455627|0.02580145187675953|0|0|0|-1|-1|3
2021-04-08 20:30:28.671 +0100|20498.11001075|0.0126800537109375|1.22357177734375|0.2832489013671875|20498.09005075|-2.37363394047618|-2.10275222348718|-1.34707904680658|-4.316590785980225|0.2252579927444458|-0.5329890847206116|0.0659392923116684|0.05401885509490967|0.04494165629148483|XArbitraryZVertical|0.7451063395144224|-0.03288643960955945|0.1568774241162948|-0.6473983356505425|-0.191199466586113|0.9750794768333435|0.1125299483537674|0|0|0|-1|-1|3
2021-04-08 20:30:28.691 +0100|20498.12997075|0.01092529296875|1.099044799804688|0.2894134521484375|20498.11001075|-2.603631266722715|-2.323165204074981|-1.293722076099747|-3.43302059173584|0.01738478615880013|-0.3235602974891663|0.2056565582752228|0.2777182459831238|0.07436096668243408|XArbitraryZVertical|0.7694961421868415|-0.03662512507375423|0.159151213176268|-0.6174183032993665|-0.1997064501047134|0.9618598818778992|0.1869314312934875|0|0|0|-1|-1|3
2021-04-08 20:30:28.711 +0100|20498.14993075|0.0386505126953125|1.070968627929688|0.25250244140625|20498.12997075|-2.733414865688085|-2.447533497867408|-1.24472073162242|-2.901820182800293|-0.09355520457029343|-0.2265463918447495|0.2030399143695831|0.1717726588249207|0.04313075542449951|XArbitraryZVertical|0.7883953854901039|-0.03929371066777031|0.1594957618649361|-0.5928322183808588|-0.2049022912979126|0.947306752204895|0.2462225556373596|0|0|0|-1|-1|3
2021-04-08 20:30:28.731 +0100|20498.16989075|0.0372161865234375|1.141891479492188|0.2407989501953125|20498.14993075|-2.824680985926767|-2.537237967851904|-1.197221300318469|-2.789446592330933|-0.304213285446167|-0.1664711534976959|0.2412174344062805|0.1469130516052246|-0.04827320575714111|XArbitraryZVertical|0.8052694272643116|-0.0411450479970163|0.1578857197629567|-0.5700180235046857|-0.20737424492836|0.9310286045074463|0.3003035187721252|0|0|0|-1|-1|3
2021-04-08 20:30:28.751 +0100|20498.18985075|0.05731201171875|1.141860961914062|0.217437744140625|20498.16989075|-2.89171156185329|-2.606916292338583|-1.151476327730095|-2.412028551101685|-0.4453206062316895|-0.1280427128076553|0.2494701594114304|0.2029821872711182|-0.09570816159248352|XArbitraryZVertical|0.8206118478617455|-0.04189113282835669|0.1544148068995299|-0.5486325761971796|-0.2074635624885559|0.9133660197257996|0.3503173291683197|0|0|0|-1|-1|3
2021-04-08 20:30:28.772 +0100|20498.20981075|0.0287628173828125|1.006591796875|0.3063507080078125|20498.18985075|-2.93541262268242|-2.655769151296766|-1.113728897776923|-1.858498334884644|-0.5050485134124756|-0.09386024624109268|0.2561007440090179|0.2638124227523804|-0.1805670261383057|XArbitraryZVertical|0.8327015067502285|-0.0416564552717304|0.1503131972989045|-0.5312993400708053|-0.2060679644346237|0.897350549697876|0.3902541100978851|0|0|0|-1|-1|3
2021-04-08 20:30:28.791 +0100|20498.22977075|-0.02276611328125|0.9962005615234375|0.373443603515625|20498.20981075|-2.966332865275872|-2.69496509200326|-1.083065239197329|-1.458545565605164|-0.6413149237632751|-0.005093531217426062|0.238985151052475|0.1399928331375122|-0.1378795504570007|XArbitraryZVertical|0.84242550244393|-0.04058123722168441|0.1450563985296741|-0.5173307649956446|-0.2024105787277222|0.8833984136581421|0.4226551353931427|0|0|0|-1|-1|3
2021-04-08 20:30:28.811 +0100|20498.24973175|-0.125396728515625|0.954345703125|0.498046875|20498.22977075|-2.987782168805057|-2.727609698661078|-1.060223376401759|-1.00679337978363|-0.7460880279541016|-0.02435857243835926|0.19410240650177|0.1597005724906921|-0.08170419931411743|XArbitraryZVertical|0.8498223410466823|-0.03873836683615491|0.1387675486464226|-0.5069962067580562|-0.1965751200914383|0.872464656829834|0.4473973512649536|0|0|0|-1|-1|3
2021-04-08 20:30:28.831 +0100|20498.26969175|-0.2631378173828125|1.0184326171875|0.5828094482421875|20498.24973175|-3.00132979456922|-2.753978987868369|-1.046032618686792|-0.5738285183906555|-0.7023788094520569|0.07255546003580093|0.102609246969223|0.06532812118530273|0.01371419429779053|XArbitraryZVertical|0.854749036130291|-0.03639456982400603|0.132092547050481|-0.5006308349025123|-0.1893714666366577|0.8654423356056213|0.4638409614562988|0|0|0|-1|-1|3
2021-04-08 20:30:28.851 +0100|20498.28965175|-0.276611328125|1.002883911132812|0.5433502197265625|20498.26969175|-3.008172849371284|-2.772775709173064|-1.039446155554585|-0.2528413236141205|-0.5784794688224792|-0.00836833193898201|-0.06734500825405121|0.162290096282959|0.08400100469589233|XArbitraryZVertical|0.8574133177402821|-0.03398643460860677|0.1262541481769426|-0.4977423684407448|-0.182670995593071|0.8621237277984619|0.472625344991684|0|0|0|-1|-1|3
2021-04-08 20:30:28.871 +0100|20498.30961175|-0.3349456787109375|0.9640960693359375|0.5438232421875|20498.28965175|-3.006731632360294|-2.783884369953545|-1.03599170646697|-0.1038178130984306|-0.6618329882621765|-0.1898065656423569|-0.09416311979293823|0.1413708329200745|0.0703032910823822|XArbitraryZVertical|0.858946457420112|-0.03027992799143523|0.121382443475656|-0.4965486001862967|-0.1784511208534241|0.8603682518005371|0.4774117767810822|0|0|0|-1|-1|3
2021-04-08 20:30:28.891 +0100|20498.32957175|-0.339141845703125|0.99884033203125|0.5677947998046875|20498.30961175|-2.996587268437054|-2.788548845749183|-1.033742539519162|0.09495436400175095|-0.6439423561096191|-0.3512474894523621|-0.1409502625465393|0.1057915091514587|0.06381618976593018|XArbitraryZVertical|0.8598976978209655|-0.02455240422472271|0.1170255478031687|-0.4962643787171417|-0.176891028881073|0.8592197299003601|0.4800537526607513|0|0|0|-1|-1|3
2021-04-08 20:30:28.911 +0100|20498.34953175|-0.289306640625|1.02581787109375|0.5265960693359375|20498.32957175|-2.98016647179709|-2.786078215869312|-1.036430482289219|0.4651998281478882|-0.5183607935905457|-0.3410570919513702|-0.1632286012172699|0.1122929453849792|0.08952343463897705|XArbitraryZVertical|0.8592944408965361|-0.01836436275041141|0.1137996119493128|-0.4983228212012366|-0.1772719919681549|0.8605917692184448|0.4774483740329742|0|0|0|-1|-1|3
2021-04-08 20:30:28.931 +0100|20498.36949175|-0.265472412109375|0.9679412841796875|0.52178955078125|20498.34953175|-2.958109128676958|-2.775671785831205|-1.046511960334015|0.8008994460105896|-0.3842068612575531|-0.3423281013965607|-0.1249606013298035|0.1737000942230225|0.06083866953849792|XArbitraryZVertical|0.8564868327833535|-0.012503812462011|0.1119190815967811|-0.5037342907131466|-0.1791172474622726|0.8656824231147766|0.4674520790576935|0|0|0|-1|-1|3
2021-04-08 20:30:28.951 +0100|20498.38945175|-0.2386627197265625|0.9219970703125|0.5145111083984375|20498.36949175|-2.932605819566751|-2.761086347138993|-1.059412894029722|0.8445085883140564|-0.3762946128845215|-0.3680842518806458|-0.0874892920255661|0.1075148582458496|0.07116213440895081|XArbitraryZVertical|0.8527290079026565|-0.006645983980955364|0.1105497543534194|-0.5104780536574874|-0.1817527115345001|0.8720682859420776|0.4543818533420563|0|0|0|-1|-1|3
2021-04-08 20:30:28.971 +0100|20498.40941175|-0.2242889404296875|0.83203125|0.4937896728515625|20498.38945175|-2.905014312629351|-2.743784900761032|-1.073251869819898|0.9040385484695435|-0.3005216419696808|-0.347790002822876|-0.06046876311302185|0.0610310435295105|0.07588481903076172|XArbitraryZVertical|0.84852778608051|-0.0008867164495575714|0.1094904141681039|-0.5176984215952904|-0.1848932206630707|0.8787571787834167|0.4400003850460052|0|0|0|-1|-1|3
2021-04-08 20:30:28.991 +0100|20498.42937175|-0.2345733642578125|0.7880706787109375|0.4864349365234375|20498.40941175|-2.876363596630447|-2.724545114240206|-1.086237415968668|0.7907032370567322|-0.2950036823749542|-0.3642766177654266|-0.03931166231632233|-0.04369425773620605|0.0658988356590271|XArbitraryZVertical|0.8443485018661383|0.00469870090587407|0.1088152171393453|-0.5246074818997242|-0.18868587911129|0.8848804831504822|0.4258929491043091|0|0|0|-1|-1|3
2021-04-08 20:30:29.011 +0100|20498.44933175|-0.2208404541015625|0.8153228759765625|0.44036865234375|20498.42937175|-2.850411684312509|-2.707129699370583|-1.095253385628171|0.548818826675415|-0.2576866149902344|-0.3485587537288666|-0.03927233815193176|-0.1044225692749023|0.07715970277786255|XArbitraryZVertical|0.8411572900388677|0.009920462744721492|0.1083014418267973|-0.5297422337543134|-0.1927076727151871|0.8890442848205566|0.4152880012989044|0|0|0|-1|-1|3
2021-04-08 20:30:29.031 +0100|20498.46929175|-0.2458953857421875|0.8840484619140625|0.4208221435546875|20498.44933175|-2.828051711088796|-2.692285821904471|-1.099378116796554|0.2674656212329865|-0.2638678848743439|-0.3811420798301697|-0.03203822672367096|-0.05916905403137207|0.04530197381973267|XArbitraryZVertical|0.8392363177439059|0.01483191283545877|0.1081066980842437|-0.5327057130867869|-0.1972562223672867|0.8909251093864441|0.4090751707553864|0|0|0|-1|-1|3
2021-04-08 20:30:29.050 +0100|20498.48925275|-0.24835205078125|0.886138916015625|0.4177703857421875|20498.46929175|-2.809743341513791|-2.681615043660518|-1.100050601239545|0.1933529824018478|-0.2603519558906555|-0.3319953978061676|-0.03425225615501404|-0.03370207548141479|0.01158997416496277|XArbitraryZVertical|0.8383447799317035|0.01957334595879778|0.1076154080332255|-0.5340541982877688|-0.2013440877199173|0.8912302851676941|0.4064101576805115|0|0|0|-1|-1|3
2021-04-08 20:30:29.070 +0100|20498.50921275|-0.2520599365234375|0.8572998046875|0.450164794921875|20498.48925275|-2.794183519093083|-2.67191882618437|-1.100695238290267|0.290384829044342|-0.1700482219457626|-0.2303410172462463|-0.04504647850990295|0.0007346868515014648|0.01128131151199341|XArbitraryZVertical|0.8375053538728916|0.02341022097154947|0.1074348031214342|-0.5352518899484664|-0.2050151824951172|0.8915225267410278|0.4039265215396881|0|0|0|-1|-1|3
2021-04-08 20:30:29.090 +0100|20498.52917275|-0.23431396484375|0.7953643798828125|0.4568023681640625|20498.50921275|-2.782160746787827|-2.664078152850583|-1.102354818780232|0.3067498803138733|-0.1138723567128181|-0.1132911071181297|-0.04551087319850922|-0.0246129035949707|0.04322263598442078|XArbitraryZVertical|0.8365493036717571|0.02610333460249795|0.1072733427939682|-0.5366530130219477|-0.2074957489967346|0.8922730088233948|0.4009922444820404|0|0|0|-1|-1|3
2021-04-08 20:30:29.110 +0100|20498.54913275|-0.2365875244140625|0.8056182861328125|0.4347991943359375|20498.52917275|-2.775184268720773|-2.660412244833442|-1.103896508238909|0.1375731527805328|-0.1504106521606445|-0.01787146553397179|-0.03103768825531006|-0.09253787994384766|0.05614611506462097|XArbitraryZVertical|0.83590142843634|0.02781162489926774|0.1067229921507192|-0.5376855931768931|-0.2083276212215424|0.8929680585861206|0.3990093767642975|0|0|0|-1|-1|3
2021-04-08 20:30:29.130 +0100|20498.56909275|-0.2042999267578125|0.79876708984375|0.41925048828125|20498.54913275|-2.773455244762232|-2.661978562417556|-1.103922086762673|0.02089916728436947|-0.1338040381669998|0.02870952896773815|-0.0324365496635437|-0.1005910038948059|0.04662451148033142|XArbitraryZVertical|0.8359539780983968|0.02895162764009997|0.1055998745808615|-0.5377653221871795|-0.2076916396617889|0.8929795622825623|0.3993144929409027|0|0|0|-1|-1|3
2021-04-08 20:30:29.150 +0100|20498.58905275|-0.21820068359375|0.8677825927734375|0.410064697265625|20498.56909275|-2.775258065551715|-2.666339563286454|-1.102859038103956|-0.08679510653018951|-0.1625994592905045|0.08172231912612915|-0.004448890686035156|-0.0965263843536377|0.02815538644790649|XArbitraryZVertical|0.8364558382501275|0.0295244689294831|0.1044060566461165|-0.537186537614818|-0.2063824087381363|0.8925005793571472|0.4010601341724396|0|0|0|-1|-1|3
2021-04-08 20:30:29.170 +0100|20498.60901275|-0.19927978515625|0.898712158203125|0.39642333984375|20498.58905275|-2.780375275583844|-2.673773338016677|-1.101285866660678|-0.03763376921415329|-0.1223556399345398|0.1346734166145325|-0.01333370804786682|-0.04782664775848389|0.01860427856445312|XArbitraryZVertical|0.8372823147190502|0.02960448447741687|0.1028812103664174|-0.5361879510962142|-0.2040283679962158|0.8917899131774902|0.403836190700531|0|0|0|-1|-1|3
2021-04-08 20:30:29.190 +0100|20498.62897275|-0.2022552490234375|0.906036376953125|0.3983306884765625|20498.60901275|-2.785642343148117|-2.680522962820395|-1.101726589358441|0.1446830034255981|-0.08491852134466171|0.2140190154314041|-0.0006904751062393188|-0.005225241184234619|-0.00607752799987793|XArbitraryZVertical|0.8376015067861449|0.02914564956160086|0.1014080035408349|-0.5359949824040341|-0.201122835278511|0.8919892311096191|0.404851496219635|0|0|0|-1|-1|3
2021-04-08 20:30:29.210 +0100|20498.6489325|-0.1951904296875|0.8771209716796875|0.4087066650390625|20498.62897275|-2.789900587703717|-2.686074999777135|-1.104866566463844|0.2496275007724762|-0.08236071467399597|0.2283263206481934|-0.005471318960189819|0.007184267044067383|-0.003114521503448486|XArbitraryZVertical|0.8372068198568667|0.02841201066712123|0.09981248066757915|-0.5369497588929978|-0.1976390182971954|0.8934042453765869|0.4034450054168701|0|0|0|-1|-1|3
2021-04-08 20:30:29.230 +0100|20498.6688925|-0.1971893310546875|0.9062042236328125|0.3911285400390625|20498.6489325|-2.793113929009786|-2.690653035614774|-1.110390123904241|0.3358132541179657|-0.09589836001396179|0.2393824458122253|0.0003985762596130371|-0.01051169633865356|0.008824706077575684|XArbitraryZVertical|0.8361764526888632|0.02753291691743654|0.09804164075030844|-0.5389238314483268|-0.1936365067958832|0.8958721160888672|0.3998982310295105|0|0|0|-1|-1|3
2021-04-08 20:30:29.250 +0100|20498.6888525|-0.1953277587890625|0.8731842041015625|0.3614349365234375|20498.6688925|-2.795071632962667|-2.69411884693313|-1.118297138896326|0.4412105977535248|-0.0810641273856163|0.2568001449108124|-0.01387107372283936|-0.01181495189666748|0.007047593593597412|XArbitraryZVertical|0.8344928804580294|0.02656328434874563|0.09609889600208731|-0.5419235182216484|-0.1891782283782959|0.8993572592735291|0.394167959690094|0|0|0|-1|-1|3
2021-04-08 20:30:29.270 +0100|20498.7088135|-0.1891326904296875|0.8727874755859375|0.328125|20498.6888525|-2.796032763742468|-2.697194142516124|-1.127321706524254|0.3853828310966492|-0.1445628851652145|0.2190363258123398|-0.008250817656517029|-0.0248790979385376|-0.01635515689849854|XArbitraryZVertical|0.8324892282912061|0.02576339221741387|0.09391401259774843|-0.5454156540400388|-0.1844683289527893|0.9032662510871887|0.3874041438102722|0|0|0|-1|-1|3
2021-04-08 20:30:29.290 +0100|20498.7287735|-0.167877197265625|0.8262176513671875|0.300567626953125|20498.7088135|-2.796868164451611|-2.701250778465865|-1.135002498206456|0.2990394234657288|-0.1933256834745407|0.1690090298652649|-0.01072657108306885|-0.03414487838745117|-0.041971355676651|XArbitraryZVertical|0.8308319285948446|0.02547970323943657|0.09146754963300394|-0.5483638324748269|-0.1799326241016388|0.9065352082252502|0.3818618059158325|0|0|0|-1|-1|3
2021-04-08 20:30:29.310 +0100|20498.7487335|-0.1495361328125|0.8234100341796875|0.2908935546875|20498.7287735|-2.798457333055431|-2.707243011425616|-1.139074311887169|0.0952267050743103|-0.2670058012008667|0.1077644824981689|0.004546508193016052|-0.07243150472640991|-0.07030013203620911|XArbitraryZVertical|0.8301320438256691|0.02591518655822027|0.08889478323189946|-0.5498245737964828|-0.17608642578125|0.9082465171813965|0.3795816004276276|0|0|0|-1|-1|3
2021-04-08 20:30:29.330 +0100|20498.7686935|-0.14501953125|0.828094482421875|0.2928009033203125|20498.7487335|-2.801519203219723|-2.715673757068982|-1.138876867998369|-0.1051346510648727|-0.3174679577350616|0.05813772231340408|0.01821418106555939|-0.08483046293258667|-0.09488379955291748|XArbitraryZVertical|0.8305899662450142|0.02698732335090696|0.08626100866199671|-0.549500869225599|-0.1729541718959808|0.9081639051437378|0.3812160193920135|0|0|0|-1|-1|3
2021-04-08 20:30:29.350 +0100|20498.7886535|-0.141998291015625|0.8366546630859375|0.330535888671875|20498.7686935|-2.805301937129671|-2.725464154338265|-1.134756959864279|-0.3639804124832153|-0.3468109965324402|-0.04718825593590736|0.02382752299308777|-0.08468526601791382|-0.09799370169639587|XArbitraryZVertical|0.832066400902125|0.02864018514001994|0.0837429949885329|-0.5475695096435624|-0.1707244515419006|0.9064315557479858|0.3863095045089722|0|0|0|-1|-1|3
2021-04-08 20:30:29.370 +0100|20498.8086135|-0.1583404541015625|0.8026123046875|0.3402252197265625|20498.7886535|-2.810850754135429|-2.737014238990396|-1.126254292529079|-0.6203367710113525|-0.4304477572441101|-0.09873133897781372|0.0380985289812088|-0.08933168649673462|-0.1016547381877899|XArbitraryZVertical|0.8347026761068069|0.03057066079612862|0.08148498302203858|-0.5437803371381029|-0.1692789196968079|0.9028077125549316|0.3953262567520142|0|0|0|-1|-1|3
2021-04-08 20:30:29.390 +0100|20498.8285735|-0.16326904296875|0.783355712890625|0.3529510498046875|20498.8086135|-2.81669739533433|-2.750327473098817|-1.112557990497548|-0.7346667647361755|-0.4107352793216705|-0.1850811392068863|0.009795486927032471|-0.1074965596199036|-0.06845241785049438|XArbitraryZVertical|0.8386601884886907|0.03343798991206225|0.07913378340593855|-0.5378372287376023|-0.168701097369194|0.8968331813812256|0.4089380204677582|0|0|0|-1|-1|3
2021-04-08 20:30:29.410 +0100|20498.8485335|-0.2313079833984375|0.68768310546875|0.424041748046875|20498.8285735|-2.817188648072246|-2.759607850668746|-1.100712827775785|-0.3056222498416901|-0.4778687357902527|-0.232057973742485|0.01024658977985382|-0.09935569763183594|-0.08503204584121704|XArbitraryZVertical|0.8418883622830948|0.03716467014796836|0.07675548146849573|-0.5328709209111703|-0.1688470393419266|0.891530454158783|0.4203144609928131|0|0|0|-1|-1|3
2021-04-08 20:30:29.430 +0100|20498.8684935|-0.3002166748046875|0.4521636962890625|0.3824310302734375|20498.8485335|-2.80471670469529|-2.758367026148607|-1.098806555009704|0.2926243543624878|-0.532254695892334|-0.4146890640258789|-0.03885914385318756|-0.1608682870864868|-0.01335424184799194|XArbitraryZVertical|0.8420507457428532|0.04231759818682113|0.07418050393002995|-0.5325947809825998|-0.1700037568807602|0.8906654119491577|0.4216804802417755|0|0|0|-1|-1|3
2021-04-08 20:30:29.450 +0100|20498.8884535|-0.3228607177734375|0.102752685546875|0.2666778564453125|20498.8684935|-2.767670829711674|-2.738496383412159|-1.102226100298155|0.6001936197280884|-0.8010633587837219|-1.024925708770752|-0.1159384846687317|-0.3724552392959595|-0.02709320187568665|XArbitraryZVertical|0.839635616190619|0.05215018777769131|0.07221534601596273|-0.5357961071749625|-0.1771528869867325|0.8922148942947388|0.4154152274131775|0|0|0|-1|-1|3
2021-04-08 20:30:29.470 +0100|20498.9084145|-0.388153076171875|0.01953125|0.1883697509765625|20498.8884535|-2.698910811816671|-2.696445161758165|-1.100448316066893|0.4740449190139771|-1.154486656188965|-1.837682962417603|-0.1277646124362946|-0.7121203541755676|-0.1291078925132751|XArbitraryZVertical|0.8364374261033344|0.06991500544499099|0.07161049173237991|-0.5388471944406243|-0.1951424032449722|0.8914106488227844|0.4090313613414764|0|0|0|-1|-1|3
2021-04-08 20:30:29.489 +0100|20498.9283745|-0.4234161376953125|0.5931549072265625|0.153076171875|20498.9084145|-2.608510607555742|-2.640874307070819|-1.087706798660264|0.448296457529068|-1.29620361328125|-2.365409851074219|-0.1434610038995743|-0.9025474190711975|-0.1719722747802734|XArbitraryZVertical|0.8335339036454698|0.09469761686169632|0.07247833356280373|-0.5394448018398031|-0.2229945659637451|0.8855640292167664|0.4074928164482117|0|0|0|-1|-1|3
2021-04-08 20:30:29.509 +0100|20498.9483345|-0.3098907470703125|0.8534393310546875|0.2175750732421875|20498.9283745|-2.499347406905311|-2.569160943337396|-1.076312434756671|1.320774674415588|-1.088429093360901|-2.621335029602051|-0.1773651838302612|-0.4311175346374512|-0.242611438035965|XArbitraryZVertical|0.8272909103446353|0.1226847348701866|0.07482997201174574|-0.5430826928969976|-0.2570682168006897|0.880213737487793|0.3989235758781433|0|0|0|-1|-1|3
2021-04-08 20:30:29.529 +0100|20498.9682945|-0.2195892333984375|0.941497802734375|0.3034210205078125|20498.9483345|-2.36134427369098|-2.467441887030804|-1.075884149821341|2.42117977142334|-0.9163464903831482|-2.708219289779663|-0.03972950577735901|-0.07332432270050049|-0.1784245669841766|XArbitraryZVertical|0.8139883898552459|0.1514899501164489|0.07878696990721151|-0.5552175588172413|-0.2964831292629242|0.8800104260444641|0.3710525929927826|0|0|0|-1|-1|3
2021-04-08 20:30:29.549 +0100|20498.9882545|-0.1826171875|1.077667236328125|0.34661865234375|20498.9682945|-2.207388221934757|-2.34876691242858|-1.077435796239392|2.701079845428467|-0.906916618347168|-2.616302490234375|0.09870815277099609|0.01192301511764526|-0.004911422729492188|XArbitraryZVertical|0.7961819772429403|0.1796801385963266|0.08281723953558663|-0.5717961338797373|-0.3373560011386871|0.8807463049888611|0.332381397485733|0|0|0|-1|-1|3
2021-04-08 20:30:29.569 +0100|20499.0082145|-0.201995849609375|1.178665161132812|0.3061981201171875|20498.9882545|-2.052626026499333|-2.231732671335458|-1.074554593226806|2.731388330459595|-1.026360154151917|-2.435183763504028|0.1989045739173889|0.1879280209541321|0.09142661094665527|XArbitraryZVertical|0.7766163438160608|0.2073717589763859|0.08476673976997642|-0.5887943461191896|-0.3758611083030701|0.8793781399726868|0.2922719717025757|0|0|0|-1|-1|3
2021-04-08 20:30:29.589 +0100|20499.0281745|-0.2870941162109375|1.295089721679688|0.0982513427734375|20499.0082145|-1.902192161021274|-2.122708207411166|-1.067858300318779|2.541071891784668|-1.275967240333557|-2.231105089187622|0.2227988839149475|0.3290755748748779|0.05948951840400696|XArbitraryZVertical|0.7559142415875398|0.2344238427293464|0.08370548066208766|-0.6055021071528995|-0.410436600446701|0.8761702179908752|0.252721756696701|0|0|0|-1|-1|3
2021-04-08 20:30:29.609 +0100|20499.0481345|-0.3674468994140625|1.658843994140625|-0.1895904541015625|20499.0281745|-1.780265979089177|-2.045291041302337|-1.054900932679967|2.043882131576538|-1.620056748390198|-1.802841544151306|0.1855336725711823|0.3362181782722473|-0.07905678451061249|XArbitraryZVertical|0.7382100365033157|0.2602706711473567|0.07959954225919438|-0.6172269193004823|-0.4388144910335541|0.8698513507843018|0.225389763712883|0|0|0|-1|-1|3
2021-04-08 20:30:29.629 +0100|20499.0680945|-0.411468505859375|2.052352905273438|-0.28515625|20499.0481345|-1.689670386709495|-1.999073081686421|-1.042469460116634|1.786262392997742|-1.725776672363281|-1.31718647480011|0.1063881814479828|0.6702682971954346|-0.2785933017730713|XArbitraryZVertical|0.7243081912689678|0.2829359039244059|0.07258575944393332|-0.6245448643029111|-0.4585612416267395|0.8636516928672791|0.2093501687049866|0|0|0|-1|-1|3
2021-04-08 20:30:29.649 +0100|20499.0880545|-0.3901214599609375|2.369796752929688|-0.4243621826171875|20499.0680945|-1.60560570908642|-1.961449564373163|-1.03749165757617|2.01829719543457|-1.733356356620789|-0.8132157325744629|0.07207044959068298|1.116803765296936|-0.4405503273010254|XArbitraryZVertical|0.7106872574651002|0.3028492531225448|0.06140087910968185|-0.6320094761250691|-0.4700808525085449|0.8611317276954651|0.1935880929231644|0|0|0|-1|-1|3
2021-04-08 20:30:29.669 +0100|20499.1080145|-0.3146820068359375|2.492538452148438|-0.607208251953125|20499.0880545|-1.509305993595473|-1.911323387881025|-1.045781132746734|2.81019926071167|-1.537091851234436|-0.1387220770120621|0.06824016571044922|1.427011489868164|-0.5693321228027344|XArbitraryZVertical|0.694651654639908|0.3180564695157238|0.04537060266342997|-0.6436155067808117|-0.4724456667900085|0.8653163313865662|0.1674016714096069|0|0|0|-1|-1|3
2021-04-08 20:30:29.689 +0100|20499.1279755|-0.1868438720703125|2.475906372070312|-0.79644775390625|20499.1080145|-1.385649577918379|-1.833552507617151|-1.069208639762286|3.74979043006897|-1.499364852905273|0.5169627666473389|0.1268981099128723|1.595362901687622|-0.6985880136489868|XArbitraryZVertical|0.6746875659301915|0.3274772491147479|0.02322843255247148|-0.6610717981542272|-0.4643158316612244|0.8768202662467957|0.1248893216252327|0|0|0|-1|-1|3
2021-04-08 20:30:29.709 +0100|20499.1479355|-0.0845184326171875|2.370376586914062|-0.969696044921875|20499.1279755|-1.213512351381742|-1.709573900367878|-1.10311087499602|4.722466945648193|-1.375098347663879|1.215739130973816|0.2279510796070099|1.598489999771118|-0.8012079000473022|XArbitraryZVertical|0.6489459838295529|0.3317390140111376|-0.005994788440459838|-0.6846769515511913|-0.4464875161647797|0.8926141262054443|0.06236332654953003|0|0|0|-1|-1|3
2021-04-08 20:30:29.729 +0100|20499.1678955|0.048126220703125|2.07879638671875|-1.182693481445312|20499.1479355|-0.9775770564618571|-1.522539928389411|-1.139249833616418|5.632569789886475|-1.17270815372467|1.907183885574341|0.2986946702003479|1.485494256019592|-0.9071444869041443|XArbitraryZVertical|0.6174973254554651|0.3295583578887107|-0.04221220542080394|-0.7129562903513254|-0.4177895486354828|0.9083199501037598|-0.02017668448388577|0|0|0|-1|-1|3
2021-04-08 20:30:29.749 +0100|20499.1878555|0.220703125|2.010055541992188|-1.355239868164062|20499.1678955|-0.6795507520476356|-1.271409394173182|-1.162106180420475|6.036130905151367|-0.8288779258728027|2.443327188491821|0.381363183259964|1.246634364128113|-1.002723455429077|XArbitraryZVertical|0.5818321857110438|0.3207282431745344|-0.08311629775398299|-0.7427628521523826|-0.3797305822372437|0.9176421761512756|-0.117209404706955|0|0|0|-1|-1|3
2021-04-08 20:30:29.769 +0100|20499.2078155|0.381256103515625|1.6959228515625|-1.432144165039062|20499.1878555|-0.3416073584633736|-0.9771398722437796|-1.157289006862052|6.213799953460693|-0.7425743937492371|2.806504726409912|0.5278199911117554|1.135690093040466|-1.142743587493896|XArbitraryZVertical|0.5426711852992879|0.3051536740818684|-0.1273001847685503|-0.7721295315432836|-0.3330720365047455|0.9157171249389648|-0.2247784435749054|0|0|0|-1|-1|3
2021-04-08 20:30:29.789 +0100|20499.2277755|0.537445068359375|1.00640869140625|-1.3486328125|20499.2078155|-0.02883624809648394|-0.7023835266929395|-1.115358891655678|6.279351711273193|-0.270235151052475|2.807044506072998|0.6024468541145325|0.8920471668243408|-1.086893081665039|XArbitraryZVertical|0.5010736396383089|0.2846987483460893|-0.1705547603060432|-0.7992390629412598|-0.2841637432575226|0.8980687260627747|-0.3357436656951904|0|0|0|-1|-1|3
2021-04-08 20:30:29.809 +0100|20499.2477355|0.635467529296875|0.3486785888671875|-1.379196166992188|20499.2277755|0.20921462796069|-0.4912149414855007|-1.04277047595552|5.997981548309326|0.3541248142719269|2.410996675491333|0.7363275289535522|0.3152590990066528|-0.9137593507766724|XArbitraryZVertical|0.4584781800828237|0.2601335879289147|-0.2082699728714679|-0.8238640234264956|-0.2376549392938614|0.8638033866882324|-0.4442565441131592|0|0|0|-1|-1|3
2021-04-08 20:30:29.829 +0100|20499.2676955|0.4673614501953125|-0.1071624755859375|-1.590957641601562|20499.2477355|0.3582508780279758|-0.3515412150062038|-0.9597594922795757|4.8726487159729|1.114763379096985|1.447185277938843|0.8127759099006653|-0.2777168154716492|-0.7853890657424927|XArbitraryZVertical|0.4196492307240038|0.2336222487331202|-0.2350493175571098|-0.8450249118053421|-0.1975567042827606|0.819053590297699|-0.5386303067207336|0|0|0|-1|-1|3
2021-04-08 20:30:29.849 +0100|20499.2876555|-0.7615203857421875|-0.0914459228515625|-1.520843505859375|20499.2676955|0.4274858234270262|-0.2650811283770066|-0.8836903070689118|3.525631666183472|2.100582361221313|0.05487863719463348|0.786952793598175|-0.7779974341392517|-0.9639931917190552|XArbitraryZVertical|0.388872276425862|0.2066512520127431|-0.2452899898432327|-0.8636588187726593|-0.1661794036626816|0.7730849385261536|-0.6121472120285034|0|0|0|-1|-1|3
2021-04-08 20:30:29.869 +0100|20499.3076155|-1.681991577148438|0.2857208251953125|-0.8717803955078125|20499.2876555|0.4237745576888613|-0.2059675332351543|-0.8234554679952006|2.367215871810913|4.248342514038086|-1.780529379844666|-0.2463846802711487|-0.8991169929504395|-0.9388311505317688|XArbitraryZVertical|0.3693573606942815|0.1758206805587532|-0.2319296944057199|-0.8825366020893605|-0.139006495475769|0.7334988713264465|-0.6653244495391846|0|0|0|-1|-1|3
2021-04-08 20:30:29.889 +0100|20499.3275765|-2.034469604492188|0.2798004150390625|0.2223968505859375|20499.3076155|0.3528346412570502|-0.147815577007239|-0.7852708223007824|0.4321230351924896|6.706737995147705|-3.847961187362671|-1.462618112564087|-0.4127043485641479|-0.4454573392868042|XArbitraryZVertical|0.3636843064538505|0.1341313172488046|-0.1895204817930251|-0.9021223301628654|-0.104154460132122|0.7070167064666748|-0.6994850039482117|0|0|0|-1|-1|3
2021-04-08 20:30:29.909 +0100|20499.3475365|-2.9010009765625|-0.57098388671875|0.1580963134765625|20499.3275765|0.2204473366367456|-0.08198452130843745|-0.7874367972457268|-1.785947203636169|8.701478004455566|-5.44669246673584|-1.927441000938416|-0.4539225697517395|0.6987015604972839|XArbitraryZVertical|0.3768135629765025|0.07977914273455629|-0.1171248415971605|-0.9153845183661526|-0.05778872594237328|0.7085468173027039|-0.7032936811447144|0|0|0|-1|-1|3
2021-04-08 20:30:29.929 +0100|20499.3674965|-5.545639038085938|-1.2589111328125|1.61273193359375|20499.3475365|0.04988103934640244|-0.02746771642209231|-0.8617114337284806|-6.825264930725098|8.526422500610352|-5.917777538299561|-2.499481916427612|-0.9763035178184509|0.88023442029953|XArbitraryZVertical|0.4171680225470185|0.02288873789653656|-0.02839064776058156|-0.9080974125967579|-0.0178830660879612|0.7589580416679382|-0.6508938670158386|0|0|0|-1|-1|3
2021-04-08 20:30:29.949 +0100|20499.3874565|-5.792938232421875|3.124496459960938|3.256301879882812|20499.3674965|-0.1077054586175753|0.0118478772829495|-1.064248322966185|-12.97644519805908|7.800520896911621|-2.076819181442261|-4.843761444091797|-2.549030303955078|1.45387864112854|XArbitraryZVertical|0.5063456163224805|-0.03240669360769469|0.049384550413686|-0.8603053747136884|0.00574800418689847|0.8744245171546936|-0.4851278364658356|0|0|0|-1|-1|3
2021-04-08 20:30:29.969 +0100|20499.4074165|1.20477294921875|-0.6542816162109375|0.79931640625|20499.3874565|-0.03563887358352429|0.2802218333742608|-1.330377020236882|-12.9555835723877|11.69364833831787|0.07013259828090668|-6.839322566986084|1.619231462478638|3.74591326713562|XArbitraryZVertical|0.6091040722552385|-0.120751451243995|0.1000632923621012|-0.7774308913671784|0.06585390120744705|0.9712381958961487|-0.2288226336240768|0|0|0|-1|-1|3
2021-04-08 20:30:29.988 +0100|20499.4273765|-0.0441131591796875|1.693313598632812|0.82989501953125|20499.4074165|1.472482207774967|1.956614097335745|-1.458267177678084|-13.10130310058594|4.518119812011719|1.605647683143616|-0.1605423986911774|-0.6393355131149292|1.30108106136322|XArbitraryZVertical|0.6911011449343799|-0.208585789337868|0.129877319855759|-0.6797081396277792|0.1040381863713264|0.9936752915382385|0.0422576479613781|0|0|0|-1|-1|3
2021-04-08 20:30:30.009 +0100|20499.4473365|-1.658050537109375|5.422760009765625|-1.2314453125|20499.4273765|2.158896125283841|2.58045743504172|-1.227175005313759|-11.98702812194824|-5.188779830932617|4.528347969055176|0.8334600925445557|-0.8763857483863831|0.1162233054637909|XArbitraryZVertical|0.7679046318373853|-0.2300882018197987|0.06144194032801589|-0.5946485107521455|0.1792801171541214|0.9415408372879028|0.2852362096309662|0|0|0|-1|-1|3
2021-04-08 20:30:30.028 +0100|20499.4672965|-1.13482666015625|1.803024291992188|-0.1791229248046875|20499.4473365|2.228054869078003|2.579240492184509|-1.0485433783138|-2.478196859359741|-3.578328609466553|2.636306762695312|-2.034904479980469|4.61894416809082|-0.8810754418373108|XArbitraryZVertical|0.8076937004968846|-0.2421544574515058|-0.003477867395596781|-0.5375688175454459|0.2659674882888794|0.8666975498199463|0.4220157861709595|0|0|0|-1|-1|3
2021-04-08 20:30:30.048 +0100|20499.4872565|-0.447296142578125|0.2035064697265625|0.4726104736328125|20499.4672965|2.127693738086811|2.424174218514607|-1.059407269378567|4.748005390167236|-2.465477466583252|0.914909839630127|-1.609953761100769|1.722569465637207|-0.8865178823471069|XArbitraryZVertical|0.7925271033588266|-0.2372331283335045|-0.0351477378031845|-0.5607013132334039|0.3217449188232422|0.872065544128418|0.3687575459480286|0|0|0|-1|-1|3
2021-04-08 20:30:30.068 +0100|20499.5072165|0.2529754638671875|-0.5273895263671875|0.7498016357421875|20499.4872565|1.919368250417695|2.208461309804321|-1.131316824147356|6.459249496459961|-0.7740370631217957|0.2178085148334503|-1.034074783325195|-0.3956804871559143|0.06238433718681335|XArbitraryZVertical|0.7558692747352698|-0.2351741091144553|-0.03636385897144097|-0.6099447008316288|0.3418590426445007|0.9049732685089111|0.2532904446125031|0|0|0|-1|-1|3
2021-04-08 20:30:30.088 +0100|20499.5271765|0.3864593505859375|-0.2545013427734375|0.725006103515625|20499.5072165|1.672676059374564|1.966007609331988|-1.197151581264571|4.986706256866455|-0.8716588616371155|-0.9954614639282227|-0.1950908303260803|-1.375338792800903|0.5411567687988281|XArbitraryZVertical|0.7196511810370814|-0.2288394417257213|-0.02576175477639909|-0.6550352418704516|0.3368747532367706|0.9310031533241272|0.1405306309461594|0|0|0|-1|-1|3
2021-04-08 20:30:30.108 +0100|20499.5471375|0.3699188232421875|0.3680267333984375|0.6135711669921875|20499.5271765|1.466968938473067|1.756954454396022|-1.249086761531759|3.407309055328369|-0.6197342276573181|-1.824020504951477|0.04234588146209717|-1.339183568954468|0.689358115196228|XArbitraryZVertical|0.695315340980981|-0.2140035091533659|-0.01230826483314822|-0.6859939847879343|0.3107264935970306|0.9486962556838989|0.05852185189723969|0|0|0|-1|-1|3
2021-04-08 20:30:30.128 +0100|20499.5670975|0.347015380859375|0.4609832763671875|0.45721435546875|20499.5471375|1.248997917129772|1.539336699233212|-1.294478873713062|3.389852046966553|-0.2669189870357513|-2.130545616149902|0.1250697374343872|-0.7377315163612366|0.6089544892311096|XArbitraryZVertical|0.6758907024263459|-0.1971829896108276|0.005447794727403465|-0.7101134723427286|0.2726803719997406|0.9620665907859802|-0.008581253699958324|0|0|0|-1|-1|3
2021-04-08 20:30:30.148 +0100|20499.5870575|0.4105072021484375|0.553497314453125|0.211273193359375|20499.5670975|0.9818552207764603|1.280396592478128|-1.327662822830401|2.65363073348999|0.04711152240633965|-2.138871192932129|0.1013499349355698|-0.495963454246521|0.6088822484016418|XArbitraryZVertical|0.6575846927010698|-0.1819764373830526|0.02678892100301027|-0.7305815289627623|0.2306652814149857|0.9705883860588074|-0.06893389672040939|0|0|0|-1|-1|3
2021-04-08 20:30:30.168 +0100|20499.6070175|0.357879638671875|0.540496826171875|0.037353515625|20499.5870575|0.7243031201982083|1.030679883572428|-1.348523117719281|1.740869641304016|0.02338435500860214|-2.115697622299194|0.19908507168293|-0.4371294379234314|0.3307094573974609|XArbitraryZVertical|0.644395516005888|-0.1675506097316146|0.04691274089425438|-0.7446345499115451|0.1890672296285629|0.97539883852005|-0.1133624240756035|0|0|0|-1|-1|3
2021-04-08 20:30:30.188 +0100|20499.6269775|0.267303466796875|0.8661041259765625|0.0669097900390625|20499.6070175|0.5002487804992432|0.8120530949895547|-1.361038958499979|1.718633770942688|0.0911170095205307|-1.726179242134094|0.2448873668909073|-0.4924701452255249|0.2164722681045532|XArbitraryZVertical|0.6360393446022442|-0.1543505209977208|0.06402965592745545|-0.7533460402611279|0.1511079519987106|0.9780814647674561|-0.143259733915329|0|0|0|-1|-1|3
2021-04-08 20:30:30.208 +0100|20499.646936375|0.2441864013671875|0.7013092041015625|0.1622467041015625|20499.6269775|0.2745368527494927|0.5974262120910944|-1.350609639355779|2.099405765533447|0.4963533878326416|-1.317578434944153|0.14860799908638|-0.1638752222061157|0.2413565665483475|XArbitraryZVertical|0.6232632214861098|-0.1457839891222551|0.08016643076161939|-0.764109524370729|0.1228602901101112|0.9758566617965698|-0.1805799752473831|0|0|0|-1|-1|3
2021-04-08 20:30:30.228 +0100|20499.666896375|0.1486968994140625|0.8838348388671875|0.1508026123046875|20499.646936375|0.105914585719363|0.4417620445356161|-1.331550118812171|1.325194954872131|0.3171394467353821|-1.053788542747498|0.1697739660739899|-0.2131088972091675|0.3564801216125488|XArbitraryZVertical|0.6109377064445857|-0.1401582090894911|0.09451801633172122|-0.77341921726131|0.1013128608465195|0.9715168476104736|-0.2142215967178345|0|0|0|-1|-1|3
2021-04-08 20:30:30.248 +0100|20499.686856375|0.151763916015625|0.9412994384765625|0.028106689453125|20499.666896375|0.007932166922625165|0.3530851381966557|-1.318775762749895|0.7205123901367188|0.3124833703041077|-0.6651459336280823|0.08122139424085617|-0.1589314937591553|0.3692483007907867|XArbitraryZVertical|0.6036566280025301|-0.1364167210977952|0.1045080857383414|-0.7785032121393181|0.08622771501541138|0.9684105515480042|-0.2339783012866974|0|0|0|-1|-1|3
2021-04-08 20:30:30.268 +0100|20499.706816375|0.1895904541015625|0.8634185791015625|-0.0390625|20499.686856375|-0.04772254792527269|0.3065347398248307|-1.314179208708586|0.1951179355382919|0.363261878490448|-0.5244442224502563|0.05127879977226257|0.01190274953842163|0.2984374165534973|XArbitraryZVertical|0.6005987067892088|-0.1352465878449414|0.1118947395354862|-0.7800444339692756|0.07658902555704117|0.967254102230072|-0.241979107260704|0|0|0|-1|-1|3
2021-04-08 20:30:30.288 +0100|20499.726777375|0.1806488037109375|0.9745635986328125|-0.0774688720703125|20499.726777375|-0.09820273360875408|0.2709501609800059|-1.321624372187421|-0.254248708486557|0.3412824273109436|-0.2795198559761047|0.1071687787771225|-0.01153600215911865|0.1565973162651062|XArbitraryZVertical|0.6021678165083943|-0.1363495379379189|0.1211894167384332|-0.7772490355771197|0.06600236147642136|0.9691169261932373|-0.2376054525375366|0|0|0|-1|-1|3
2021-04-08 20:30:30.308 +0100|20499.746737375|0.1942596435546875|0.9812774658203125|-0.0137176513671875||||||||||||||||||||||||3
2021-04-08 20:30:30.328 +0100|20499.766697375|0.2999114990234375|1.018447875976562|-0.1041259765625|20499.746737375|-0.1117129058054657|0.2646394093354512|-1.329394547707191|-0.6176761388778687|0.3767771422863007|-0.2175061106681824|0.1249538064002991|0.008717596530914307|0.1788325309753418|XArbitraryZVertical|0.6046776750505848|-0.1378181024163278|0.1248103798027957|-0.7744634813642564|0.06253007054328918|0.9710038304328918|-0.2307421565055847|0|0|0|-1|-1|3
2021-04-08 20:30:30.347 +0100|20499.786657375|0.359130859375|0.9459228515625|-0.0411224365234375|20499.766697375|-0.1212340268441193|0.2627080842628816|-1.344606285741477|-0.7798295617103577|0.2838136553764343|-0.376692920923233|0.1968541443347931|0.03894603252410889|0.1057945191860199|XArbitraryZVertical|0.6100822996159261|-0.1396899116908698|0.1284096641610643|-0.7692837855220381|0.05824144184589386|0.974527895450592|-0.2165726274251938|0|0|0|-1|-1|3
2021-04-08 20:30:30.367 +0100|20499.806617375|0.4107818603515625|1.002212524414062|-0.0620574951171875|20499.786657375|-0.142883453579791|0.2459746384486428|-1.365545286884806|-1.18015193939209|0.220130980014801|-0.5865180492401123|0.3024820983409882|-0.002950668334960938|0.1361404955387115|XArbitraryZVertical|0.6177895925197837|-0.1396310227393433|0.1321664104052821|-0.7624770629688774|0.0496288388967514|0.9790098667144775|-0.1976783871650696|0|0|0|-1|-1|3
2021-04-08 20:30:30.387 +0100|20499.826577375|0.406280517578125|1.140609741210938|-0.056182861328125|20499.806617375|-0.1808849617013006|0.2129153233096746|-1.392665861749451|-1.270152688026428|0.194263756275177|-0.7376390099525452|0.3576221466064453|-0.02387970685958862|0.1117129325866699|XArbitraryZVertical|0.6278075625321403|-0.1387902999121834|0.1367758118881544|-0.7535831199383028|0.03744227811694145|0.9841766953468323|-0.1731898337602615|0|0|0|-1|-1|3
2021-04-08 20:30:30.407 +0100|20499.846537375|0.3863067626953125|1.185165405273438|-0.053131103515625|20499.826577375|-0.2544485343071465|0.1428550814518413|-1.418550533800726|-1.136443972587585|0.07811695337295532|-0.918397843837738|0.3877243399620056|0.129960298538208|0.07112114131450653|XArbitraryZVertical|0.6375010694658021|-0.136142667991967|0.1421405634499016|-0.7448851712139803|0.02159178629517555|0.9884330034255981|-0.150115117430687|0|0|0|-1|-1|3
2021-04-08 20:30:30.427 +0100|20499.866497375|0.36773681640625|1.257537841796875|-0.0883941650390625|20499.846537375|-0.3840465464356914|0.01598568393762701|-1.44170760090828|-1.034111261367798|0.04801321774721146|-1.051657557487488|0.3874066472053528|0.1839797496795654|0.06731416285037994|XArbitraryZVertical|0.6467282573659514|-0.1318529364275624|0.1485449788915614|-0.7364046800682456|0.002057768171653152|0.9916796088218689|-0.1287147253751755|0|0|0|-1|-1|3
2021-04-08 20:30:30.447 +0100|20499.886457375|0.360076904296875|1.1693115234375|-0.148895263671875|20499.866497375|-0.5654016686710975|-0.1638499079006354|-1.45713570822833|-0.6589717268943787|-0.01425164937973022|-1.033458232879639|0.3928126990795135|0.2334117889404297|0.03252203017473221|XArbitraryZVertical|0.6542607453748917|-0.1264680314654819|0.1551126982966637|-0.7293070800397614|-0.01850023679435253|0.9935475587844849|-0.1118974313139915|0|0|0|-1|-1|3
2021-04-08 20:30:30.467 +0100|20499.906417375|0.2965240478515625|1.0609130859375|-0.2000885009765625|20499.886457375|-0.7802661653601017|-0.3792789358393156|-1.463764492713461|-0.6321423649787903|-0.2143072932958603|-1.05711567401886|0.3994309306144714|0.2241215705871582|-0.01978146284818649|XArbitraryZVertical|0.6603074462260998|-0.1198997046329348|0.1613418803241855|-0.7235931361833942|-0.03955328464508057|0.9942775368690491|-0.09923627227544785|0|0|0|-1|-1|3
2021-04-08 20:30:30.487 +0100|20499.926378375|0.21075439453125|1.013412475585938|-0.155029296875|20499.906417375|-1.012455912498236|-0.617575137318035|-1.4661578951993|-0.7561490535736084|-0.5132667422294617|-0.9773650169372559|0.3837387263774872|0.07569068670272827|-0.1070127487182617|XArbitraryZVertical|0.6670580452406778|-0.1116053412996258|0.1654270694588722|-0.7177825906160845|-0.06048217415809631|0.9945303797721863|-0.08515562117099762|0|0|0|-1|-1|3
2021-04-08 20:30:30.507 +0100|20499.946338375|0.2216033935546875|0.7953033447265625|-0.12042236328125|20499.926378375|-1.233488081635809|-0.8479177197308168|-1.464453063112124|-0.6720486879348755|-0.5321759581565857|-0.8684727549552917|0.3026347160339355|0.04256021976470947|-0.08999728411436081|XArbitraryZVertical|0.6740250606109127|-0.1028622037866892|0.1677084418700301|-0.7120277999742912|-0.07959789037704468|0.9943509101867676|-0.07021916657686234|0|0|0|-1|-1|3
2021-04-08 20:30:30.527 +0100|20499.966298375|0.1504364013671875|0.7212677001953125|-0.07135009765625|20499.946338375|-1.422723891382279|-1.047306933306255|-1.459333098601254|-0.7171943783760071|-0.6699787378311157|-0.7431960105895996|0.3147361874580383|-0.1424148082733154|-0.07192540913820267|XArbitraryZVertical|0.6806286753508988|-0.09455811409519156|0.1689357150273716|-0.7065863905400425|-0.09633803367614746|0.9937943816184998|-0.05560673773288727|0|0|0|-1|-1|3
2021-04-08 20:30:30.547 +0100|20499.986258375|0.0528564453125|0.6793975830078125|-0.022857666015625|20499.966298375|-1.594228290862417|-1.233463265449988|-1.453050465288642|-0.8219891786575317|-0.8953272700309753|-0.6697884202003479|0.2842693328857422|-0.2727389931678772|-0.04119640216231346|XArbitraryZVertical|0.6879255982695963|-0.08554499260055665|0.1677336556609897|-0.7009322047195568|-0.1108540669083595|0.993075966835022|-0.0388808511197567|0|0|0|-1|-1|3
2021-04-08 20:30:30.567 +0100|20500.006218375|-0.0986175537109375|0.6333770751953125|0.0721282958984375|20499.986258375|-1.772053758938602|-1.429619231411963|-1.444387678782798|-1.08222758769989|-1.050943613052368|-0.6928262114524841|0.2061006724834442|-0.2979141473770142|-0.01579850539565086|XArbitraryZVertical|0.6967177452155715|-0.07559536495834869|0.1648799605212747|-0.6940348118947266|-0.1248179599642754|0.9920210838317871|-0.01773944869637489|0|0|0|-1|-1|3
2021-04-08 20:30:30.587 +0100|20500.026178375|-0.2547149658203125|0.6634368896484375|0.1435089111328125|20500.006218375|-1.965904514455632|-1.644393906622098|-1.430244327330185|-1.398596405982971|-1.177376985549927|-0.7953050136566162|0.08268807828426361|-0.3455313444137573|0.0372767448425293|XArbitraryZVertical|0.7077967824027319|-0.06460815614453522|0.1611975538870561|-0.6847371224810366|-0.139711007475853|0.990138828754425|0.01030099764466286|0|0|0|-1|-1|3
2021-04-08 20:30:30.607 +0100|20500.046138375|-0.370208740234375|0.63836669921875|0.169036865234375|20500.026178375|-2.137726851013328|-1.838423818113539|-1.408722505560102|-1.493828058242798|-1.203165173530579|-0.8929669260978699|-0.06285396218299866|-0.3346883654594421|0.0851055383682251|XArbitraryZVertical|0.7201066380132464|-0.0527510017213698|0.1574073110038183|-0.6737113125644705|-0.155622199177742|0.9868947863578796|0.04267247766256332|0|0|0|-1|-1|3
2021-04-08 20:30:30.627 +0100|20500.066098375|-0.493255615234375|0.6476593017578125|0.1746368408203125|20500.046138375|-2.256980415150489|-1.979965370187327|-1.38102999229057|-1.392200589179993|-1.225240230560303|-1.025455236434937|-0.1648467183113098|-0.3375322818756104|0.08981061726808548|XArbitraryZVertical|0.7320680866884657|-0.03999373787842577|0.1543816983364281|-0.6623016037682756|-0.1730599999427795|0.9820483326911926|0.0750463679432869|0|0|0|-1|-1|3
2021-04-08 20:30:30.647 +0100|20500.086058375|-0.67041015625|0.7425689697265625|0.166412353515625|20500.066098375|-2.316304419074288|-2.063636819330657|-1.351537060271467|-0.8743210434913635|-1.349877238273621|-1.089201807975769|-0.2683856189250946|-0.3435212373733521|0.05653105676174164|XArbitraryZVertical|0.7421599441828768|-0.02555662892629188|0.1515617665508803|-0.6523607367306558|-0.1916218549013138|0.9760588407516479|0.1029090508818626|0|0|0|-1|-1|3
2021-04-08 20:30:30.667 +0100|20500.106018375|-0.727569580078125|0.5402069091796875|0.1576690673828125|20500.086058375|-2.295953396665425|-2.0714636975682|-1.327410471053523|-0.009779950603842735|-1.413287162780762|-1.246044516563416|-0.4357444643974304|-0.2206650376319885|0.01541101932525635|XArbitraryZVertical|0.7468389941873032|-0.008403478951696011|0.1488301760166215|-0.6480822552821123|-0.2114120721817017|0.9705275893211365|0.1156782060861588|0|0|0|-1|-1|3
2021-04-08 20:30:30.687 +0100|20500.125979375|-0.794952392578125|0.62603759765625|0.0838165283203125|20500.106018375|-2.219396713515914|-2.025870906040807|-1.305944211583272|0.556581437587738|-1.521555662155151|-1.465796709060669|-0.503903329372406|-0.3997322916984558|0.01919363439083099|XArbitraryZVertical|0.7465842723451476|0.01179013942538257|0.1472238539709756|-0.6486895305282913|-0.2351263016462326|0.9651312232017517|0.1150541678071022|0|0|0|-1|-1|3
2021-04-08 20:30:30.707 +0100|20500.145939375|-0.7657623291015625|0.7979888916015625|0.0113372802734375|20500.125979375|-2.124917877392643|-1.967462171131945|-1.284996611348917|0.9027104377746582|-1.700889825820923|-1.517943739891052|-0.5128229856491089|-0.3981877565383911|-0.01442204415798187|XArbitraryZVertical|0.7438216975479384|0.03449095400065631|0.1445803490002906|-0.6516413351350121|-0.2600354552268982|0.9594364762306213|0.1089206859469414|0|0|0|-1|-1|3
2021-04-08 20:30:30.727 +0100|20500.165899375|-0.709503173828125|0.8941192626953125|0.0294647216796875|20500.145939375|-2.011301185817206|-1.892462265583589|-1.264526085579805|1.534559369087219|-1.71213436126709|-1.545803904533386|-0.506257176399231|-0.1892742514610291|-0.06686139851808548|XArbitraryZVertical|0.7377149777837657|0.05862277695755388|0.1416223721468667|-0.6574824702379913|-0.2860407829284668|0.9534647464752197|0.09532003849744797|0|0|0|-1|-1|3
2021-04-08 20:30:30.747 +0100|20500.185859375|-0.5546417236328125|0.989837646484375|-0.0120849609375|20500.165899375|-1.872279680556649|-1.795569518259248|-1.245531655548129|2.02392053604126|-1.802086591720581|-1.437868595123291|-0.4052459001541138|-0.0802416205406189|-0.04796971380710602|XArbitraryZVertical|0.727042643419421|0.08379478857153304|0.1373081882990664|-0.667483270320965|-0.311521053314209|0.9475661516189575|0.07122514396905899|0|0|0|-1|-1|3
2021-04-08 20:30:30.767 +0100|20500.205819375|-0.23663330078125|1.216705322265625|-0.2655792236328125|20500.185859375|-1.743632516416521|-1.707087029130672|-1.225450361747291|1.592241168022156|-1.510736703872681|-1.33541214466095|-0.2788746953010559|0.03349828720092773|-0.01132571697235107|XArbitraryZVertical|0.7151787249492262|0.1073163654200351|0.1327722253633802|-0.6777715999857736|-0.3353837132453918|0.9409583806991577|0.04599482193589211|0|0|0|-1|-1|3
2021-04-08 20:30:30.786 +0100|20500.225779375|-0.027923583984375|1.589523315429688|-0.4949951171875|20500.205819375|-1.657013148419211|-1.656523742503456|-1.203424315278839|1.047651410102844|-1.579456448554993|-1.166489005088806|0.03887534141540527|0.2027270793914795|-0.2698261737823486|XArbitraryZVertical|0.7063013402772151|0.1285095062031961|0.1288497467064204|-0.6841210866849848|-0.3578456342220306|0.9332744479179382|0.03075255267322063|0|0|0|-1|-1|3
2021-04-08 20:30:30.807 +0100|20500.245739375|0.016021728515625|1.73370361328125|-0.6044921875|20500.225779375|-1.588489025897969|-1.627503076361806|-1.183843714090677|1.214292526245117|-1.861518263816833|-0.9262498021125793|0.3033814132213593|0.5869826674461365|-0.5418792963027954|XArbitraryZVertical|0.6988377836552671|0.1493977053386223|0.1223270494506165|-0.6887250004859564|-0.37676140666008|0.9260633587837219|0.02138784527778625|0|0|0|-1|-1|3
2021-04-08 20:30:30.826 +0100|20500.265699375|0.0597381591796875|1.893569946289062|-0.7068023681640625|20500.245739375|-1.51695993434711|-1.599307852593049|-1.169214061012755|1.402727603912354|-1.950417995452881|-0.6390177607536316|0.3962550759315491|0.7849242091178894|-0.6174955368041992|XArbitraryZVertical|0.6905273798872988|0.1695388169993277|0.1124960335717265|-0.6940988835434756|-0.3907165825366974|0.9204436540603638|0.01114294584840536|0|0|0|-1|-1|3
2021-04-08 20:30:30.847 +0100|20500.285659375|0.155548095703125|1.920120239257812|-0.7254791259765625|20500.265699375|-1.457068594929047|-1.582721429750041|-1.160607748554877|0.9685551524162292|-1.938422083854675|-0.3109186887741089|0.4478872418403625|0.9291304349899292|-0.6488277912139893|XArbitraryZVertical|0.6835941281334362|0.1872879447062211|0.1003573221950013|-0.698248442603805|-0.3987543880939484|0.9170456528663635|0.004755412694066763|0|0|0|-1|-1|3
2021-04-08 20:30:30.867 +0100|20500.305620375|0.19622802734375|1.834381103515625|-0.729736328125|20500.285659375|-1.420782025928042|-1.590615269308819|-1.156586751481348|0.4855320453643799|-2.116945743560791|-0.1483266800642014|0.5397624373435974|1.036637306213379|-0.7275334596633911|XArbitraryZVertical|0.6800441188965434|0.203784126912435|0.08640136271350535|-0.6989613996944735|-0.402387946844101|0.915434718132019|0.007975948043167591|0|0|0|-1|-1|3
2021-04-08 20:30:30.886 +0100|20500.325580375|0.088531494140625|2.212020874023438|-0.767791748046875|20500.305620375|-1.406211067470791|-1.622827491079568|-1.156093095992763|0.1034034118056297|-2.448228120803833|0.1521811336278915|0.6177204847335815|0.8836531639099121|-0.7329440116882324|XArbitraryZVertical|0.67971759021693|0.2201395832056607|0.07054250544708769|-0.6960937480960762|-0.4023735523223877|0.9152359366416931|0.02095487713813782|0|0|0|-1|-1|3
2021-04-08 20:30:30.907 +0100|20500.345540375|0.1945343017578125|2.3370361328125|-0.875|20500.325580375|-1.397992903093354|-1.663591713318724|-1.163090251356861|0.2942556142807007|-2.254082202911377|0.4975376427173615|0.4723286628723145|1.215634226799011|-0.8120388984680176|XArbitraryZVertical|0.680643151348913|0.2347241480091544|0.05134629144728533|-0.6920933648692145|-0.3947990536689758|0.9180327653884888|0.03674105182290077|0|0|0|-1|-1|3
2021-04-08 20:30:30.926 +0100|20500.365500375|0.257476806640625|2.38623046875|-0.8273468017578125|20500.345540375|-1.364105957911679|-1.677361528791824|-1.177854357547852|1.201817035675049|-2.201475620269775|0.8923633098602295|0.5532974004745483|1.387675762176514|-0.9374548196792603|XArbitraryZVertical|0.678106463220063|0.246039375619044|0.02968280012825539|-0.6919214624382058|-0.3807360529899597|0.9237865805625916|0.04072749987244606|0|0|0|-1|-1|3
2021-04-08 20:30:30.947 +0100|20500.385460375|0.318572998046875|2.414093017578125|-0.7756805419921875|20500.365500375|-1.275565233098244|-1.63790544556389|-1.204181287675407|2.336566209793091|-2.06927490234375|1.46281099319458|0.6044156551361084|1.421205520629883|-0.8726387023925781|XArbitraryZVertical|0.6692112335280734|0.2533282157273757|0.002783403635577412|-0.6985509496784957|-0.3576506972312927|0.9335460662841797|0.02403772063553333|0|0|0|-1|-1|3
2021-04-08 20:30:30.966 +0100|20500.405420375|0.4666748046875|2.34991455078125|-0.827789306640625|20500.385460375|-1.112166991243658|-1.525196663899946|-1.238858758895558|3.334344863891602|-1.995770335197449|1.929091095924377|0.6149957180023193|1.481879115104675|-0.7544465065002441|XArbitraryZVertical|0.6534308641702226|0.2561264866462903|-0.02987332377906645|-0.7117126423187413|-0.3255366086959839|0.9454126954078674|-0.01485465746372938|0|0|0|-1|-1|3
2021-04-08 20:30:30.986 +0100|20500.425380375|0.5329132080078125|2.462677001953125|-1.027435302734375|20500.405420375|-0.8459192566716573|-1.311501981809538|-1.27107068174645|4.353217601776123|-1.95508348941803|2.515164613723755|0.7224612832069397|1.395107626914978|-0.7315915822982788|XArbitraryZVertical|0.6304420606835446|0.2543439403806415|-0.06825046899249039|-0.7302013948523457|-0.2853886783123016|0.9554175138473511|-0.0757039338350296|0|0|0|-1|-1|3
2021-04-08 20:30:31.006 +0100|20500.445340375|0.6724395751953125|2.237838745117188|-1.2916259765625|20500.425380375|-0.4536836437710012|-0.9717971530211917|-1.282133889019393|5.533699512481689|-1.610015153884888|3.158125877380371|0.7511469721794128|1.470101118087769|-0.8032110929489136|XArbitraryZVertical|0.5994586803700481|0.2457603776168347|-0.1127500225789423|-0.7533517742214859|-0.2351100742816925|0.9586254954338074|-0.1605022549629211|0|0|0|-1|-1|3
2021-04-08 20:30:31.027 +0100|20500.465300375|0.770294189453125|1.23016357421875|-1.346115112304688|20500.445340375|-0.01128117757840286|-0.5765341421627662|-1.239064858738697|6.813681125640869|-0.9730058312416077|3.426170587539673|0.7975614070892334|1.431061744689941|-0.9784724712371826|XArbitraryZVertical|0.5579920895245417|0.2283118960532814|-0.1606694353808288|-0.7814755666444198|-0.1775357872247696|0.9454798698425293|-0.2730370163917542|0|0|0|-1|-1|3
2021-04-08 20:30:31.046 +0100|20500.485260375|0.922607421875|-0.120513916015625|-1.505950927734375|20500.465300375|0.3068650992765429|-0.2921664007134911|-1.142425025771209|6.521195411682129|-0.02687833458185196|3.066572427749634|0.8692927956581116|0.6560919284820557|-0.9673703908920288|XArbitraryZVertical|0.5098950543353309|0.2027651774279713|-0.204974325487111|-0.8104806889740301|-0.1196437329053879|0.9096434712409973|-0.3977866470813751|0|0|0|-1|-1|3
2021-04-08 20:30:31.066 +0100|20500.505221375|0.299835205078125|-0.3880767822265625|-1.519454956054688|20500.485260375|0.4688338041942577|-0.1392818530498556|-1.043689171216756|4.498794555664062|0.7781136631965637|2.007880687713623|0.9857310056686401|-0.6948774456977844|-0.9743386507034302|XArbitraryZVertical|0.4696597450306644|0.1741773778835582|-0.2346099970127623|-0.8330907509447684|-0.06983738392591476|0.8642658591270447|-0.4981639385223389|0|0|0|-1|-1|3
2021-04-08 20:30:31.086 +0100|20500.525181375|-1.255889892578125|0.18035888671875|-1.202056884765625|20500.505221375|0.5275249206000522|-0.0660050325829042|-0.9854498706962346|1.733023285865784|1.71335756778717|0.4295699596405029|0.6380794048309326|-1.263344764709473|-0.9736465215682983|XArbitraryZVertical|0.4488410360453514|0.151324314244885|-0.2446453252035948|-0.846044690525073|-0.03644054383039474|0.8335207104682922|-0.5512853264808655|0|0|0|-1|-1|3
2021-04-08 20:30:31.106 +0100|20500.545141375|-1.629730224609375|0.82012939453125|-0.3394622802734375|20500.525181375|0.5113044271943245|-0.01608751079966006|-0.9628051494185774|0.9456746578216553|4.87023401260376|-1.419498085975647|-0.9242825508117676|-0.7956194281578064|-0.7145891785621643|XArbitraryZVertical|0.4461565233765596|0.1239815422849693|-0.2277322496873777|-0.8565692994046168|-0.00918910838663578|0.8207971453666687|-0.5711458921432495|0|0|0|-1|-1|3
2021-04-08 20:30:31.126 +0100|20500.565101375|-1.581329345703125|1.479110717773438|0.979644775390625|20500.545141375|0.4326401763522503|0.04687374032614645|-0.9479909667454764|0.8842132687568665|7.594091892242432|-3.190484046936035|-1.644092559814453|-0.1166877746582031|-0.0319628119468689|XArbitraryZVertical|0.4501598644159422|0.07757785486466234|-0.1804737382332203|-0.8710724504731125|0.02733220346271992|0.81224524974823|-0.5826755166053772|0|0|0|-1|-1|3
2021-04-08 20:30:31.146 +0100|20500.585061375|-2.692855834960938|-0.466278076171875|0.30413818359375|20500.565101375|0.2928594638460987|0.09394664431364828|-0.9113624606656754|3.136811017990112|8.188207626342773|-4.87701940536499|-1.527780294418335|0.5288448929786682|1.354719758033752|XArbitraryZVertical|0.4410364296684273|0.02242556215383723|-0.1104313376811155|-0.8903870390399391|0.05747362598776817|0.7903392314910889|-0.6099679470062256|0|0|0|-1|-1|3
2021-04-08 20:30:31.166 +0100|20500.605021375|-6.824050903320312|-0.85089111328125|0.1425323486328125|20500.585061375|0.09201209720356447|0.09173083175045887|-0.8906955929549638|-0.7978629469871521|6.081035614013672|-6.373692989349365|-2.416264295578003|-0.4221466779708862|0.8211441040039062|XArbitraryZVertical|0.4317662915871199|-0.02154317351522784|-0.02173066959854348|-0.9014664697192138|0.0576060377061367|0.7775093913078308|-0.6262274980545044|0|0|0|-1|-1|3
2021-04-08 20:30:31.186 +0100|20500.624981375|-4.581939697265625|1.805374145507812|2.181289672851562|20500.605021375|-0.07909537993683087|0.0904478826574273|-0.9978917183824709|-8.940617561340332|7.40739917755127|-4.150267124176025|-6.355146408081055|-2.023892641067505|0.1485943198204041|XArbitraryZVertical|0.476067650092358|-0.05856529929543845|0.05629715352165271|-0.8756485414138592|0.04896273091435432|0.8403300046920776|-0.539859414100647|0|0|0|-1|-1|3
2021-04-08 20:30:31.206 +0100|20500.644942625|0.8264923095703125|-0.3788604736328125|1.26678466796875|20500.624981375|-0.1051404855393197|0.2494366600220015|-1.199181804821488|-9.940839767456055|9.679097175598145|-1.007487893104553|-6.226831912994385|0.6459254026412964|2.379425525665283|XArbitraryZVertical|0.5537517302182339|-0.1319763036978749|0.1131431011487691|-0.814334140090669|0.08963924646377563|0.9317423105239868|-0.3518825471401215|0|0|0|-1|-1|3
2021-04-08 20:30:31.226 +0100|20500.664902625|0.921661376953125|0.7760009765625|-0.014892578125|20500.644942625|0.3056717185986749|0.8063916028949649|-1.37873710414901|-10.27719974517822|5.438595771789551|1.222183227539062|-0.2616487741470337|-0.6974484920501709|1.790832996368408|XArbitraryZVertical|0.6243196759954009|-0.210166073222276|0.1385946845866352|-0.7394909091282497|0.1377770304679871|0.9816132783889771|-0.1321103274822235|0|0|0|-1|-1|3
2021-04-08 20:30:31.246 +0100|20500.684863625|-1.863418579101562|3.39019775390625|-0.4564361572265625|20500.664902625|1.35349022221324|1.814675835351696|-1.392358155634438|-9.047914505004883|-6.892245769500732|2.384753227233887|1.543821692466736|-1.252172946929932|-0.09983491897583008|XArbitraryZVertical|0.6864894837370047|-0.2239684811581181|0.09797108229806488|-0.6848154702664215|0.1722419261932373|0.984122097492218|0.04285938292741776|0|0|0|-1|-1|3
2021-04-08 20:30:31.266 +0100|20500.704823625|-1.045303344726562|1.681289672851562|-0.24920654296875|20500.684863625|1.866485020265538|2.218872177048955|-1.28896031546307|-4.188071727752686|-2.91795802116394|1.088182330131531|-1.70021653175354|2.241113901138306|-0.2489421367645264|XArbitraryZVertical|0.7344035649480132|-0.2111766497247742|0.03425433729829768|-0.6441138356630445|0.2217305898666382|0.9605464339256287|0.167888343334198|0|0|0|-1|-1|3
2021-04-08 20:30:31.286 +0100|20500.724783625|-0.2568817138671875|0.7657012939453125|-0.1064605712890625|20500.704823625|1.858631618997536|2.157477702542919|-1.271222148105486|2.1331787109375|-2.016194581985474|0.4805999100208282|-1.525154948234558|1.147000789642334|-0.6586440801620483|XArbitraryZVertical|0.7360814609045269|-0.199678996475763|0.008494341137958272|-0.6467150776441589|0.2457657754421234|0.9554622173309326|0.1633752435445786|0|0|0|-1|-1|3
2021-04-08 20:30:31.306 +0100|20500.744743625|0.02777099609375|0.1773529052734375|0.2374725341796875|20500.724783625|1.645005973540522|1.921825908209591|-1.296493786789971|4.028885841369629|-1.395557641983032|0.03039335645735264|-0.6677798628807068|-0.04528635740280151|-0.2379343509674072|XArbitraryZVertical|0.7141687344355071|-0.1911421514706174|0.002142477859434701|-0.6733670032175815|0.2543574571609497|0.9626143574714661|0.09314460307359695|0|0|0|-1|-1|3
2021-04-08 20:30:31.326 +0100|20500.764703625|0.1533355712890625|0.066131591796875|0.1775360107421875|20500.744743625|1.342124367404724|1.600415985050878|-1.315669143336794|3.937936305999756|-1.402511715888977|-0.4352633953094482|-0.2462008893489838|-0.6661936044692993|0.1512641906738281|XArbitraryZVertical|0.6865823675714875|-0.1798378193964486|0.0008147962965745203|-0.7044589183539164|0.2522578537464142|0.9676312208175659|0.007473977282643318|0|0|0|-1|-1|3
2021-04-08 20:30:31.346 +0100|20500.784663625|0.39154052734375|0.339080810546875|0.027435302734375|20500.764703625|1.052943761231536|1.296134677421437|-1.320820613353172|3.152141094207764|-0.9939777851104736|-0.92998206615448|-0.1377982497215271|-0.9389649629592896|0.3199799060821533|XArbitraryZVertical|0.6623872819946413|-0.1664197510183799|0.003780552549926828|-0.7304337953723385|0.2381088435649872|0.9689184427261353|-0.06709510833024979|0|0|0|-1|-1|3
2021-04-08 20:30:31.365 +0100|20500.804623625|0.35546875|0.73529052734375|-0.0028839111328125|20500.784663625|0.8235443647130053|1.05505649586051|-1.322143456821507|2.118704557418823|-0.9134700894355774|-1.319553375244141|0.1369243115186691|-0.6843782067298889|0.182849183678627|XArbitraryZVertical|0.6451877280775272|-0.1518140447400575|0.0102636504097915|-0.748718902368567|0.2140881270170212|0.9692448377609253|-0.1213705837726593|0|0|0|-1|-1|3
2021-04-08 20:30:31.386 +0100|20500.824583625|0.2974090576171875|0.904541015625|-0.0073394775390625|20500.804623625|0.629976268368714|0.8507420890628971|-1.319396661826261|1.95694100856781|-0.7322200536727905|-1.201609492301941|0.2031867355108261|-0.3584574460983276|0.1388015300035477|XArbitraryZVertical|0.6318150262706493|-0.1370782230505853|0.0174808148658274|-0.762701638879519|0.1870102882385254|0.9685651659965515|-0.164038673043251|0|0|0|-1|-1|3
2021-04-08 20:30:31.406 +0100|20500.844543625|0.386505126953125|0.76678466796875|-0.09344482421875|20500.824583625|0.4618538020369708|0.6776360910480593|-1.307646228640613|1.871978521347046|-0.3389462232589722|-1.087479114532471|0.1266473978757858|-0.04534775018692017|0.2068029940128326|XArbitraryZVertical|0.6188031718191275|-0.1255260129209498|0.02544284922874522|-0.7750347126073058|0.1630858033895493|0.9655753374099731|-0.202651709318161|0|0|0|-1|-1|3
2021-04-08 20:30:31.426 +0100|20500.864504625|0.304229736328125|0.784637451171875|-0.1024932861328125|20500.844543625|0.3233640467247549|0.5391948518199708|-1.290290989005226|1.521581768989563|-0.2295220494270325|-0.9557761549949646|0.2307201474905014|-0.1616599559783936|0.1567388921976089|XArbitraryZVertical|0.6062930620428689|-0.1167339652864473|0.03408972072728617|-0.7858879358528303|0.1421429067850113|0.9609156847000122|-0.2375638037919998|0|0|0|-1|-1|3
2021-04-08 20:30:31.445 +0100|20500.884464625|0.2684478759765625|0.953460693359375|-0.0356903076171875|20500.864504625|0.2301965018925904|0.4457603236423901|-1.275997836528453|1.122353553771973|-0.1057733073830605|-0.6889213919639587|0.2065492272377014|-0.2168548703193665|0.155375748872757|XArbitraryZVertical|0.5974055167802736|-0.1096756594772724|0.04080635164953117|-0.7933553977347251|0.1252676695585251|0.9568607211112976|-0.2621558010578156|0|0|0|-1|-1|3
2021-04-08 20:30:31.465 +0100|20500.904424625|0.2530975341796875|0.759765625|0.0321807861328125|20500.884464625|0.1662741740328792|0.3860632863135184|-1.26187671593546|0.8829829692840576|0.1692799925804138|-0.5271010994911194|0.1492820382118225|0.01134228706359863|0.2267829477787018|XArbitraryZVertical|0.5898101513037446|-0.1062904063728383|0.04696479358989519|-0.7991374682030606|0.1144806668162346|0.9526625871658325|-0.2816526591777802|0|0|0|-1|-1|3
