loggingTime(txt)|accelerometerTimestamp_sinceReboot(s)|accelerometerAccelerationX(G)|accelerometerAccelerationY(G)|accelerometerAccelerationZ(G)|motionTimestamp_sinceReboot(s)|motionYaw(rad)|motionRoll(rad)|motionPitch(rad)|motionRotationRateX(rad/s)|motionRotationRateY(rad/s)|motionRotationRateZ(rad/s)|motionUserAccelerationX(G)|motionUserAccelerationY(G)|motionUserAccelerationZ(G)|motionAttitudeReferenceFrame(txt)|motionQuaternionX(R)|motionQuaternionY(R)|motionQuaternionZ(R)|motionQuaternionW(R)|motionGravityX(G)|motionGravityY(G)|motionGravityZ(G)|motionMagneticFieldX(µT)|motionMagneticFieldY(µT)|motionMagneticFieldZ(µT)|motionHeading(°)|motionMagneticFieldCalibrationAccuracy(Z)|label
2021-04-22 21:29:10.509 +0100|139499.090887875|-0.067657470703125|-0.2542266845703125|-0.9864501953125|139499.080907875|0.03865457200570021|-0.007597226381306832|0.2161023198562346|0.01236869767308235|-0.07440809905529022|0.034623634070158|-0.003261229954659939|0.09160718321800232|-0.03988933563232422|XArbitraryZVertical|0.1078930855598701|-0.001691616446840876|0.0188036665305199|0.9939833262299886|-0.007420448120683432|-0.2144242376089096|-0.9767124652862549|0|0|0|-1|-1|3
2021-04-22 21:29:10.520 +0100|139499.110847875|-0.009765625|-0.1858062744140625|-0.985595703125|139499.100867875|0.03839537575070751|-0.007884491498540794|0.2154502477099871|-0.02101680636405945|-0.01972461491823196|-0.00483145285397768|-0.04066876322031021|-0.002489864826202393|-0.01184356212615967|XArbitraryZVertical|0.1075714769434406|-0.001854728406805364|0.01866130339448866|0.9940205220775106|-0.007702124305069447|-0.2137872874736786|-0.9768498539924622|0|0|0|-1|-1|3
2021-04-22 21:29:10.521 +0100|139499.130807875|-0.019195556640625|-0.2248687744140625|-0.9648284912109375|139499.120827875|0.03872091619888588|-0.009726475178317262|0.2172210907375881|-0.02662362530827522|-0.03241740167140961|0.01287155598402023|-0.00615828949958086|0.008456006646156311|-0.0006123185157775879|XArbitraryZVertical|0.1084691325243166|-0.00273519440321702|0.01871788928933373|0.9939198489169548|-0.009497754275798798|-0.2155168503522873|-0.976453959941864|0|0|0|-1|-1|3
2021-04-22 21:29:10.523 +0100|139499.150767875|-0.0108795166015625|-0.1924896240234375|-0.958648681640625|139499.140787875|0.03896555066207467|-0.008899917673698479|0.2130724626692441|-0.1093040853738785|-0.02874325029551983|0.03569928184151649|-0.004836532287299633|-0.003714621067047119|0.01593643426895142|XArbitraryZVertical|0.1063997707771155|-0.002352329376145696|0.01889780197782019|0.9941411566243635|-0.00869853887706995|-0.2114638686180115|-0.9773471355438232|0|0|0|-1|-1|3
2021-04-22 21:29:10.542 +0100|139499.170727875|-0.00421142578125|-0.1896209716796875|-0.970977783203125|139499.160747875|0.03985361465851165|-0.01015980271343724|0.2095228793852912|-0.1166475936770439|-0.01907325908541679|0.04340967163443565|-0.001018896698951721|0.01777809858322144|0.01277810335159302|XArbitraryZVertical|0.1046484712014857|-0.00296744644737215|0.01928489454537254|0.9943178759303974|-0.009937439113855362|-0.2079932391643524|-0.9780797958374023|0|0|0|-1|-1|3
2021-04-22 21:29:10.562 +0100|139499.190687875|0.0005645751953125|-0.1826629638671875|-0.9882049560546875|139499.180707875|0.04099781090561547|-0.0118644103629377|0.2078603016683884|-0.09762050211429596|-0.01977532170712948|0.04240787774324417|0.003780470229685307|0.01946276426315308|0.00434565544128418|XArbitraryZVertical|0.1038404561355304|-0.003772486868266491|0.01977121416041872|0.9943904047943476|-0.01160875335335732|-0.2063667327165604|-0.9784058332443237|0|0|0|-1|-1|3
2021-04-22 21:29:10.582 +0100|139499.210647875|-0.00311279296875|-0.1919403076171875|-0.9998931884765625|139499.200667875|0.04189680424422638|-0.01263022942419153|0.2060813823996269|-0.05168864876031876|-0.03712070360779762|0.04062586650252342|0.01562750525772572|0.01630273461341858|-0.01348650455474854|XArbitraryZVertical|0.1029654069412786|-0.004125679744519229|0.02018593548501667|0.9944715778080732|-0.01236264873296022|-0.2046257853507996|-0.9787622094154358|0|0|0|-1|-1|3
2021-04-22 21:29:10.602 +0100|139499.230607875|-0.006591796875|-0.1748504638671875|-1.0069580078125|139499.220627875|0.0425281515893161|-0.01368781178520013|0.2057853246247687|-0.02087770774960518|-0.04457686096429825|0.02424263209104538|0.008820431306958199|0.01584509015083313|-0.0272182822227478|XArbitraryZVertical|0.1028303150570318|-0.004622274635564789|0.02044674154116514|0.9944781290845373|-0.01339859142899513|-0.2043359726667404|-0.978809118270874|0|0|0|-1|-1|3
2021-04-22 21:29:10.622 +0100|139499.250567875|-0.0012359619140625|-0.1799774169921875|-0.99688720703125|139499.240587875|0.04294276875020778|-0.01470246982326708|0.2060058852557977|0.05326135456562042|-0.06081937253475189|0.03069005720317364|0.009400930255651474|0.03669086098670959|-0.02855920791625977|XArbitraryZVertical|0.1029514111416533|-0.005103043320327214|0.02059968512253133|0.9944600062441611|-0.01439107861369848|-0.2045518755912781|-0.9787499308586121|0|0|0|-1|-1|3
2021-04-22 21:29:10.642 +0100|139499.270527875|-0.00836181640625|-0.1788177490234375|-0.974884033203125|139499.260547875|0.04351932119018472|-0.01583959662059761|0.2070924343916015|0.07722923904657364|-0.05335985869169235|0.02442248351871967|0.01086130645126104|0.02327373623847961|-0.008428514003753662|XArbitraryZVertical|0.103504954683911|-0.005626573211783295|0.02082232626789242|0.9943951522095779|-0.01550050172954798|-0.2056153267621994|-0.9785101413726807|0|0|0|-1|-1|3
2021-04-22 21:29:10.662 +0100|139499.290487875|-0.0060272216796875|-0.186767578125|-0.98187255859375|139499.280507875|0.04384884778459431|-0.01646901113757317|0.2080102923690268|0.06731901317834854|-0.03881090134382248|0.01860685087740421|0.01098579540848732|0.03114515542984009|0.003045380115509033|XArbitraryZVertical|0.1039688110103575|-0.005912063472345054|0.0209487916810575|0.9943423997977698|-0.01611327193677425|-0.2065134942531586|-0.9783110618591309|0|0|0|-1|-1|3
2021-04-22 21:29:10.682 +0100|139499.310447875|-0.00848388671875|-0.1939544677734375|-0.981842041015625|139499.300467875|0.04433180926069342|-0.01706966589970538|0.2085519782788078|0.02083690091967583|-0.04107038304209709|0.03449704498052597|0.009145360440015793|0.01891879737377167|-0.003439366817474365|XArbitraryZVertical|0.1042458883369761|-0.006179372762643768|0.02115475693908546|0.9943074079534163|-0.01669898442924023|-0.207043468952179|-0.97818922996521|0|0|0|-1|-1|3
2021-04-22 21:29:10.702 +0100|139499.330407875|-0.020751953125|-0.2004852294921875|-0.984619140625|139499.320427875|0.04516650988822201|-0.01795795974329892|0.2075028460064982|-0.05934763699769974|-0.04693658277392387|0.04800495505332947|0.008538063615560532|0.0101865828037262|-0.00409245491027832|XArbitraryZVertical|0.1037364551926741|-0.006589748789490892|0.02152933764492283|0.994350077297289|-0.01757178828120232|-0.2060169577598572|-0.978390634059906|0|0|0|-1|-1|3
2021-04-22 21:29:10.722 +0100|139499.350367875|-0.0256805419921875|-0.1864166259765625|-0.9846038818359375|139499.340387875|0.04620597822667733|-0.01864396032590875|0.2051795552529785|-0.1080922186374664|-0.03145045787096024|0.05800725519657135|-0.003599271178245544|0.006844475865364075|-0.006741583347320557|XArbitraryZVertical|0.1025923498408011|-0.006904696937967142|0.02202408231382282|0.9944556865552774|-0.01825183443725109|-0.2037429511547089|-0.9788542985916138|0|0|0|-1|-1|3
2021-04-22 21:29:10.742 +0100|139499.370327875|-0.040802001953125|-0.162841796875|-0.984283447265625|139499.360347875|0.04738280288132393|-0.01916139606125203|0.2026255216873394|-0.07292731106281281|-0.01159872487187386|0.0566711463034153|-0.01117002964019775|0.01163706183433533|-0.007729470729827881|XArbitraryZVertical|0.1013322968464086|-0.007132946737849554|0.0225979299044499|0.9945704137673894|-0.01876823604106903|-0.2012418359518051|-0.9793617725372314|0|0|0|-1|-1|3
2021-04-22 21:29:10.762 +0100|139499.390287875|-0.014007568359375|-0.169952392578125|-0.9828948974609375|139499.380307875|0.04822311186102999|-0.01903909409713885|0.2018173837295072|0.02214705944061279|0.01252003293484449|0.03199269622564316|-0.01562021300196648|0.0469629317522049|-0.0005763769149780273|XArbitraryZVertical|0.1009320049892544|-0.007039632009217595|0.02302680443422918|0.9946020553972351|-0.01865154877305031|-0.2004501521587372|-0.9795263409614563|0|0|0|-1|-1|3
2021-04-22 21:29:10.782 +0100|139499.410247875|-0.022613525390625|-0.19671630859375|-0.9885406494140625|139499.400267875|0.04885068558528483|-0.01879316085362271|0.2024671782953172|0.03663571923971176|0.003610428422689438|0.03478608652949333|0.003637172281742096|0.02309389412403107|-0.007248222827911377|XArbitraryZVertical|0.1012544703915962|-0.006877456740919393|0.02334747297672623|0.9945628295521876|-0.01840819790959358|-0.2010867297649384|-0.9794004559516907|0|0|0|-1|-1|3
2021-04-22 21:29:10.802 +0100|139499.430207875|-0.0268707275390625|-0.2135009765625|-0.973297119140625|139499.420227875|0.04960938016705701|-0.01912254394461788|0.2021632994565735|-0.0696558803319931|-0.01881402730941772|0.0380958653986454|-0.003241213038563728|-0.001617863774299622|-0.003576993942260742|XArbitraryZVertical|0.1011098719028461|-0.007006735788338889|0.02370990475555605|0.994568067664323|-0.01873196288943291|-0.2007890343666077|-0.9794554114341736|0|0|0|-1|-1|3
2021-04-22 21:29:10.822 +0100|139499.450167875|-0.0374755859375|-0.1844024658203125|-0.981353759765625|139499.440187875|0.0503678852509764|-0.01982939356266776|0.1994979552990413|-0.1446601152420044|-0.01981260627508163|0.04576496779918671|-0.01222767867147923|-0.01112660765647888|0.006020069122314453|XArbitraryZVertical|0.09979558104244743|-0.007354602094590838|0.02406786262143993|0.9946897727255076|-0.01943482831120491|-0.1981772631406784|-0.9799734950065613|0|0|0|-1|-1|3
2021-04-22 21:29:10.842 +0100|139499.470126875|-0.0403900146484375|-0.1694183349609375|-0.9712371826171875|139499.460146875|0.05143822045177632|-0.02093543004844997|0.1962907076288677|-0.09759285300970078|-0.02328893728554249|0.05000720545649529|-0.01459434628486633|0.01415587961673737|0.001532018184661865|XArbitraryZVertical|0.09821797538946883|-0.007893959872887194|0.02456576327354594|0.9948304291857465|-0.020531902089715|-0.195032611489296|-0.9805818200111389|0|0|0|-1|-1|3
2021-04-22 21:29:10.862 +0100|139499.490086875|-0.0354156494140625|-0.1837158203125|-0.987518310546875|139499.480106875|0.05223935980109936|-0.02119206960979246|0.1943454958349818|-0.04296856001019478|0.002241403795778751|0.03698860853910446|-0.01914121024310589|0.02375276386737823|0.003872513771057129|XArbitraryZVertical|0.09725676307565911|-0.008008554215638416|0.02496438380220439|0.9949141059309093|-0.02079155668616295|-0.1931243985891342|-0.9809539914131165|0|0|0|-1|-1|3
2021-04-22 21:29:10.882 +0100|139499.510046875|-0.0362396240234375|-0.1916656494140625|-0.98846435546875|139499.500066875|0.05302965925568658|-0.02118302214535526|0.1937116354602124|-0.02913357131183147|0.01784598454833031|0.03663165867328644|-0.01623306795954704|0.001158148050308228|-0.004534780979156494|XArbitraryZVertical|0.09694451588923884|-0.007974309732868307|0.02536211846726332|0.9949346617223574|-0.02078527025878429|-0.192502424120903|-0.9810763597488403|0|0|0|-1|-1|3
2021-04-22 21:29:10.902 +0100|139499.530006875|-0.02593994140625|-0.204620361328125|-0.98028564453125|139499.520026875|0.05369779687822116|-0.02118697553860425|0.1934450279297494|-0.04211951047182083|0.001220508012920618|0.03395766392350197|-0.008736034855246544|0.001873090863227844|-0.008313536643981934|XArbitraryZVertical|0.09681459949496467|-0.007947587777118443|0.02569605168543637|0.9949390063652512|-0.02079023607075214|-0.1922408044338226|-0.9811275601387024|0|0|0|-1|-1|3
2021-04-22 21:29:10.922 +0100|139499.549966875|-0.03399658203125|-0.2139434814453125|-0.9867095947265625|139499.539986875|0.05434305226085739|-0.02184956734965747|0.191743003238364|-0.133256807923317|-0.02321852184832096|0.02666326798498631|-0.01023032516241074|-0.01879465579986572|0.002648770809173584|XArbitraryZVertical|0.09597909742631161|-0.008269874000392002|0.02599644363196404|0.9950094527752262|-0.0214474368840456|-0.1905702501535416|-0.9814392328262329|0|0|0|-1|-1|3
2021-04-22 21:29:10.942 +0100|139499.569926875|-0.0459747314453125|-0.2220916748046875|-0.9787750244140625|139499.559946875|0.05495397862205732|-0.0231838726082362|0.1871092096525324|-0.3070387840270996|-0.06769272685050964|0.02939549461007118|-0.01190655864775181|-0.02877768874168396|-0.005175411701202393|XArbitraryZVertical|0.09369371205681695|-0.008970273570938289|0.0262690826665032|0.9952141881944816|-0.02277718298137188|-0.1860193461179733|-0.9822820425033569|0|0|0|-1|-1|3
2021-04-22 21:29:10.973 +0100|139499.589886875|-0.0597686767578125|-0.23773193359375|-0.9588165283203125|139499.579906875|0.05536234826065142|-0.02532781781823225|0.1784862467196542|-0.5836238265037537|-0.1128466799855232|0.02301651239395142|-0.02744589373469353|-0.04581713676452637|0.01431536674499512|XArbitraryZVertical|0.08943251611276207|-0.01014177900259163|0.02643707754383781|0.995590407129341|-0.02492278441786766|-0.1775400787591934|-0.9837979674339294|0|0|0|-1|-1|3
2021-04-22 21:29:10.984 +0100|139499.609846875|-0.067230224609375|-0.234710693359375|-0.9311676025390625|139499.599866875|0.05547263778636236|-0.0280437654447932|0.1634118575305092|-0.9730184078216553|-0.1397283673286438|0.02977357432246208|-0.03437621146440506|-0.07356531918048859|0.0353316068649292|XArbitraryZVertical|0.08196318193010359|-0.01170608240758621|0.02649360462290714|0.9962145223032181|-0.02766653895378113|-0.1626855581998825|-0.9862900376319885|0|0|0|-1|-1|3
2021-04-22 21:29:11.002 +0100|139499.629806875|-0.077728271484375|-0.24493408203125|-0.9296875|139499.619826875|0.05544532672103354|-0.03117771101239501|0.1393518010323258|-1.457813501358032|-0.1913944780826569|0.04176605492830276|-0.03808449953794479|-0.0939926952123642|0.06468451023101807|XArbitraryZVertical|0.07001536955199367|-0.01361486793347198|0.02656366589553074|0.9970992861047638|-0.03087048046290874|-0.1389012336730957|-0.9898249506950378|0|0|0|-1|-1|3
2021-04-22 21:29:11.022 +0100|139499.649766875|-0.1217498779296875|-0.234375|-0.9234466552734375|139499.639786875|0.05527335632634531|-0.03580743793764821|0.1022142648836493|-2.252632141113281|-0.2625089883804321|0.05604734271764755|-0.04934851825237274|-0.1550579965114594|0.06860578060150146|XArbitraryZVertical|0.05155125219402638|-0.0164611470517824|0.02667844233965845|0.9981783568159424|-0.03561293706297874|-0.1020363718271255|-0.994143009185791|0|0|0|-1|-1|3
2021-04-22 21:29:11.042 +0100|139499.669726875|-0.1582489013671875|-0.153045654296875|-0.8465576171875|139499.659746875|0.05460353218871233|-0.04143378475746453|0.04879673018196386|-3.038858890533447|-0.2799709439277649|0.07520390301942825|-0.08858698606491089|-0.1731149554252625|0.08591938018798828|XArbitraryZVertical|0.02494694575698506|-0.02003569866090483|0.02677920728712853|0.9991292736992218|-0.0413726232945919|-0.04877736791968346|-0.9979524612426758|0|0|0|-1|-1|3
2021-04-22 21:29:11.062 +0100|139499.689686875|-0.14752197265625|-0.01556396484375|-0.794830322265625|139499.679706875|0.0532431884100364|-0.04639394248728821|-0.01759442998167753|-3.570968627929688|-0.2049971669912338|0.08635766804218292|-0.106752336025238|-0.135558232665062|0.1725060343742371|XArbitraryZVertical|-0.008174229896167659|-0.0234198756223505|0.02681423245894131|0.9993326868792435|-0.04637012258172035|0.01759352162480354|-0.9987694025039673|0|0|0|-1|-1|3
2021-04-22 21:29:11.082 +0100|139499.709646875|-0.147186279296875|0.0764312744140625|-0.78765869140625|139499.699666875|0.05147323602671083|-0.04980692301361493|-0.09223152969518938|-3.899233818054199|-0.1371116936206818|0.1045366674661636|-0.09082190692424774|-0.07562033832073212|0.2049947381019592|XArbitraryZVertical|-0.04542974877694037|-0.02605211875304815|0.02684598131336742|0.9982669365611619|-0.04957472532987595|0.09210082143545151|-0.9945148229598999|0|0|0|-1|-1|3
2021-04-22 21:29:11.102 +0100|139499.729606875|-0.1649017333984375|0.0311431884765625|-0.776397705078125|139499.719626875|0.0495361141175094|-0.05349435912924345|-0.1758134753211955|-4.580089569091797|-0.2249982506036758|0.1700469702482224|-0.08561579138040543|-0.09893462061882019|0.1864386796951294|XArbitraryZVertical|-0.08707546633864023|-0.02880602645661103|0.02700830143896001|0.9954188833721481|-0.05264460295438766|0.1749091297388077|-0.9831761717796326|0|0|0|-1|-1|3
2021-04-22 21:29:11.122 +0100|139499.749566875|-0.1785736083984375|0.135650634765625|-0.6444244384765625|139499.739586875|0.04735100305107249|-0.05832861269480077|-0.2750022100984357|-5.360169887542725|-0.2119726240634918|0.1733516007661819|-0.1317921578884125|-0.2170742154121399|0.2123903632164001|XArbitraryZVertical|-0.136287739872961|-0.03212032565889311|0.02743569085535823|0.9897683299005843|-0.05610506609082222|0.2715490758419037|-0.9607878923416138|0|0|0|-1|-1|3
2021-04-22 21:29:11.142 +0100|139499.769526875|-0.1845855712890625|0.288848876953125|-0.5159912109375|139499.759546875|0.04365785406281197|-0.06378754554874627|-0.3883764546942708|-5.913132190704346|-0.1749344021081924|0.1546812355518341|-0.1165559217333794|-0.2188800275325775|0.3239270448684692|XArbitraryZVertical|-0.1921430379576599|-0.03549141003980205|0.02755808489755408|0.980337711877958|-0.05899694561958313|0.3786862790584564|-0.9236428141593933|0|0|0|-1|-1|3
2021-04-22 21:29:11.162 +0100|139499.789486875|-0.1624603271484375|0.45074462890625|-0.5056304931640625|139499.779506875|0.03800370114587001|-0.06896100102791683|-0.5077162208257435|-5.934954166412354|-0.09042376279830933|0.1358299553394318|-0.1187107488512993|-0.1590029299259186|0.3654482364654541|XArbitraryZVertical|-0.2503116343351545|-0.03813178899727351|0.02703697481130994|0.9670363198528077|-0.06021431088447571|0.4861828088760376|-0.8717800974845886|0|0|0|-1|-1|3
2021-04-22 21:29:11.182 +0100|139499.809446875|-0.1025238037109375|0.705352783203125|-0.57806396484375|139499.799466875|0.0311976163292105|-0.07269665700546264|-0.621117638318726|-5.408978462219238|0.05625590309500694|0.1046772822737694|-0.09201082587242126|-0.0655251145362854|0.2929080724716187|XArbitraryZVertical|-0.3048120076632984|-0.0393612062966542|0.02594610649898002|0.9512451355714082|-0.05906694382429123|0.5819444060325623|-0.8110806941986084|0|0|0|-1|-1|3
2021-04-22 21:29:11.201 +0100|139499.829406875|-0.088623046875|0.76580810546875|-0.6668548583984375|139499.819426875|0.02370744171858706|-0.07634839818476562|-0.7236727660351291|-4.890000343322754|0.0360737219452858|0.07411237061023712|-0.03029030561447144|0.0738213062286377|0.1418805122375488|XArbitraryZVertical|-0.3532864235991476|-0.03988414364901048|0.02458697293723906|0.9343412599608986|-0.05715831369161606|0.6621414422988892|-0.7471958994865417|0|0|0|-1|-1|3
2021-04-22 21:29:11.221 +0100|139499.849366875|-0.1358642578125|0.834075927734375|-0.7063140869140625|139499.839386875|0.01402623318908095|-0.08266957367786798|-0.818079823820927|-4.556890964508057|0.04161320626735687|-0.02320078387856483|-0.04193861410021782|0.03997212648391724|-0.001510202884674072|XArbitraryZVertical|-0.3971131906671991|-0.04069997048202139|0.0228639435171511|0.916581709172527|-0.05645054951310158|0.7298344969749451|-0.6812892556190491|0|0|0|-1|-1|3
2021-04-22 21:29:11.241 +0100|139499.869326875|-0.110931396484375|0.9705657958984375|-0.6749267578125|139499.859346875|-0.0002594270390513603|-0.09163125263255398|-0.9032908139481555|-3.9832603931427|0.1353839486837387|-0.1534842997789383|-0.0777568519115448|0.08819812536239624|-0.08473896980285645|XArbitraryZVertical|-0.4359938216180174|-0.04115072088182602|0.01987248116713361|0.8987888067206682|-0.0566430576145649|0.7853682637214661|-0.6164320111274719|0|0|0|-1|-1|3
2021-04-22 21:29:11.261 +0100|139499.889286875|-0.077728271484375|1.06591796875|-0.5783233642578125|139499.879306875|-0.01862546061866104|-0.1029983454586361|-0.9742173606718402|-3.161174535751343|0.219732329249382|-0.2347487956285477|-0.04517245292663574|0.1616603136062622|-0.09298568964004517|XArbitraryZVertical|-0.4678555378620201|-0.04113401404338008|0.01587511889739603|0.8827045540349936|-0.05776383727788925|0.8272624611854553|-0.5588383674621582|0|0|0|-1|-1|3
2021-04-22 21:29:11.282 +0100|139499.909246875|-0.0318145751953125|1.16943359375|-0.564971923828125|139499.899266875|-0.03990998457391089|-0.115339355975869|-1.026650025125244|-2.188388347625732|0.3321054875850677|-0.3261075913906097|-0.006249424070119858|0.2467259764671326|-0.05314874649047852|XArbitraryZVertical|-0.4911642402901741|-0.04041668096330612|0.01094580856659072|0.8700600483108801|-0.05957749858498573|0.8555695414543152|-0.5142483711242676|0|0|0|-1|-1|3
2021-04-22 21:29:11.301 +0100|139499.929206875|0.028564453125|1.183151245117188|-0.615142822265625|139499.919226875|-0.06214008583759277|-0.1266769028184269|-1.058705718385683|-1.136031150817871|0.4471583068370819|-0.402262419462204|0.0414586216211319|0.3091562390327454|-0.08461833000183105|XArbitraryZVertical|-0.5054161518964733|-0.03895104709647369|0.005187975357191222|0.8619806235815831|-0.06190592423081398|0.8717220425605774|-0.4860746562480927|0|0|0|-1|-1|3
2021-04-22 21:29:11.321 +0100|139499.949166875|0.0231170654296875|1.061355590820312|-0.638427734375|139499.939186875|-0.08432437177168736|-0.1377572268238698|-1.07239885746685|-0.4802168011665344|0.3608757853507996|-0.483031839132309|0.1014237850904465|0.2827225923538208|-0.1567120552062988|XArbitraryZVertical|-0.5117019013598469|-0.03763049891974933|-0.001019226500685597|0.858338062160277|-0.06564246118068695|0.8783497214317322|-0.4734902083873749|0|0|0|-1|-1|3
2021-04-22 21:29:11.341 +0100|139499.969126875|0.00445556640625|1.047607421875|-0.5968170166015625|139499.959146875|-0.1079140114489265|-0.1521908017748811|-1.0790084854549|-0.3858984708786011|0.2845583856105804|-0.5402689576148987|0.08467930555343628|0.1641495227813721|-0.1638391017913818|XArbitraryZVertical|-0.5149961904668513|-0.03750449355742774|-0.007140314433617894|0.8563418997914288|-0.07158780843019485|0.8814900517463684|-0.4667446613311768|0|0|0|-1|-1|3
2021-04-22 21:29:11.361 +0100|139499.989086875|-0.0029296875|1.015640258789062|-0.531158447265625|139499.979106875|-0.1329305402117075|-0.1693137752056615|-1.084796471206867|-0.3611363172531128|0.2133474051952362|-0.5056237578392029|0.08145397901535034|0.1606682538986206|-0.1215553879737854|XArbitraryZVertical|-0.5180169400111212|-0.03809911053361012|-0.01312950775007846|0.8544207174558479|-0.07870795577764511|0.8842083811759949|-0.4604138135910034|0|0|0|-1|-1|3
2021-04-22 21:29:11.381 +0100|139500.009046875|0.0042724609375|0.93951416015625|-0.4586639404296875|139499.999066875|-0.1526314804690986|-0.1827756648858932|-1.089779398905295|-0.2851921319961548|0.1930320709943771|-0.3065392673015594|0.07985429465770721|0.1099203824996948|-0.05511075258255005|XArbitraryZVertical|-0.5206086006036866|-0.03846459465572779|-0.01776374437187022|0.8527437094992295|-0.08409679681062698|0.8865248560905457|-0.4549743235111237|0|0|0|-1|-1|3
2021-04-22 21:29:11.402 +0100|139500.029006875|0.029388427734375|0.8905792236328125|-0.419891357421875|139500.019026875|-0.1632039947832199|-0.1883386308447707|-1.09379247680445|-0.2048915773630142|0.1839386522769928|-0.1213709339499474|0.09680812060832977|0.0401996374130249|0.008390247821807861|XArbitraryZVertical|-0.5225582792169344|-0.03784665599337954|-0.02057734118822842|0.8515146555466494|-0.08595968782901764|0.8883745074272156|-0.4510009586811066|0|0|0|-1|-1|3
2021-04-22 21:29:11.421 +0100|139500.048966875|0.047515869140625|0.8224029541015625|-0.3868560791015625|139500.038986875|-0.1670246884238932|-0.1882971597692191|-1.09662044843273|-0.1355790644884109|0.1573650538921356|0.02233163639903069|0.1214195117354393|-0.02203881740570068|0.02479919791221619|XArbitraryZVertical|-0.5238210854002824|-0.03666144239515879|-0.02204059504428289|0.8507536513420089|-0.08547037094831467|0.8896692991256714|-0.4485348165035248|0|0|0|-1|-1|3
2021-04-22 21:29:11.441 +0100|139500.068926875|0.0622711181640625|0.7829437255859375|-0.3388671875|139500.058946875|-0.1662472460624694|-0.1846436941809121|-1.099909205485629|-0.1911227107048035|0.1148674488067627|0.05699596181511879|0.1398724615573883|-0.08502864837646484|0.07436910271644592|XArbitraryZVertical|-0.525151550095848|-0.03511606851211427|-0.02246688104284775|0.8499870839698536|-0.08329344540834427|0.8911661505699158|-0.4459654092788696|0|0|0|-1|-1|3
2021-04-22 21:29:11.474 +0100|139500.088886875|0.0782623291015625|0.833892822265625|-0.3504486083984375|139500.078906875|-0.1672448604174392|-0.1824177686286499|-1.105741207184934|-0.3639701008796692|0.1696822792291641|0.0011439707595855|0.138469398021698|-0.09821838140487671|0.103889137506485|XArbitraryZVertical|-0.5275964426644686|-0.03356284450085949|-0.02312282460500665|0.8485168876145289|-0.08135632425546646|0.8937968611717224|-0.4410310685634613|0|0|0|-1|-1|3
2021-04-22 21:29:11.486 +0100|139500.108846875|0.08612060546875|0.864776611328125|-0.3428192138671875|139500.098866875|-0.171419134074653|-0.1828355038889793|-1.113220473848616|-0.3825335204601288|0.1670987904071808|-0.04235627874732018|0.1626892387866974|-0.0541689395904541|0.08553540706634521|XArbitraryZVertical|-0.5308089796530557|-0.032188687781312|-0.02432649654714202|0.8465306443560161|-0.08032286912202835|0.8971260786056519|-0.4344114363193512|0|0|0|-1|-1|3
2021-04-22 21:29:11.501 +0100|139500.128806875|0.0959625244140625|0.858673095703125|-0.34033203125|139500.118826875|-0.172090676347519|-0.1788515906739676|-1.120023157300435|-0.2869658172130585|0.1960276514291763|-0.05832814425230026|0.1658976376056671|-0.03141194581985474|0.08885428309440613|XArbitraryZVertical|-0.5336186067378303|-0.02991689584746815|-0.02525713138503137|0.8448185180558536|-0.07750404626131058|0.9001105427742004|-0.4287123382091522|0|0|0|-1|-1|3
2021-04-22 21:29:11.521 +0100|139500.148766875|0.1016845703125|0.884124755859375|-0.3550872802734375|139500.138786875|-0.1717427225593419|-0.1731025823117753|-1.12470924713314|-0.1680316925048828|0.2375670522451401|-0.08108725398778915|0.1733855456113815|-0.03882992267608643|0.07704615592956543|XArbitraryZVertical|-0.5354986465167773|-0.02730428919709891|-0.02636654287591323|0.8436828323059005|-0.07431081682443619|0.9021421670913696|-0.4249913394451141|0|0|0|-1|-1|3
2021-04-22 21:29:11.541 +0100|139500.168726875|0.09906005859375|0.9139556884765625|-0.3213348388671875|139500.158746875|-0.1741445432976501|-0.1694948866442582|-1.126739460099531|-0.02757414244115353|0.2972367703914642|-0.1503322869539261|0.176425501704216|-0.02255314588546753|0.07295688986778259|XArbitraryZVertical|-0.5363291017980837|-0.02501924439555071|-0.02822633843715289|0.8431657384898359|-0.07246795296669006|0.9030162692070007|-0.4234502613544464|0|0|0|-1|-1|3
2021-04-22 21:29:11.561 +0100|139500.188686875|0.0701904296875|0.969024658203125|-0.2610015869140625|139500.178706875|-0.1833402911158564|-0.1710820934684507|-1.125018428940671|0.1296144276857376|0.3710878193378448|-0.2847565710544586|0.1684203445911407|0.03394317626953125|0.1194466650485992|XArbitraryZVertical|-0.5357453060401647|-0.02332748734075403|-0.03178086971250928|0.8434588838715497|-0.0734044536948204|0.902275562286377|-0.4248656034469604|0|0|0|-1|-1|3
2021-04-22 21:29:11.581 +0100|139500.208646875|0.014556884765625|0.9909515380859375|-0.230865478515625|139500.198666875|-0.1986318933999574|-0.1766078077724043|-1.120542490733001|0.1882426738739014|0.4765837490558624|-0.4472034573554993|0.1290715038776398|0.06723886728286743|0.176030308008194|XArbitraryZVertical|-0.5341441737502255|-0.02185185112279099|-0.03703193765683042|0.8442992926898267|-0.07645979523658752|0.9003366827964783|-0.4284249842166901|0|0|0|-1|-1|3
2021-04-22 21:29:11.601 +0100|139500.228606875|0.001739501953125|0.9890289306640625|-0.2766265869140625|139500.218626875|-0.2159426288104881|-0.1797499796372858|-1.115377671538903|0.2837893962860107|0.7034480571746826|-0.5636173486709595|0.08251103013753891|0.09273773431777954|0.1962265372276306|XArbitraryZVertical|-0.5322277011461257|-0.01891095223806909|-0.04384101738261559|0.8452539346321081|-0.07863592356443405|0.8980769515037537|-0.4327521026134491|0|0|0|-1|-1|3
2021-04-22 21:29:11.621 +0100|139500.248566875|0.0482635498046875|0.9339599609375|-0.3526458740234375|139500.238586875|-0.2311394256185816|-0.1756810417476337|-1.107218729911388|0.5188385844230652|0.8794263601303101|-0.5778522491455078|0.0950586199760437|0.09089350700378418|0.157066285610199|XArbitraryZVertical|-0.5288451165777929|-0.01373304292702271|-0.05189441486372538|0.8470191059244647|-0.07815251499414444|0.8944584727287292|-0.440268486738205|0|0|0|-1|-1|3
2021-04-22 21:29:11.641 +0100|139500.268526875|0.0295867919921875|0.7736663818359375|-0.39874267578125|139500.258546875|-0.2481218030961477|-0.1718657282542107|-1.094311049339906|0.6409751772880554|0.9202747941017151|-0.571027934551239|0.1249636337161064|0.02094912528991699|0.07598701119422913|XArbitraryZVertical|-0.5234265558999053|-0.008592772719729748|-0.06097821416074354|0.8498426382066283|-0.07844024151563644|0.8886124491691589|-0.4519016146659851|0|0|0|-1|-1|3
2021-04-22 21:29:11.661 +0100|139500.288486875|0.0021820068359375|0.7301788330078125|-0.33453369140625|139500.278506875|-0.2687952996155565|-0.1717744163933133|-1.082599795853621|0.3427154719829559|0.9323689937591553|-0.6153684854507446|0.1033956035971642|-0.1574259996414185|0.08115062117576599|XArbitraryZVertical|-0.5185729157565592|-0.004069621868409786|-0.07061391108307029|0.8521028571537042|-0.08017239719629288|0.8831802010536194|-0.462131142616272|0|0|0|-1|-1|3
2021-04-22 21:29:11.681 +0100|139500.308446875|-0.06396484375|0.813690185546875|-0.320281982421875|139500.298466875|-0.2958164219615019|-0.1766142937667519|-1.076952000005276|-0.0009146510856226087|0.9710423946380615|-0.7640984058380127|0.07188417762517929|-0.119301438331604|0.1406071782112122|XArbitraryZVertical|-0.5164101251688458|0.0003949887640489426|-0.08128871065852493|0.8524744619311901|-0.0832831934094429|0.8805171251296997|-0.4666408598423004|0|0|0|-1|-1|3
2021-04-22 21:29:11.701 +0100|139500.328406875|-0.1141510009765625|0.8929290771484375|-0.3867645263671875|139500.318426875|-0.3326738295974683|-0.1889790586088654|-1.076527167304356|-0.2096298187971115|1.029111385345459|-0.9447644352912903|0.008244536817073822|-0.05519616603851318|0.1332563161849976|XArbitraryZVertical|-0.5167275374144786|0.004610635882324821|-0.09382504468379169|0.8509808334741884|-0.08911684155464172|0.8803156614303589|-0.4659428000450134|0|0|0|-1|-1|3
2021-04-22 21:29:11.721 +0100|139500.348366875|-0.09100341796875|0.887725830078125|-0.453216552734375|139500.338386875|-0.3730098624887537|-0.2037130189621492|-1.077749958715631|-0.2627198398113251|1.024116992950439|-0.8703003525733948|-0.01552879810333252|0.02456194162368774|0.05507844686508179|XArbitraryZVertical|-0.5178400170098417|0.008904179792980716|-0.107048866594654|0.8487068142504366|-0.09575429558753967|0.8808950781822205|-0.4635248780250549|0|0|0|-1|-1|3
2021-04-22 21:29:11.741 +0100|139500.368326875|-0.1078338623046875|0.8171234130859375|-0.488983154296875|139500.358346875|-0.4086556489638777|-0.2159524606377386|-1.080732844563523|-0.4249727725982666|0.8911780714988708|-0.7188279032707214|0.004740886390209198|-0.002328157424926758|-0.001080334186553955|XArbitraryZVertical|-0.519565830458549|0.01328901914206673|-0.1186980308542759|0.8460412214430281|-0.1008567661046982|0.88230299949646|-0.4597494900226593|0|0|0|-1|-1|3
2021-04-22 21:29:11.761 +0100|139500.388286875|-0.1490631103515625|0.8067779541015625|-0.5208740234375|139500.378306875|-0.4408792107933716|-0.2283864999729272|-1.089887798163613|-0.7789157629013062|0.7404545545578003|-0.5736175179481506|-0.01155587285757065|-0.09346854686737061|-0.04613012075424194|XArbitraryZVertical|-0.5238380707815679|0.01752476381816602|-0.1281329702774148|0.8419434041537019|-0.1047321408987045|0.8865750432014465|-0.4505731165409088|0|0|0|-1|-1|3
2021-04-22 21:29:11.781 +0100|139500.408246875|-0.17041015625|0.8664703369140625|-0.518890380859375|139500.398266875|-0.4733475287414522|-0.2435089152498167|-1.104281954021956|-0.9205889105796814|0.6173356771469116|-0.5508909821510315|-0.04602020978927612|-0.06884598731994629|-0.0882267951965332|XArbitraryZVertical|-0.5303605014428144|0.02154826425016526|-0.1362230396447508|0.8364788847862501|-0.1084453016519547|0.8931414484977722|-0.4365068078041077|0|0|0|-1|-1|3
2021-04-22 21:29:11.801 +0100|139500.428206875|-0.219146728515625|0.8863067626953125|-0.50982666015625|139500.418226875|-0.5073847422379164|-0.2635134428742942|-1.120310454126874|-0.9975443482398987|0.4396428167819977|-0.4880497753620148|-0.06743664294481277|-0.03103363513946533|-0.09996581077575684|XArbitraryZVertical|-0.5377872324121209|0.02445858639388949|-0.1432122810100084|0.8304679476205437|-0.1134113296866417|0.900235652923584|-0.4203733503818512|0|0|0|-1|-1|3
2021-04-22 21:29:11.822 +0100|139500.448167875|-0.23583984375|0.9564208984375|-0.4982452392578125|139500.438187875|-0.5394456176355905|-0.2848791934311233|-1.13625568426599|-0.878482460975647|0.3275285661220551|-0.4045291543006897|-0.1088263913989067|-0.00264430046081543|-0.09783476591110229|XArbitraryZVertical|-0.5452339759564985|0.02658854241996886|-0.1487108375634727|0.8245593226528887|-0.1183167397975922|0.9070635437965393|-0.4040259122848511|0|0|0|-1|-1|3
2021-04-22 21:29:11.848 +0100|139500.46813025|-0.248016357421875|0.964385986328125|-0.4742889404296875|139500.458147875|-0.5667471635828404|-0.3045183941237449|-1.147691485372928|-0.5596314072608948|0.1845937967300415|-0.3526594638824463|-0.116225078701973|0.05590951442718506|-0.1007431745529175|XArbitraryZVertical|-0.5507990422600239|0.02773054502272801|-0.1530403556520532|0.8200184236396286|-0.1231098473072052|0.9118185043334961|-0.3917028605937958|0|0|0|-1|-1|3
2021-04-22 21:29:11.861 +0100|139500.48809025|-0.26849365234375|0.9440460205078125|-0.4909515380859375|139500.47811025|-0.5883963141047343|-0.3217046164802768|-1.153171846346206|-0.2098097801208496|0.09344390779733658|-0.3253192007541656|-0.1265508085489273|0.04891222715377808|-0.09513583779335022|XArbitraryZVertical|-0.5539403802356064|0.02754456551265243|-0.1563923215725662|0.8172716064935105|-0.1282412558794022|0.9140549898147583|-0.3847827017307281|0|0|0|-1|-1|3
2021-04-22 21:29:11.881 +0100|139500.50805025|-0.2652740478515625|0.860443115234375|-0.5144195556640625|139500.49807025|-0.6027742426542695|-0.334077328883379|-1.15219929867851|0.072771355509758|-0.01875943318009377|-0.2582296133041382|-0.1295346468687057|0.008077800273895264|-0.1125139892101288|XArbitraryZVertical|-0.5543504354297095|0.02631524793742727|-0.1589772250239508|0.8165350019594422|-0.1332835406064987|0.9136601090431213|-0.3840062022209167|0|0|0|-1|-1|3
2021-04-22 21:29:11.900 +0100|139500.52801025|-0.2910614013671875|0.8561553955078125|-0.503997802734375|139500.51803025|-0.612602778061033|-0.3445894012678533|-1.148902686686745|0.07925060391426086|-0.1362280547618866|-0.2397133857011795|-0.1355054527521133|-0.05760902166366577|-0.121982753276825|XArbitraryZVertical|-0.5538106144153234|0.0241936952665677|-0.1605652383791618|0.8166562681133107|-0.1383295953273773|0.9123151302337646|-0.3854169249534607|0|0|0|-1|-1|3
2021-04-22 21:29:11.920 +0100|139500.54797025|-0.2803955078125|0.853118896484375|-0.4874114990234375|139500.53799025|-0.6221875551798655|-0.3573353171673186|-1.146633396246548|-0.02652354165911674|-0.2660704255104065|-0.1908431351184845|-0.1450478434562683|-0.05638760328292847|-0.1125766336917877|XArbitraryZVertical|-0.5538661686364963|0.02125623148397932|-0.1612919238818595|0.8165570395411719|-0.1439544260501862|0.9113835692405701|-0.3855608701705933|0|0|0|-1|-1|3
2021-04-22 21:29:11.940 +0100|139500.56793025|-0.2541046142578125|0.9299774169921875|-0.4509429931640625|139500.55795025|-0.6301918935343526|-0.3706881867157088|-1.145841134578844|-0.0277140736579895|-0.355111688375473|-0.1442014127969742|-0.1273370981216431|-0.03440898656845093|-0.09275731444358826|XArbitraryZVertical|-0.5545641931979801|0.0178858696554974|-0.1609814780486838|0.8162252727973377|-0.1493513286113739|0.9110572338104248|-0.3842773139476776|0|0|0|-1|-1|3
2021-04-22 21:29:11.960 +0100|139500.58789025|-0.270355224609375|0.9617156982421875|-0.427093505859375|139500.57791025|-0.6374652332252903|-0.3854330935250055|-1.146146773070932|-0.1035136282444|-0.4320597648620605|-0.1593424677848816|-0.1024439632892609|0.0130113959312439|-0.05728012323379517|XArbitraryZVertical|-0.5558038343127085|0.01394337517537634|-0.1598074987753277|0.8156894622621336|-0.1548963189125061|0.9111831784248352|-0.3817753493785858|0|0|0|-1|-1|3
2021-04-22 21:29:11.980 +0100|139500.60785025|-0.2516021728515625|1.0169677734375|-0.418365478515625|139500.59787025|-0.6480265175209332|-0.40380837822605|-1.146655410629771|-0.06713321805000305|-0.4461616277694702|-0.2158833295106888|-0.1031446903944016|0.06825238466262817|-0.0501035749912262|XArbitraryZVertical|-0.5573963843541723|0.00948399722448497|-0.1589163494539328|0.8148404940430017|-0.1617029011249542|0.9113926291465759|-0.3784386515617371|0|0|0|-1|-1|3
2021-04-22 21:29:12.000 +0100|139500.62781025|-0.265625|1.027603149414062|-0.4263916015625|139500.61783025|-0.6592571839916033|-0.4230133118567853|-1.145083624066398|0.02698018029332161|-0.4482887387275696|-0.2778949439525604|-0.08274596929550171|0.1135171055793762|-0.0415511429309845|XArbitraryZVertical|-0.5582965568244682|0.004503927529759175|-0.1583961866612899|0.8143681153387083|-0.1695283800363541|0.9107446670532227|-0.3765693306922913|0|0|0|-1|-1|3
2021-04-22 21:29:12.020 +0100|139500.64777025|-0.271148681640625|1.029922485351562|-0.46832275390625|139500.63779025|-0.672542259015691|-0.4437569100680704|-1.14156598059776|0.04150118306279182|-0.4247620105743408|-0.3603164255619049|-0.089954674243927|0.1176304221153259|-0.05968296527862549|XArbitraryZVertical|-0.5586301788785258|-0.000897146876853784|-0.1586168902941005|0.8141083012579612|-0.17867711186409|0.9092863202095032|-0.3758630454540253|0|0|0|-1|-1|3
2021-04-22 21:29:12.040 +0100|139500.66773025|-0.28277587890625|1.03656005859375|-0.486541748046875|139500.65775025|-0.6882807448541906|-0.4667440591328395|-1.137905502222742|0.001673525432124734|-0.4365266263484955|-0.3706250786781311|-0.0835893303155899|0.11957186460495|-0.101294070482254|XArbitraryZVertical|-0.5591454109337725|-0.006564332431381441|-0.1592466205407772|0.8136054867519055|-0.1887655854225159|0.9077568650245667|-0.374626636505127|0|0|0|-1|-1|3
2021-04-22 21:29:12.060 +0100|139500.68769025|-0.2752227783203125|1.052963256835938|-0.485504150390625|139500.67771025|-0.7028555708495007|-0.4885486688237908|-1.134266819295298|0.04022536426782608|-0.4260607957839966|-0.3291280567646027|-0.08514772355556488|0.1451674103736877|-0.1149746477603912|XArbitraryZVertical|-0.5596301879600282|-0.01208097054446449|-0.1597405712800578|0.8131120276132566|-0.1984376609325409|0.9062244296073914|-0.3733361959457397|0|0|0|-1|-1|3
2021-04-22 21:29:12.080 +0100|139500.70765025|-0.300048828125|0.9969635009765625|-0.5072784423828125|139500.69767025|-0.7120418434661275|-0.5051273972817565|-1.130057106679423|0.144207090139389|-0.4076156318187714|-0.2131767570972443|-0.07027506828308105|0.1350381970405579|-0.1177727580070496|XArbitraryZVertical|-0.5595016430096031|-0.01710799058741956|-0.1596257400787925|0.8131328260736699|-0.2064438611268997|0.9044365286827087|-0.3733304440975189|0|0|0|-1|-1|3
2021-04-22 21:29:12.100 +0100|139500.72761025|-0.300750732421875|0.96734619140625|-0.5325469970703125|139500.71763025|-0.714554046599414|-0.5153948020859395|-1.126072487211886|0.1330258548259735|-0.3907840549945831|-0.07482660561800003|-0.09441764652729034|0.08471280336380005|-0.1389198303222656|XArbitraryZVertical|-0.5589096269602815|-0.02140201132760085|-0.1585346647482796|0.8136516029718397|-0.2120406627655029|0.9027295112609863|-0.3743239641189575|0|0|0|-1|-1|3
2021-04-22 21:29:12.120 +0100|139500.74757025|-0.28155517578125|0.89849853515625|-0.4870758056640625|139500.73759025|-0.71209685297903|-0.5206986790283429|-1.123502538549625|0.1274651736021042|-0.365229606628418|0.04872871190309525|-0.08311840891838074|0.05786728858947754|-0.1505964398384094|XArbitraryZVertical|-0.5583756838599934|-0.02477829628969869|-0.1565452706660728|0.8143072746491157|-0.2151764333248138|0.9016209244728088|-0.3752052485942841|0|0|0|-1|-1|3
2021-04-22 21:29:12.140 +0100|139500.76753025|-0.265655517578125|0.8892669677734375|-0.4434356689453125|139500.75755025|-0.7040166755351295|-0.5201540631947037|-1.122816500822216|0.107447475194931|-0.3121652901172638|0.2266541421413422|-0.06407921016216278|-0.01513898372650146|-0.09827637672424316|XArbitraryZVertical|-0.5579820736262044|-0.02695290535058075|-0.1535370973703974|0.8150804077063249|-0.2152794599533081|0.9013239741325378|-0.3758590817451477|0|0|0|-1|-1|3
2021-04-22 21:29:12.160 +0100|139500.78749025|-0.258636474609375|0.868133544921875|-0.4471893310546875|139500.77751025|-0.689414194032391|-0.5130967748328394|-1.124172847922461|0.09595593810081482|-0.3031339645385742|0.3748793005943298|-0.05009491741657257|-0.01351308822631836|-0.05947118997573853|XArbitraryZVertical|-0.5577376784654687|-0.02787206774348045|-0.1492940773906405|0.8160044957989795|-0.2120213359594345|0.901910662651062|-0.3763036727905273|0|0|0|-1|-1|3
2021-04-22 21:29:12.180 +0100|139500.80745025|-0.2637481689453125|0.8464202880859375|-0.4618072509765625|139500.79747025|-0.6707637792773821|-0.5025452322434452|-1.12667981336856|0.06604209542274475|-0.3243613839149475|0.4473563432693481|-0.05184054374694824|-0.04129588603973389|-0.07400822639465332|XArbitraryZVertical|-0.557613277915657|-0.02826415930639686|-0.1441551984551907|0.8169994366279456|-0.206949308514595|0.9029906392097473|-0.3765371441841125|0|0|0|-1|-1|3
2021-04-22 21:29:12.200 +0100|139500.82741025|-0.267974853515625|0.8637237548828125|-0.459320068359375|139500.81743025|-0.6500753617541812|-0.4907904517013792|-1.130509960291691|0.01678691431879997|-0.3699980080127716|0.5194212794303894|-0.06316152215003967|-0.0635649561882019|-0.09015783667564392|XArbitraryZVertical|-0.5578920466830296|-0.02848259823642613|-0.138279639485148|0.8178166220381039|-0.20087730884552|0.904629647731781|-0.3758904039859772|0|0|0|-1|-1|3
2021-04-22 21:29:12.220 +0100|139500.84737025|-0.2688140869140625|0.8831787109375|-0.4780120849609375|139500.83739025|-0.6291672461281808|-0.4797832160343507|-1.135992949357847|-0.09765943884849548|-0.4321824014186859|0.523088812828064|-0.0733724981546402|-0.0336310863494873|-0.08839276432991028|XArbitraryZVertical|-0.5588697976744771|-0.02877630670968253|-0.1318244635442021|0.81820464243824|-0.1944352388381958|0.9069528579711914|-0.3736729323863983|0|0|0|-1|-1|3
2021-04-22 21:29:12.240 +0100|139500.86733025|-0.2922210693359375|0.99237060546875|-0.495208740234375|139500.85735025|-0.6119879375667067|-0.4732248535078522|-1.141931079859031|-0.1424690037965775|-0.4691371321678162|0.4375829994678497|-0.08353415131568909|-0.01071047782897949|-0.1091223359107971|XArbitraryZVertical|-0.5603945261743525|-0.02979882106289557|-0.1255949749128887|0.8181052199060374|-0.1895226091146469|0.9094381928443909|-0.370140016078949|0|0|0|-1|-1|3
2021-04-22 21:29:12.260 +0100|139500.88729025|-0.364654541015625|1.133316040039062|-0.49609375|139500.87731025|-0.5984478447967013|-0.4706980067152063|-1.144895803059427|-0.02461596950888634|-0.478287547826767|0.3422566652297974|-0.1227725297212601|0.1095969676971436|-0.130168616771698|XArbitraryZVertical|-0.5611311387593992|-0.03202122191563141|-0.1202534769588384|0.8183188581616406|-0.1873630732297897|0.9106670618057251|-0.3682129681110382|0|0|0|-1|-1|3
2021-04-22 21:29:12.280 +0100|139500.90725025|-0.4045867919921875|1.238967895507812|-0.481536865234375|139500.89727025|-0.584906545307322|-0.4677459829031937|-1.146755594004066|0.1073836237192154|-0.4776753485202789|0.2346596121788025|-0.1928005665540695|0.2704665064811707|-0.1256517171859741|XArbitraryZVertical|-0.5614257821945489|-0.03427958585792121|-0.1152232003647415|0.8187488674984625|-0.1855112910270691|0.9114338159561157|-0.367251992225647|0|0|0|-1|-1|3
2021-04-22 21:29:12.300 +0100|139500.92721025|-0.33441162109375|1.135086059570312|-0.466552734375|139500.91723025|-0.573082458717145|-0.466552061959587|-1.146135925896294|0.1476993262767792|-0.4611308872699738|0.1889267414808273|-0.2134472131729126|0.3098756074905396|-0.1021753251552582|XArbitraryZVertical|-0.5609153921406531|-0.03721780021067076|-0.1108196584081691|0.8195778230363893|-0.1853266656398773|0.9111787080764771|-0.3679775297641754|0|0|0|-1|-1|3
2021-04-22 21:29:12.320 +0100|139500.94717025|-0.25054931640625|0.99822998046875|-0.4464111328125|139500.93719025|-0.5599159494657174|-0.4635143025269886|-1.145349579933582|0.1701951622962952|-0.4339185953140259|0.2696065902709961|-0.1238372325897217|0.1899759769439697|-0.09285551309585571|XArbitraryZVertical|-0.560201876380958|-0.03979957487208783|-0.1064035227204414|0.8205292660822955|-0.1845283359289169|0.9108544588088989|-0.3691796958446503|0|0|0|-1|-1|3
2021-04-22 21:29:12.340 +0100|139500.96713025|-0.1834564208984375|0.908477783203125|-0.441864013671875|139500.95715025|-0.5415049805569925|-0.4545902040448958|-1.144465716562506|0.2571457624435425|-0.3462434411048889|0.3727856278419495|-0.05233794450759888|0.06119078397750854|-0.07397478818893433|XArbitraryZVertical|-0.5590307346563606|-0.04143767977067177|-0.1014857396911115|0.8218689050138921|-0.181579977273941|0.9104892611503601|-0.3715351223945618|0|0|0|-1|-1|3
2021-04-22 21:29:12.360 +0100|139500.98709025|-0.1686553955078125|0.8266754150390625|-0.4009857177734375|139500.97711025|-0.5166759129733832|-0.4381677865553318|-1.143232399692603|0.2946609556674957|-0.2703072130680084|0.493234783411026|0.002040684223175049|-0.01924639940261841|-0.05980324745178223|XArbitraryZVertical|-0.5572341860822647|-0.04181391227791416|-0.09604984869451554|0.8237210153763934|-0.1759305149316788|0.9099785685539246|-0.3754833042621613|0|0|0|-1|-1|3
2021-04-22 21:29:12.380 +0100|139501.00705025|-0.1225433349609375|0.72052001953125|-0.3352813720703125|139500.99707025|-0.4880520916939951|-0.4167641149971351|-1.142944338510375|0.188234806060791|-0.1831890195608139|0.5530824661254883|0.003073021769523621|-0.108680784702301|0.006615608930587769|XArbitraryZVertical|-0.5555341605529376|-0.04099687257054901|-0.0902455868288453|0.8255645954561237|-0.1679601520299911|0.9098591208457947|-0.3794021010398865|0|0|0|-1|-1|3
2021-04-22 21:29:12.400 +0100|139501.02701025|-0.00909423828125|0.5747833251953125|-0.28631591796875|139501.01703025|-0.4608903274584513|-0.3949058224239831|-1.145608065483607|0.003176347119733691|-0.1069120913743973|0.5921967625617981|0.06379960477352142|-0.2242388129234314|0.05268120765686035|XArbitraryZVertical|-0.5550659448354067|-0.03911102222409102|-0.08471039762507825|0.826557026047715|-0.1586946994066238|0.9109610915184021|-0.3807442486286163|0|0|0|-1|-1|3
2021-04-22 21:29:12.420 +0100|139501.04697025|0.0727386474609375|0.577667236328125|-0.2596282958984375|139501.03699025|-0.436031275493155|-0.373302626799687|-1.151767177544091|-0.1645074337720871|0.003805904649198055|0.5618434548377991|0.1625891923904419|-0.3557142615318298|0.1057813763618469|XArbitraryZVertical|-0.5561139710817495|-0.03621305075982612|-0.07959180659739293|0.8264932698522283|-0.1483839154243469|0.9134843945503235|-0.3788517415523529|0|0|0|-1|-1|3
2021-04-22 21:29:12.440 +0100|139501.06693125|0.0682220458984375|0.5970611572265625|-0.23114013671875|139501.05695025|-0.4148001682356265|-0.3531926538293385|-1.158435711734026|-0.1167763769626617|0.07388746738433838|0.474936306476593|0.2199085056781769|-0.3301936388015747|0.1219465732574463|XArbitraryZVertical|-0.5575832902129489|-0.0329147494724091|-0.0755484171294958|0.8260206464159772|-0.1386255919933319|0.9161773324012756|-0.3760349750518799|0|0|0|-1|-1|3
2021-04-22 21:29:12.460 +0100|139501.08689125|0.0460662841796875|0.6377410888671875|-0.19989013671875|139501.07691125|-0.3955633225712056|-0.3329604962317038|-1.16176725067108|0.05867024883627892|0.1873996555805206|0.3603478372097015|0.1942149847745895|-0.31023770570755|0.1566232442855835|XArbitraryZVertical|-0.5578460943683394|-0.02949301803218431|-0.07283027170312178|0.826216574900383|-0.1299914121627808|0.9175074100494385|-0.3758758008480072|0|0|0|-1|-1|3
2021-04-22 21:29:12.480 +0100|139501.10685125|0.049896240234375|0.641754150390625|-0.23211669921875|139501.09687125|-0.3789468578641012|-0.3129447492786932|-1.16074195094064|0.2163150459527969|0.2908072173595428|0.2551634609699249|0.1649371385574341|-0.2828824520111084|0.1760814785957336|XArbitraryZVertical|-0.5564861638588762|-0.02597343761303079|-0.07165817035589529|0.8273535126077055|-0.1227319911122322|0.9170991182327271|-0.3792970478534698|0|0|0|-1|-1|3
2021-04-22 21:29:12.500 +0100|139501.12681125|0.0529632568359375|0.6543121337890625|-0.299224853515625|139501.11683125|-0.3656463620124175|-0.2950342255906073|-1.158627519663609|0.07029572874307632|0.2581364512443542|0.1934558004140854|0.1707881689071655|-0.26951003074646|0.1292002499103546|XArbitraryZVertical|-0.5548417392295443|-0.02250198290736801|-0.07136560075439449|0.8285839274941207|-0.1164827942848206|0.9162541627883911|-0.3832886219024658|0|0|0|-1|-1|3
2021-04-22 21:29:12.520 +0100|139501.14677125|0.023834228515625|0.7707977294921875|-0.29534912109375|139501.13679125|-0.3599456707108377|-0.2852753171712772|-1.16209346515118|-0.3577755391597748|0.1952969431877136|0.1203633919358253|0.1565653085708618|-0.2377203702926636|0.07895973324775696|XArbitraryZVertical|-0.55581936983517|-0.01964942553360951|-0.07133870209460705|0.8280033780246695|-0.1118424460291862|0.9176371097564697|-0.3813574612140656|0|0|0|-1|-1|3
2021-04-22 21:29:12.540 +0100|139501.16673125|-0.0377960205078125|0.93927001953125|-0.2227630615234375|139501.15675125|-0.3632554984014797|-0.2849340085926645|-1.172683785650751|-0.6489741206169128|0.166725680232048|0.0482778362929821|0.1158401891589165|-0.1152296662330627|0.08985313773155212|XArbitraryZVertical|-0.5600655875454461|-0.01739074020097536|-0.07166492331449745|0.8251595855067839|-0.108974389731884|0.9217943549156189|-0.3720481991767883|0|0|0|-1|-1|3
2021-04-22 21:29:12.559 +0100|139501.18669125|-0.090179443359375|1.134994506835938|-0.21356201171875|139501.17671125|-0.3733825583513292|-0.2903122034480641|-1.185052647216495|-0.5794509649276733|0.2451808154582977|-0.07309688627719879|0.05701128393411636|0.06573003530502319|0.1488962769508362|XArbitraryZVertical|-0.5652544481271368|-0.015339719138862|-0.07297357840142872|0.8215394608772562|-0.1077016517519951|0.9265188574790955|-0.3605042099952698|0|0|0|-1|-1|3
2021-04-22 21:29:12.579 +0100|139501.20665125|-0.138275146484375|1.249832153320312|-0.2795257568359375|139501.19667125|-0.3873617713938352|-0.2973946889304144|-1.192400954844324|-0.2770323753356934|0.3540953099727631|-0.21407450735569|0.002143867313861847|0.2391224503517151|0.1327703893184662|XArbitraryZVertical|-0.5685186126040157|-0.01341722553283519|-0.0758772761131276|0.8190538827924583|-0.10825414955616|0.9292586445808411|-0.3532131314277649|0|0|0|-1|-1|3
2021-04-22 21:29:12.599 +0100|139501.22661125|-0.160858154296875|1.288436889648438|-0.3348236083984375|139501.21663125|-0.4027510744316727|-0.3041223195680306|-1.193645344211992|-0.02849274873733521|0.4043856859207153|-0.2893307507038116|-0.03278547525405884|0.3295294642448425|0.05359897017478943|XArbitraryZVertical|-0.5693661637079955|-0.01164171986877436|-0.08011865835364024|0.8180878329463495|-0.1102816015481949|0.9297176003456116|-0.3513732850551605|0|0|0|-1|-1|3
2021-04-22 21:29:12.619 +0100|139501.24657125|-0.170440673828125|1.258209228515625|-0.3648681640625|139501.23659125|-0.4191572442082741|-0.3112381215150893|-1.190836710856824|0.08921455591917038|0.3851748406887054|-0.3579956293106079|-0.04726520925760269|0.3705151081085205|0.007789313793182373|XArbitraryZVertical|-0.5686502183516388|-0.01023742479617486|-0.08513840571567617|0.8180976460741086|-0.1135783717036247|0.9286795854568481|-0.353064239025116|0|0|0|-1|-1|3
2021-04-22 21:29:12.639 +0100|139501.26653125|-0.1943817138671875|1.211349487304688|-0.4098358154296875|139501.25655125|-0.4358069032525612|-0.3198847267201739|-1.188365333421965|-0.05178650096058846|0.3079684674739838|-0.2936043739318848|-0.06128712743520737|0.3041279315948486|-0.02003541588783264|XArbitraryZVertical|-0.5681453228698644|-0.009362914600841757|-0.08979322624116591|0.8179611821039868|-0.1173482015728951|0.9277601838111877|-0.3542464673519135|0|0|0|-1|-1|3
2021-04-22 21:29:12.659 +0100|139501.28649125|-0.1435089111328125|1.110275268554688|-0.41455078125|139501.27651125|-0.4485057680857598|-0.3264555882780414|-1.188925619117329|-0.1411299705505371|0.1968552619218826|-0.120057113468647|-0.06170734018087387|0.2735540866851807|-0.06290179491043091|XArbitraryZVertical|-0.5687198104554305|-0.008365014820413606|-0.09304653019115439|0.8172089149863095|-0.1195067390799522|0.9279690980911255|-0.352975606918335|0|0|0|-1|-1|3
2021-04-22 21:29:12.679 +0100|139501.30645125|-0.1088714599609375|1.025146484375|-0.39508056640625|139501.29647125|-0.4522716275525336|-0.327190812935381|-1.192326736308787|-0.2345283329486847|0.0878177210688591|0.0948728621006012|-0.01700698584318161|0.1522968411445618|-0.05894625186920166|XArbitraryZVertical|-0.5700883562385689|-0.007131632109295846|-0.09394158218385067|0.816163943235612|-0.1187511682510376|0.9292312264442444|-0.3498968183994293|0|0|0|-1|-1|3
2021-04-22 21:29:12.699 +0100|139501.32641125|-0.0666351318359375|0.972686767578125|-0.417205810546875|139501.31643125|-0.4479494362587148|-0.322282616759015|-1.198333064030771|-0.2737265229225159|-0.003498667385429144|0.2418567985296249|0.01777338236570358|0.08840298652648926|-0.05518397688865662|XArbitraryZVertical|-0.572172701374923|-0.005551532140212027|-0.09281743548143001|0.814845168134804|-0.1152624860405922|0.9314337372779846|-0.3451751470565796|0|0|0|-1|-1|3
2021-04-22 21:29:12.719 +0100|139501.34637125|-0.0622711181640625|0.94793701171875|-0.45050048828125|139501.33639125|-0.4374776883084925|-0.313570129703988|-1.205144628922206|-0.2456923127174377|-0.1000910326838493|0.3191750347614288|0.04895013570785522|0.02709263563156128|-0.08341428637504578|XArbitraryZVertical|-0.5743881151056335|-0.004099820087450181|-0.09020036247099082|0.8135879953430047|-0.1102911606431007|0.9338909387588501|-0.3401229679584503|0|0|0|-1|-1|3
2021-04-22 21:29:12.739 +0100|139501.36633125|-0.063995361328125|0.9322967529296875|-0.4743804931640625|139501.35635125|-0.423261536623378|-0.302900537777306|-1.210260578240158|-0.0714724063873291|-0.1659712493419647|0.3139703869819641|0.03734248131513596|0.01024580001831055|-0.1296526789665222|XArbitraryZVertical|-0.5758748520755747|-0.003187326810234919|-0.08686571247676614|0.8129037883978316|-0.1052295416593552|0.9357079863548279|-0.3367159962654114|0|0|0|-1|-1|3
2021-04-22 21:29:12.759 +0100|139501.38629125|-0.080596923828125|0.9000244140625|-0.4362030029296875|139501.37631125|-0.4073850445334198|-0.2919465536451575|-1.211239131801922|0.1693857908248901|-0.2093885540962219|0.2226310074329376|0.03182788193225861|-0.01681703329086304|-0.1292904913425446|XArbitraryZVertical|-0.5757639886888369|-0.003182436274995305|-0.08344958278156347|0.8133400881889084|-0.1012713387608528|0.9360527396202087|-0.3369714021682739|0|0|0|-1|-1|3
2021-04-22 21:29:12.779 +0100|139501.40625125|-0.0597991943359375|0.8592071533203125|-0.3515167236328125|139501.39627125|-0.3927207428474871|-0.2823316327411965|-1.207383706329878|0.322943240404129|-0.2063217759132385|0.1683560460805893|0.02473567426204681|-0.03899788856506348|-0.07645285129547119|XArbitraryZVertical|-0.5738361823081972|-0.003948434141854308|-0.08068124963047182|0.8149767791574252|-0.09903140366077423|0.9346892237663269|-0.3413929045200348|0|0|0|-1|-1|3
2021-04-22 21:29:12.799 +0100|139501.42621125|-0.0475311279296875|0.8775177001953125|-0.3385009765625|139501.41623125|-0.3805908662005577|-0.2749144615119489|-1.201747464885282|0.3225392401218414|-0.1842414438724518|0.08763172477483749|0.03902541100978851|-0.07112884521484375|0.01374843716621399|XArbitraryZVertical|-0.5712995674974702|-0.005054273070278462|-0.07847605407798328|0.8169655658473713|-0.09792500734329224|0.9326708912849426|-0.3471825122833252|0|0|0|-1|-1|3
2021-04-22 21:29:12.819 +0100|139501.44617125|-0.0522308349609375|0.86083984375|-0.3688507080078125|139501.43619125|-0.3706262223311245|-0.2690073352168084|-1.194639061767904|0.3401207029819489|-0.1817090958356857|0.04787321761250496|0.05153462290763855|-0.05891269445419312|-0.0009791851043701172|XArbitraryZVertical|-0.5682355682906978|-0.006286614911817461|-0.07684448783551719|0.819245890158497|-0.09763211011886597|0.9300830960273743|-0.3541376292705536|0|0|0|-1|-1|3
2021-04-22 21:29:12.839 +0100|139501.4661312917|-0.0849609375|0.8657989501953125|-0.358184814453125|139501.45615125|-0.3617400504645883|-0.264374398567552|-1.187396563407202|0.2069298624992371|-0.2105593830347061|0.01637831702828407|0.03477435559034348|-0.06973183155059814|-0.008411645889282227|XArbitraryZVertical|-0.5651557701284928|-0.007710663182990046|-0.07527068622021856|0.8215071420500957|-0.0977480560541153|0.9273982048034668|-0.3610790073871613|0|0|0|-1|-1|3
2021-04-22 21:29:12.859 +0100|139501.4860912917|-0.106170654296875|0.9261932373046875|-0.3331146240234375|139501.4761112917|-0.3575416000622882|-0.2643069747647035|-1.182999394240215|0.1297259032726288|-0.2063917517662048|-0.01344180759042501|0.01118668168783188|-0.04309934377670288|0.009275913238525391|XArbitraryZVertical|-0.5633856602213144|-0.009350017422877829|-0.07401797108109974|0.8228187185749845|-0.0987880676984787|0.9257444143295288|-0.3650183379650116|0|0|0|-1|-1|3
2021-04-22 21:29:12.879 +0100|139501.5060512917|-0.121246337890625|0.9615020751953125|-0.33367919921875|139501.4960712917|-0.3553577615914817|-0.2658087160681728|-1.180683348607955|0.09521777182817459|-0.1612562388181686|-0.03706839680671692|-0.01327603310346603|0.004562318325042725|0.0460459291934967|XArbitraryZVertical|-0.5625068212456399|-0.01083568047732822|-0.07293488093834948|0.8234981906852264|-0.099899061024189|0.9248660802841187|-0.3669373393058777|0|0|0|-1|-1|3
2021-04-22 21:29:12.899 +0100|139501.5260112917|-0.1130828857421875|0.9797515869140625|-0.359283447265625|139501.5160312917|-0.3534930782537745|-0.2663694933487502|-1.178881911228961|0.1106937676668167|-0.1107526868581772|-0.02900869399309158|-0.01725530624389648|0.04306018352508545|0.02440318465232849|XArbitraryZVertical|-0.5617981040817915|-0.01178697076971929|-0.07219450570203063|0.8240339626660487|-0.100543200969696|0.9241795539855957|-0.3684879243373871|0|0|0|-1|-1|3
2021-04-22 21:29:12.919 +0100|139501.5459712917|-0.1118927001953125|0.98291015625|-0.3787994384765625|139501.5359912917|-0.3509240094811788|-0.2657229161624491|-1.176526847332734|0.07876035571098328|-0.1064711734652519|-0.006885549053549767|-0.0153048112988472|0.06399720907211304|0.001848191022872925|XArbitraryZVertical|-0.5608187865213474|-0.01249695676434487|-0.07155846504587918|0.8247458685946465|-0.1008762866258621|0.9232774376869202|-0.3706522285938263|0|0|0|-1|-1|3
2021-04-22 21:29:12.939 +0100|139501.5659322917|-0.1113739013671875|0.9632415771484375|-0.3480682373046875|139501.5559522917|-0.3492630295171779|-0.2664889963008116|-1.176063304456172|-0.03606691211462021|-0.125561460852623|0.0305478423833847|-0.01002544164657593|0.05100691318511963|-0.002913028001785278|XArbitraryZVertical|-0.5606502088532035|-0.0133286252030114|-0.07070603278724856|0.8249208512480511|-0.1012728288769722|0.9230992794036865|-0.3709873855113983|0|0|0|-1|-1|3
2021-04-22 21:29:12.959 +0100|139501.5858922917|-0.09075927734375|0.975311279296875|-0.329803466796875|139501.5759122917|-0.3488231598538246|-0.2684388344438042|-1.178134531322607|-0.06178118288516998|-0.1031845137476921|0.0462377704679966|-0.004789374768733978|0.04383426904678345|0.0290718674659729|XArbitraryZVertical|-0.5615429537172603|-0.01403231475183945|-0.0697656158448282|0.824381946850258|-0.1014887541532516|0.9238938093185425|-0.3689452111721039|0|0|0|-1|-1|3
2021-04-22 21:29:12.979 +0100|139501.6058522917|-0.0946044921875|0.9475555419921875|-0.3179931640625|139501.5958722917|-0.3473512873570526|-0.269248169860362|-1.179661879438928|0.03234085813164711|-0.08575928956270218|0.0758865624666214|0.008210435509681702|0.04457831382751465|0.04271963238716125|XArbitraryZVertical|-0.5621702815287264|-0.01461432656178918|-0.06877503056839306|0.8240273392207139|-0.1014117673039436|0.9244771599769592|-0.3675020039081573|0|0|0|-1|-1|3
2021-04-22 21:29:12.999 +0100|139501.6258122917|-0.0778656005859375|0.9095306396484375|-0.347808837890625|139501.6158322917|-0.3417128487608476|-0.2655167413215769|-1.178453004811743|0.2057683616876602|-0.0622321292757988|0.1189103722572327|0.01387603580951691|0.01974087953567505|0.04666095972061157|XArbitraryZVertical|-0.5615186210938092|-0.01478990050336575|-0.06762248210729527|0.8245638186963027|-0.100332997739315|0.9240156412124634|-0.3689562082290649|0|0|0|-1|-1|3
2021-04-22 21:29:13.019 +0100|139501.6457722917|-0.100677490234375|0.823822021484375|-0.4137420654296875|139501.6357922917|-0.3311902655155882|-0.2574907342457526|-1.174277314391161|0.271998256444931|-0.1049225479364395|0.1809719800949097|0.01598265767097473|-0.02758938074111938|0.01247072219848633|XArbitraryZVertical|-0.5595000498083013|-0.01486414813293005|-0.06594514784231256|0.8260691026969432|-0.09835025668144226|0.9224109649658203|-0.3734774887561798|0|0|0|-1|-1|3
2021-04-22 21:29:13.039 +0100|139501.6657322917|-0.131011962890625|0.8220367431640625|-0.4326629638671875|139501.6557522917|-0.3194342910521418|-0.2494240567729785|-1.17129214742964|0.1944603770971298|-0.1541175693273544|0.2065043151378632|-0.01855002343654633|-0.1063274145126343|-0.0593530535697937|XArbitraryZVertical|-0.5579505637149833|-0.01511675364294014|-0.06362718082537694|0.8272933977492547|-0.0960136204957962|0.9212539792060852|-0.3769252896308899|0|0|0|-1|-1|3
2021-04-22 21:29:13.058 +0100|139501.6856922917|-0.134613037109375|0.827423095703125|-0.373260498046875|139501.6757122917|-0.3073737677400879|-0.2419521801622557|-1.170283563160025|0.1647055000066757|-0.1718328595161438|0.2197946459054947|-0.04397352784872055|-0.1086201667785645|-0.04944324493408203|XArbitraryZVertical|-0.5572190298577484|-0.01548595844619701|-0.06081341776983179|0.8279910161341162|-0.09341725707054138|0.9208611845970154|-0.3785342872142792|0|0|0|-1|-1|3
2021-04-22 21:29:13.079 +0100|139501.7056522917|-0.12957763671875|0.8678436279296875|-0.2915802001953125|139501.6956722917|-0.2954174183183892|-0.2343372331874661|-1.16903784903048|0.2104776948690414|-0.1362967193126678|0.2023147195577621|-0.03758975863456726|-0.09476703405380249|0.02602672576904297|XArbitraryZVertical|-0.5563955275020671|-0.01577846804492404|-0.05809359077248966|0.8287342339531015|-0.09079834073781967|0.9203748106956482|-0.3803501129150391|0|0|0|-1|-1|3
2021-04-22 21:29:13.099 +0100|139501.7256122917|-0.1215057373046875|0.8828887939453125|-0.2821502685546875|139501.7156322917|-0.2840123838144128|-0.2256781640327649|-1.16541225587421|0.2850829362869263|-0.06256747245788574|0.1546969562768936|-0.04227674752473831|-0.03383404016494751|0.09527960419654846|XArbitraryZVertical|-0.5545882579413778|-0.01568553316410927|-0.05608388548464116|0.8300846586095806|-0.08824756741523743|0.9189509749412537|-0.3843716681003571|0|0|0|-1|-1|3
2021-04-22 21:29:13.119 +0100|139501.7455722917|-0.134674072265625|0.8866729736328125|-0.30157470703125|139501.7355922917|-0.2756264312876437|-0.2192418662225952|-1.160242091993462|0.1395614445209503|-0.06371710449457169|0.08850204199552536|-0.03798297047615051|-0.03398001194000244|0.1007619500160217|XArbitraryZVertical|-0.5522397147380053|-0.01578747499304621|-0.05481510472105399|0.8317316904971154|-0.08680403977632523|0.9168997406959534|-0.3895640969276428|0|0|0|-1|-1|3
2021-04-22 21:29:13.139 +0100|139501.7655322917|-0.139129638671875|0.9107666015625|-0.311492919921875|139501.7555522917|-0.2737582022527427|-0.2192852803734936|-1.158034967226961|-0.06999915093183517|-0.08533137291669846|0.03149868175387383|-0.04629991203546524|-0.02885502576828003|0.08696988224983215|XArbitraryZVertical|-0.5513258427532789|-0.01651209518295263|-0.05420820857309493|0.8323633094902337|-0.0872608944773674|0.9160166382789612|-0.3915343284606934|0|0|0|-1|-1|3
2021-04-22 21:29:13.159 +0100|139501.7854922917|-0.1444091796875|0.95599365234375|-0.3199615478515625|139501.7755122917|-0.2765316824592164|-0.224041739835569|-1.159415846203394|-0.1292961090803146|-0.09744806587696075|0.003672553459182382|-0.05389025062322617|0.005061507225036621|0.08136463165283203|XArbitraryZVertical|-0.5520411964986602|-0.01760586334056946|-0.05393529152699118|0.8318843206168127|-0.08884108811616898|0.9165696501731873|-0.3898811042308807|0|0|0|-1|-1|3
2021-04-22 21:29:13.179 +0100|139501.8054522917|-0.172119140625|0.9901580810546875|-0.362335205078125|139501.7954722917|-0.2818929579904595|-0.2316002577067339|-1.163680505304653|-0.1799247860908508|-0.1127341315150261|-0.02442876808345318|-0.06368473172187805|0.04399877786636353|0.05516088008880615|XArbitraryZVertical|-0.5540288670509124|-0.01888663002111709|-0.05371102494803052|0.8305483363763229|-0.09088743478059769|0.9182666540145874|-0.3853906095027924|0|0|0|-1|-1|3
2021-04-22 21:29:13.198 +0100|139501.8254122917|-0.1402740478515625|0.9970855712890625|-0.394134521484375|139501.8154322917|-0.2883156634189971|-0.2402234533499003|-1.168432375474797|-0.1501020640134811|-0.1195188537240028|-0.04933438450098038|-0.0737026184797287|0.07972520589828491|0.007533133029937744|XArbitraryZVertical|-0.5562507225813981|-0.02024943024454224|-0.05356666176873214|0.8290391424319753|-0.09316813200712204|0.920137882232666|-0.3803502023220062|0|0|0|-1|-1|3
2021-04-22 21:29:13.218 +0100|139501.8453722917|-0.13909912109375|0.966766357421875|-0.3912353515625|139501.8353922917|-0.2959258186450002|-0.2505344882744765|-1.171290589552821|-0.09108135104179382|-0.1582846790552139|-0.08243267983198166|-0.04336912930011749|0.06225234270095825|-0.02205896377563477|XArbitraryZVertical|-0.5577634517077306|-0.02213371855601491|-0.05358929810490889|0.8279725164217262|-0.09643252193927765|0.9212533831596375|-0.3768200576305389|0|0|0|-1|-1|3
2021-04-22 21:29:13.238 +0100|139501.8653322917|-0.1341705322265625|0.9640350341796875|-0.3819580078125|139501.8553522917|-0.3043250683226935|-0.2621667248428091|-1.173283845023229|-0.06073109805583954|-0.1834223568439484|-0.09852287918329239|-0.0355929359793663|0.04507559537887573|-0.01568809151649475|XArbitraryZVertical|-0.5589767792215127|-0.02440897970945133|-0.05363037831340155|0.8270870889341808|-0.1003329753875732|0.9220268130302429|-0.3738983273506165|0|0|0|-1|-1|3
2021-04-22 21:29:13.258 +0100|139501.8852922917|-0.1339111328125|0.9527740478515625|-0.411468505859375|139501.8753122917|-0.3119838048910359|-0.2733995179888032|-1.173817555627482|0.05329051241278648|-0.1858112215995789|-0.08644766360521317|-0.02931979298591614|0.03899449110031128|-0.01291799545288086|XArbitraryZVertical|-0.5595906596391307|-0.02685787448419336|-0.05360372857431532|0.8265976736667168|-0.1043936014175415|0.9222332835197449|-0.3722738921642303|0|0|0|-1|-1|3
2021-04-22 21:29:13.278 +0100|139501.9052522917|-0.14044189453125|0.8886260986328125|-0.460113525390625|139501.8952722917|-0.3167097300363273|-0.2819596302241557|-1.171480970949413|0.1595835089683533|-0.18905308842659|-0.04424738883972168|-0.029672771692276|0.02191042900085449|-0.05387058854103088|XArbitraryZVertical|-0.5589480147657427|-0.02931424977076732|-0.05339692185238681|0.8269623901442835|-0.1081757694482803|0.9213274121284485|-0.3734355866909027|0|0|0|-1|-1|3
2021-04-22 21:29:13.298 +0100|139501.9252122917|-0.1255035400390625|0.8452301025390625|-0.4627532958984375|139501.9152322917|-0.3161438475307204|-0.2851981818844467|-1.167964300979314|0.1842277497053146|-0.1762954145669937|0.009869284927845001|-0.02671382576227188|-0.04104769229888916|-0.08935463428497314|XArbitraryZVertical|-0.5576136698174036|-0.03117613902851023|-0.0526148048883478|0.8278447623985157|-0.1102954745292664|0.9199544787406921|-0.3761900961399078|0|0|0|-1|-1|3
2021-04-22 21:29:13.318 +0100|139501.9451732917|-0.1308441162109375|0.84149169921875|-0.40802001953125|139501.9351922917|-0.3132042505414536|-0.2862082435877176|-1.164954286231757|0.1441201120615005|-0.1710419654846191|0.05019557848572731|-0.0150393545627594|-0.07880407571792603|-0.07529118657112122|XArbitraryZVertical|-0.5563834603357524|-0.03272447238005034|-0.05142129013482823|0.8286872512444413|-0.1114566177129745|0.9187703132629395|-0.3787330985069275|0|0|0|-1|-1|3
2021-04-22 21:29:13.339 +0100|139501.9651332917|-0.1304168701171875|0.8259124755859375|-0.3464813232421875|139501.9551532917|-0.3095571737238489|-0.2860575870693836|-1.162571784690305|0.1534998267889023|-0.1222925335168839|0.04139028489589691|-0.02044528722763062|-0.07892900705337524|-0.01076710224151611|XArbitraryZVertical|-0.5553602645420838|-0.03392062442698125|-0.0501920227619402|0.8294005165211051|-0.1120168790221214|0.9178270697593689|-0.3808487355709076|0|0|0|-1|-1|3
2021-04-22 21:29:13.358 +0100|139501.9850932917|-0.12725830078125|0.821197509765625|-0.3495635986328125|139501.9751132917|-0.306090168772028|-0.2847827672212152|-1.158792489986155|0.2368349581956863|-0.05239078775048256|0.02047141827642918|-0.01780559122562408|-0.09150582551956177|0.0458025336265564|XArbitraryZVertical|-0.5537457383574043|-0.03473838020913235|-0.04948614033436842|0.8304879902700099|-0.1125050932168961|0.9163202047348022|-0.3843178153038025|0|0|0|-1|-1|3
2021-04-22 21:29:13.378 +0100|139502.0050532917|-0.183258056640625|0.77996826171875|-0.3579559326171875|139501.9950732917|-0.3024028087617022|-0.2826747755372385|-1.153348533529981|0.1152142062783241|-0.07554521411657333|0.005021621938794851|-0.01980501413345337|-0.1098202466964722|0.03782287240028381|XArbitraryZVertical|-0.5514302640472668|-0.03543086356729138|-0.04907769870405639|0.8320221473673757|-0.1130843833088875|0.9141266345977783|-0.3893386423587799|0|0|0|-1|-1|3
2021-04-22 21:29:13.398 +0100|139502.0250132917|-0.1611328125|0.8051605224609375|-0.3501739501953125|139502.0150332917|-0.3032434857341627|-0.2845539630261006|-1.151368244229755|-0.1190378814935684|-0.05275372415781021|-0.05089739337563515|-0.07590813934803009|-0.1182776093482971|0.03280037641525269|XArbitraryZVertical|-0.5506903772871398|-0.03618056043677165|-0.04910631074906695|0.8324781236287295|-0.1143237948417664|0.9133219718933105|-0.3908621370792389|0|0|0|-1|-1|3
2021-04-22 21:29:13.418 +0100|139502.0449732917|-0.174468994140625|0.8631591796875|-0.3450469970703125|139502.0349932917|-0.3105735033187279|-0.2923636916704416|-1.153464382339169|-0.2583997845649719|-0.04167651757597923|-0.1305461525917053|-0.04135247319936752|-0.0979805588722229|0.04464888572692871|XArbitraryZVertical|-0.5518649263243004|-0.03719509528553735|-0.04979188875115095|0.8316144050379513|-0.1168207451701164|0.9141736030578613|-0.3881232440471649|0|0|0|-1|-1|3
2021-04-22 21:29:13.438 +0100|139502.0649332917|-0.1983795166015625|0.9982757568359375|-0.30908203125|139502.0549532917|-0.3222093323315235|-0.3035854372188582|-1.157422342268101|-0.2215177118778229|-0.01612796261906624|-0.2021149694919586|-0.05986136198043823|-0.04296755790710449|0.04277223348617554|XArbitraryZVertical|-0.5539610816855418|-0.03822343533251493|-0.05111203824265659|0.8300926629178027|-0.1200861483812332|0.9157707095146179|-0.3833321630954742|0|0|0|-1|-1|3
2021-04-22 21:29:13.458 +0100|139502.0848932917|-0.19134521484375|1.016525268554688|-0.3126068115234375|139502.0749132917|-0.3351361256939596|-0.315434183916218|-1.158608309653506|-0.0513116754591465|-0.01105725113302469|-0.2518426477909088|-0.07583709806203842|0.1187880635261536|0.07028833031654358|XArbitraryZVertical|-0.5549963306878892|-0.03942524217951909|-0.05306157753515499|0.829222054584469|-0.1242825239896774|0.9162464737892151|-0.3808494508266449|0|0|0|-1|-1|3
2021-04-22 21:29:13.478 +0100|139502.1048532917|-0.165740966796875|0.9665985107421875|-0.3235626220703125|139502.0948732917|-0.3508057270748914|-0.3309423155039955|-1.156391112396032|-0.01881542056798935|-0.04578029364347458|-0.2587151229381561|-0.06530366837978363|0.0890694260597229|0.06617680191993713|XArbitraryZVertical|-0.5548493594364282|-0.04175918715770576|-0.05550408142698592|0.829046267403471|-0.1308334022760391|0.9153559803962708|-0.3807967305183411|0|0|0|-1|-1|3
2021-04-22 21:29:13.498 +0100|139502.1248132917|-0.145660400390625|0.896484375|-0.266448974609375|139502.1148332917|-0.3647516950534371|-0.3459024729673562|-1.155442676525388|-0.1234941482543945|-0.1413520276546478|-0.219635009765625|-0.01240669190883636|0.03407758474349976|0.06203332543373108|XArbitraryZVertical|-0.555193230438345|-0.04420122303880327|-0.05724304770545407|0.8285710722333923|-0.1368096172809601|0.9149736762046814|-0.37961345911026|0|0|0|-1|-1|3
2021-04-22 21:29:13.518 +0100|139502.1447732917|-0.1779327392578125|0.8899688720703125|-0.078125|139502.1347932917|-0.3805969472512159|-0.3640860601714377|-1.15794423404182|-0.2735195457935333|-0.163077250123024|-0.2048619240522385|-0.01432272791862488|-0.02375262975692749|0.1569830775260925|XArbitraryZVertical|-0.5570710792353989|-0.04701202839992114|-0.0584389909474497|0.827071202228566|-0.1428739279508591|0.9159802198410034|-0.3749233782291412|0|0|0|-1|-1|3
2021-04-22 21:29:13.538 +0100|139502.1647332917|-0.2199249267578125|0.8938140869140625|0.0778350830078125|139502.1547532917|-0.3921628919559982|-0.3797811592489678|-1.161685742564495|-0.09316796809434891|-0.3679861426353455|-0.02552146092057228|-0.02477282285690308|-0.03370082378387451|0.3119246959686279|XArbitraryZVertical|-0.5592822382090621|-0.04978685323077728|-0.05835946850076786|0.8254205077077174|-0.1474690139293671|0.9174749851226807|-0.3694492876529694|0|0|0|-1|-1|3
2021-04-22 21:29:13.558 +0100|139502.1846932917|-0.286865234375|0.7871551513671875|0.1696319580078125|139502.1747132917|-0.3964052021254449|-0.3944172454287647|-1.162286436636002|-0.06365755945444107|-0.7484078407287598|-0.1127133592963219|-0.08648788928985596|-0.03708291053771973|0.4796127378940582|XArbitraryZVertical|-0.5600465761533997|-0.05455843857849794|-0.05593491462710008|0.8247682055593961|-0.1526484489440918|0.9177137613296509|-0.3667424321174622|0|0|0|-1|-1|3
2021-04-22 21:29:13.578 +0100|139502.2046532917|-0.352691650390625|0.7282867431640625|0.1908721923828125|139502.1946732917|-0.4058165362733047|-0.4222693013255413|-1.164458532820879|-0.268850713968277|-1.200720548629761|-0.1738976091146469|-0.1354092955589294|-0.1375835537910461|0.5341607332229614|XArbitraryZVertical|-0.5619196667517156|-0.06309769129947908|-0.05170324297903432|0.8231596295796862|-0.1619850844144821|0.9185744524002075|-0.3605299293994904|0|0|0|-1|-1|3
2021-04-22 21:29:13.598 +0100|139502.2246132917|-0.520721435546875|0.450286865234375|0.20574951171875|139502.2146332917|-0.4253506104803422|-0.4698374744721592|-1.168509635521772|-0.4065589010715485|-1.74310576915741|-0.3402432799339294|-0.2195617109537125|-0.2576617002487183|0.54502272605896|XArbitraryZVertical|-0.5653231904631646|-0.0765526235707877|-0.04573241321684025|0.8200353313201206|-0.1772588938474655|0.9201681017875671|-0.3490987718105316|0|0|0|-1|-1|3
2021-04-22 21:29:13.618 +0100|139502.2445732917|-0.5093536376953125|0.42913818359375|0.316375732421875|139502.2345932917|-0.4528028681102312|-0.5347973384920073|-1.170034755330704|-0.3790971040725708|-2.207856416702271|-0.5261337161064148|-0.3366917967796326|-0.5034969449043274|0.5801867246627808|XArbitraryZVertical|-0.5684450434861353|-0.09511080273569572|-0.03830800283469855|0.8163068510026492|-0.1988311856985092|0.920764148235321|-0.3356483280658722|0|0|0|-1|-1|3
2021-04-22 21:29:13.638 +0100|139502.2645332917|-0.4321441650390625|0.459686279296875|0.144317626953125|139502.2545532917|-0.4941379010661894|-0.6206074177613911|-1.172600411592313|-0.656661331653595|-2.584598779678345|-0.6551325917243958|-0.2522766590118408|-0.5027552247047424|0.6181241273880005|XArbitraryZVertical|-0.5730648004409414|-0.1177788770691185|-0.03017648071738145|0.8104409324613345|-0.2254918068647385|0.9217620491981506|-0.3154497444629669|0|0|0|-1|-1|3
2021-04-22 21:29:13.658 +0100|139502.2844942917|-0.315521240234375|0.37396240234375|-0.1892547607421875|139502.2745132917|-0.5445247598225996|-0.7221713261073115|-1.174805408627059|-0.7715679407119751|-2.985857486724854|-0.723694384098053|-0.1574310064315796|-0.4182657599449158|0.3353351652622223|XArbitraryZVertical|-0.5784444510335219|-0.1438200814380022|-0.02082104594332461|0.8026732430689879|-0.2549687027931213|0.9226148128509521|-0.2894355952739716|0|0|0|-1|-1|3
2021-04-22 21:29:13.678 +0100|139502.3044542917|-0.2179412841796875|0.49725341796875|-0.4383087158203125|139502.2944742917|-0.6090236525319208|-0.8453605526058109|-1.179257474596963|-1.314892649650574|-3.250264644622803|-0.7217109203338623|-0.02697482705116272|-0.6167055368423462|0.04241594672203064|XArbitraryZVertical|-0.5860089039429278|-0.1732089914525565|-0.009666992575187465|0.7915167542798196|-0.2855255305767059|0.9243229031562805|-0.2531844079494476|0|0|0|-1|-1|3
2021-04-22 21:29:13.698 +0100|139502.3244142917|0.0918426513671875|1.348342895507812|-1.292388916015625|139502.3144342917|-0.6798381728848456|-0.9737274249085568|-1.183281229443417|-0.8425198793411255|-3.026744842529297|-0.5839319229125977|0.1830078661441803|-0.2551200985908508|-0.3699390888214111|XArbitraryZVertical|-0.5941890284000378|-0.201769154942832|0.001420174522991784|0.7786056250600215|-0.3125095069408417|0.9258509278297424|-0.2124572098255157|0|0|0|-1|-1|3
2021-04-22 21:29:13.718 +0100|139502.3443742917|0.061126708984375|1.99786376953125|-2.518951416015625|139502.3343942917|-0.7123455735809788|-1.060508952147533|-1.181205169770558|-0.2974033355712891|-2.672476768493652|-0.1446817666292191|0.455020010471344|0.6564329266548157|-1.399739623069763|XArbitraryZVertical|-0.5967201445455144|-0.226208025195149|0.01410647790088294|0.7697766124506629|-0.3314240574836731|0.9250644445419312|-0.1855099946260452|0|0|0|-1|-1|3
2021-04-22 21:29:13.738 +0100|139502.3643342917|0.3612213134765625|2.634719848632812|-3.303146362304688|139502.3543542917|-0.7213586149398525|-1.11385346226684|-1.191050238886386|-0.3247505128383636|-1.758877873420715|0.9482141137123108|0.4010598957538605|1.217847943305969|-2.605355739593506|XArbitraryZVertical|-0.5999659812250341|-0.2413843905651517|0.02941739451274621|0.7621740363271977|-0.3326549530029297|0.9287588000297546|-0.1635487973690033|0|0|0|-1|-1|3
2021-04-22 21:29:13.757 +0100|139502.3842942917|0.592193603515625|2.815628051757812|-3.834426879882812|139502.3743142917|-0.6633109724301052|-1.083139971307033|-1.212624471343046|1.55449652671814|-0.6542645692825317|1.824298620223999|0.7860172986984253|1.854003667831421|-3.303315162658691|XArbitraryZVertical|-0.5996147333541034|-0.2415219419946909|0.04845358352081171|0.76143397554416|-0.3096990585327148|0.9365392923355103|-0.1642586439847946|0|0|0|-1|-1|3
2021-04-22 21:29:13.778 +0100|139502.4042542917|0.4495849609375|2.227508544921875|-3.667404174804688|139502.3942742917|-0.4638189274087904|-0.8989733654156482|-1.215410656831792|4.100259780883789|0.3884232938289642|2.150126218795776|0.8403618931770325|1.740909099578857|-3.662487030029297|XArbitraryZVertical|-0.5824866993988951|-0.2289628903521668|0.07150872294376134|0.7766414899073604|-0.2723383903503418|0.9375123381614685|-0.2165704816579819|0|0|0|-1|-1|3
2021-04-22 21:29:13.797 +0100|139502.4242142917|0.3661346435546875|1.621368408203125|-2.781875610351562|139502.4142342917|-0.1909324263359437|-0.6250260633560696|-1.169825753215041|5.96940279006958|1.582084774971008|1.911250472068787|0.6430516242980957|1.19256854057312|-3.177479028701782|XArbitraryZVertical|-0.5474261757382394|-0.2050928297041767|0.09335320583762208|0.8059447044138923|-0.2283789813518524|0.9206826090812683|-0.316523015499115|0|0|0|-1|-1|3
2021-04-22 21:29:13.818 +0100|139502.4441742917|0.541473388671875|1.32196044921875|-1.54833984375|139502.4341942917|0.01688673906147783|-0.3958400028246724|-1.075829288887264|6.31367826461792|2.554360389709473|1.273048162460327|0.5487383604049683|0.630865216255188|-2.045231819152832|XArbitraryZVertical|-0.5009003188966024|-0.1730973963080868|0.1078485260048773|0.8411331930845197|-0.1831532120704651|0.8799843788146973|-0.4382723271846771|0|0|0|-1|-1|3
2021-04-22 21:29:13.837 +0100|139502.464134125|0.716705322265625|0.837493896484375|-0.378082275390625|139502.4541542917|0.1219325212495326|-0.2511986842580728|-0.9747393937898097|4.903983592987061|2.785713672637939|0.6152296662330627|0.7714830040931702|0.3040673732757568|-0.6926994919776917|XArbitraryZVertical|-0.4570074474213783|-0.1387865703969303|0.1119654401416997|0.8714048554304884|-0.139540508389473|0.8275555968284607|-0.5437649488449097|0|0|0|-1|-1|3
2021-04-22 21:29:13.857 +0100|139502.484094125|0.314208984375|1.237228393554688|-0.20703125|139502.474114125|0.1582643758770721|-0.1718802133008737|-0.8947219594879677|3.652815341949463|2.069586515426636|-0.085356205701828|0.7703678607940674|0.1350962519645691|0.3481143712997437|XArbitraryZVertical|-0.4235250170988945|-0.1112150642896673|0.108022146709774|0.8925184120639185|-0.1070228219032288|0.780035138130188|-0.6165155172348022|0|0|0|-1|-1|3
2021-04-22 21:29:13.877 +0100|139502.504054125|-0.45343017578125|1.043121337890625|-0.079193115234375|139502.494074125|0.1586666838104027|-0.1399970405670489|-0.8591971789421116|-0.2796569168567657|1.359286546707153|-0.5345079302787781|0.2200625836849213|0.02834206819534302|0.4872488975524902|XArbitraryZVertical|-0.4091399037581863|-0.0963133325024747|0.1009118520493591|0.9017455983791749|-0.09112611413002014|0.7573185563087463|-0.6466565728187561|0|0|0|-1|-1|3
2021-04-22 21:29:13.897 +0100|139502.524014125|-0.914825439453125|1.001968383789062|0.5199432373046875|139502.514034125|0.126694341923179|-0.1386292341434041|-0.8844865622354532|-2.07258939743042|1.24738883972168|-1.154883861541748|-0.458668053150177|0.5110179781913757|0.6071158647537231|XArbitraryZVertical|-0.422121266325479|-0.08949776726073891|0.08665831827778028|0.8979389797006097|-0.08756642788648605|0.7735897302627563|-0.6276075839996338|0|0|0|-1|-1|3
2021-04-22 21:29:13.917 +0100|139502.543974125|-1.19305419921875|0.77386474609375|1.363494873046875|139502.533994125|0.06496224653854173|-0.1594369316972397|-0.9279658380955876|-2.698000192642212|1.587998986244202|-1.886556029319763|-0.9415103197097778|0.2226697206497192|1.32985258102417|XArbitraryZVertical|-0.4435442245296571|-0.08566438799505681|0.06456830560842745|0.8898095609328379|-0.09517218172550201|0.8004021644592285|-0.591860294342041|0|0|0|-1|-1|3
2021-04-22 21:29:13.938 +0100|139502.563934125|-1.378646850585938|0.5504150390625|1.771591186523438|139502.553954125|-0.02646427962097984|-0.2003829067911395|-0.9760689648382039|-2.959927082061768|1.758132338523865|-2.432892560958862|-1.123647570610046|-0.1771623492240906|2.059937238693237|XArbitraryZVertical|-0.4676673531559458|-0.08216586293702798|0.03526774673374483|0.8793704209093097|-0.1115213111042976|0.8283013105392456|-0.5490720272064209|0|0|0|-1|-1|3
2021-04-22 21:29:13.957 +0100|139502.583894125|-1.553268432617188|0.53778076171875|1.59930419921875|139502.573914125|-0.1425676654670643|-0.2651377820838303|-1.030925351992323|-3.830432415008545|1.4901043176651|-2.408128976821899|-1.284432530403137|-0.2953507900238037|2.256760835647583|XArbitraryZVertical|-0.4955624161404642|-0.07991322977793762|0.003566145528351283|0.8648810103317911|-0.1346963793039322|0.8577750325202942|-0.4960635304450989|0|0|0|-1|-1|3
2021-04-22 21:29:13.977 +0100|139502.603854125|-1.619049072265625|0.8552703857421875|1.262435913085938|139502.593874125|-0.2824939370375698|-0.3609414911543009|-1.096395675337794|-4.266057968139648|1.169557929039001|-1.936814665794373|-1.422203898429871|-0.33860182762146|1.96780800819397|XArbitraryZVertical|-0.5291461689863864|-0.07949035756949042|-0.02558660501096679|0.8444117109340974|-0.1613232791423798|0.8895666599273682|-0.4273712337017059|0|0|0|-1|-1|3
2021-04-22 21:29:13.997 +0100|139502.623814125|-1.455520629882812|0.974578857421875|0.9569549560546875|139502.613834125|-0.4210881292679982|-0.4655064018667653|-1.155297981037869|-3.316143751144409|0.894511878490448|-1.181915402412415|-1.432201743125916|0.003954112529754639|1.511881113052368|XArbitraryZVertical|-0.5599822907153688|-0.07792183470957817|-0.04719126896054647|0.8234811660018387|-0.1811868697404861|0.9149152636528015|-0.3606960475444794|0|0|0|-1|-1|3
2021-04-22 21:29:14.018 +0100|139502.643775125|-1.042495727539062|0.901519775390625|0.928619384765625|139502.633795125|-0.5176449406109876|-0.5406387795403461|-1.190731292177682|-1.562185049057007|0.4461323022842407|-0.3934051096439362|-1.162196755409241|0.05623829364776611|1.25276517868042|XArbitraryZVertical|-0.5790319750090056|-0.07540619508088982|-0.05944014531355174|0.8096312999930664|-0.1909379214048386|0.9286404848098755|-0.3180717527866364|0|0|0|-1|-1|3
2021-04-22 21:29:14.037 +0100|139502.663735125|-0.87005615234375|0.4849090576171875|0.7953033447265625|139502.653755125|-0.5388757368515941|-0.5571107145892288|-1.204480448437049|-0.1924124211072922|-0.1335677653551102|0.4392010271549225|-0.7770799994468689|-0.1268750429153442|1.209810137748718|XArbitraryZVertical|-0.5853194665385419|-0.07343518255971147|-0.06075695643746871|0.8051813590484329|-0.1893817335367203|0.9336532354354858|-0.3040167987346649|0|0|0|-1|-1|3
2021-04-22 21:29:14.057 +0100|139502.683695125|-0.85699462890625|0.140045166015625|0.532257080078125|139502.673715125|-0.4984436052337774|-0.5271210321625749|-1.210617321346428|0.2479532510042191|-0.6550212502479553|1.137897729873657|-0.6774266958236694|-0.5349698066711426|1.047186374664307|XArbitraryZVertical|-0.5852343794029204|-0.07211225928711264|-0.05216288658671304|0.8059650544150992|-0.1772949546575546|0.935833752155304|-0.3046010732650757|0|0|0|-1|-1|3
2021-04-22 21:29:14.077 +0100|139502.703655125|-0.9717559814453125|0.0438079833984375|0.3260345458984375|139502.693675125|-0.4265768580648474|-0.4781209286106969|-1.223725495504262|-0.3502597808837891|-1.194929003715515|1.629262685775757|-0.71664959192276|-0.8498576879501343|0.7888188362121582|XArbitraryZVertical|-0.5864416917427216|-0.07131228333760628|-0.03541651958245895|0.8060685027086306|-0.1565046161413193|0.9403730630874634|-0.3020013868808746|0|0|0|-1|-1|3
2021-04-22 21:29:14.097 +0100|139502.723615125|-1.081802368164062|0.3258056640625|0.240753173828125|139502.713635125|-0.348544418808809|-0.431784388672465|-1.252360227756071|-1.106229662895203|-1.469960927963257|1.920011520385742|-0.8812310099601746|-0.831531286239624|0.5560770630836487|XArbitraryZVertical|-0.5938745668318148|-0.07168879592288678|-0.01359052646087219|0.801242247203847|-0.1310223191976547|0.9497262239456177|-0.2843474447727203|0|0|0|-1|-1|3
2021-04-22 21:29:14.117 +0100|139502.743575125|-1.072418212890625|0.6716461181640625|0.1207275390625|139502.733595125|-0.259329166491887|-0.375053155523402|-1.291023167193716|-1.247350931167603|-1.31903600692749|1.943030953407288|-1.00013279914856|-0.5709199905395508|0.4793564677238464|XArbitraryZVertical|-0.605353419998046|-0.07124327277251145|0.009741366419260919|0.792702293283973|-0.1011554747819901|0.9611181020736694|-0.2569432556629181|0|0|0|-1|-1|3
2021-04-22 21:29:14.137 +0100|139502.763535125|-0.8307952880859375|0.7678070068359375|-0.0799407958984375|139502.753555125|-0.150904960203866|-0.2929282846344461|-1.322206056988628|-0.713341236114502|-0.91276615858078|1.746306896209717|-0.9573365449905396|-0.232428252696991|0.3139124512672424|XArbitraryZVertical|-0.614369144078319|-0.06907836288613257|0.03048877511980848|0.7853975184188954|-0.07104522734880447|0.9692602157592773|-0.2355574667453766|0|0|0|-1|-1|3
2021-04-22 21:29:14.157 +0100|139502.783495125|-0.560302734375|0.7235870361328125|-0.3460540771484375|139502.773515125|-0.03125639002454987|-0.1918764167100761|-1.338421798024794|-0.2882080972194672|-0.6587604880332947|1.410449504852295|-0.7137744426727295|-0.2156147956848145|0.09224417805671692|XArbitraryZVertical|-0.6186131867324873|-0.06547064076210196|0.04721790106884604|0.7815380916816749|-0.04391636699438095|0.9731222987174988|-0.2260626405477524|0|0|0|-1|-1|3
2021-04-22 21:29:14.177 +0100|139502.803455125|-0.521331787109375|0.7891693115234375|-0.6663970947265625|139502.793475125|0.07111768683517708|-0.1041783709268189|-1.349529875293699|-0.5316911935806274|-0.5237272381782532|1.004269242286682|-0.495427668094635|-0.244464635848999|-0.2063141316175461|XArbitraryZVertical|-0.6220266195292968|-0.06280922518801139|0.06022829148146403|0.7781455604247443|-0.02282223850488663|0.9756202697753906|-0.2182757705450058|0|0|0|-1|-1|3
2021-04-22 21:29:14.197 +0100|139502.823415125|-0.5404510498046875|0.7351226806640625|-0.590667724609375|139502.813435125|0.1364450547573933|-0.04645017688270969|-1.365942368253436|-0.9865682125091553|-0.04369503259658813|0.5289090871810913|-0.5513609647750854|-0.1819865703582764|-0.4587507843971252|XArbitraryZVertical|-0.628234597594698|-0.06098247234609679|0.06748693089466021|0.7726887911352465|-0.009445696137845516|0.979090690612793|-0.2032048553228378|0|0|0|-1|-1|3
2021-04-22 21:29:14.217 +0100|139502.843375125|0.0910797119140625|1.147491455078125|-0.453399658203125|139502.833395125|0.1689482323366494|-0.01013354308355983|-1.385475874480856|-0.7903698682785034|0.4539702832698822|0.1696748435497284|-0.4180397987365723|-0.1883975267410278|-0.3589740991592407|XArbitraryZVertical|-0.6360316601399071|-0.05776913662739362|0.06814902983585627|0.7664739775882466|-0.001867198734544218|0.982877254486084|-0.1842529028654099|0|0|0|-1|-1|3
2021-04-22 21:29:14.237 +0100|139502.863335125|0.4034576416015625|1.276458740234375|-0.4409027099609375|139502.853355125|0.1594133077145586|-0.008588387175247781|-1.392709145063143|0.04575318470597267|0.5506888628005981|-0.3614895343780518|0.2314556986093521|0.2634050846099854|-0.2577478289604187|XArbitraryZVertical|-0.6391201983477082|-0.05435515146590509|0.06383011135451397|0.7645239154727372|-0.001521399593912065|0.9841843247413635|-0.1771417856216431|0|0|0|-1|-1|3
2021-04-22 21:29:14.257 +0100|139502.883295125|0.2178497314453125|1.32098388671875|-0.999359130859375|139502.873315125|0.1003286361650018|-0.05714968699745671|-1.390403150966071|0.04574554413557053|0.4559696614742279|-0.6365318894386292|0.389947384595871|0.280478835105896|-0.3462648987770081|XArbitraryZVertical|-0.6383727015398148|-0.05401833352076266|0.05676829875425275|0.7657283640849588|-0.01024807617068291|0.9837732315063477|-0.1791246235370636|0|0|0|-1|-1|3
2021-04-22 21:29:14.277 +0100|139502.903256125|-0.0301055908203125|1.436737060546875|-1.167648315429688|139502.893275125|0.02844083849055625|-0.1185058973812214|-1.395918463574365|-0.7403507232666016|0.5881013870239258|-0.575467050075531|0.1591808795928955|0.3663114905357361|-0.9526119232177734|XArbitraryZVertical|-0.6408173146179504|-0.05448826235263607|0.04892860701752171|0.764192621418|-0.02057045884430408|0.9847477674484253|-0.1727683991193771|0|0|0|-1|-1|3
2021-04-22 21:29:14.297 +0100|139502.923216125|0.2451324462890625|1.708480834960938|-0.479095458984375|139502.913236125|-0.04252529846304962|-0.1724918410288517|-1.415166049662928|-1.111336469650269|1.08689272403717|-0.3555429577827454|0.01943228580057621|0.469620943069458|-0.8910431265830994|XArbitraryZVertical|-0.6488282878446887|-0.05167699116305476|0.03988065348645207|0.7581298676137158|-0.02660434879362583|0.9879140257835388|-0.1527026891708374|0|0|0|-1|-1|3
2021-04-22 21:29:14.316 +0100|139502.943176125|0.532684326171875|1.644699096679688|-0.205352783203125|139502.933196125|-0.1326690304012224|-0.2354359234214218|-1.427627245395265|-0.2183010429143906|1.418345808982849|-0.6469051837921143|0.4129821360111237|0.7519612312316895|-0.2136246562004089|XArbitraryZVertical|-0.6546440274289244|-0.04548054575951568|0.0269685331063119|0.7540859402092508|-0.03328290209174156|0.9897688031196594|-0.138745442032814|0|0|0|-1|-1|3
2021-04-22 21:29:14.336 +0100|139502.963136125|0.55645751953125|1.531112670898438|-0.252105712890625|139502.953156125|-0.202388327772187|-0.2747178243571667|-1.413089357451475|1.238531589508057|1.496928691864014|-0.7513738870620728|0.5969105958938599|0.6312914490699768|-0.006670460104942322|XArbitraryZVertical|-0.6503257408295093|-0.03864910739603988|0.01232550153758495|0.7585715957124746|-0.04260504990816116|0.9875900149345398|-0.1511653512716293|0|0|0|-1|-1|3
2021-04-22 21:29:14.356 +0100|139502.983096125|0.2967376708984375|1.145309448242188|-0.48834228515625|139502.973116125|-0.2435356484741753|-0.2886822500683516|-1.381081076576664|1.253164887428284|1.111256003379822|-0.6986126303672791|0.5781764984130859|0.4856547117233276|-0.1468896865844727|XArbitraryZVertical|-0.6391317897734142|-0.03350143226555963|-0.001724200551428719|0.7683653942156419|-0.05368666350841522|0.9820579886436462|-0.1807764172554016|0|0|0|-1|-1|3
2021-04-22 21:29:14.376 +0100|139503.003056125|0.097564697265625|1.223403930664062|-0.420379638671875|139502.993076125|-0.2849650850452216|-0.3086600300349164|-1.368507532577433|-0.2681122720241547|1.019850492477417|-0.4690505266189575|0.2603128552436829|0.1073203086853027|-0.3234586715698242|XArbitraryZVertical|-0.6351673869850457|-0.02921649172828544|-0.01254766281334449|0.7717197981250017|-0.06103362143039703|0.9796093106269836|-0.1914175748825073|0|0|0|-1|-1|3
2021-04-22 21:29:14.396 +0100|139503.023016125|0.27099609375|1.1075439453125|-0.267852783203125|139503.013036125|-0.3442681813243545|-0.3477828352484478|-1.383085801957713|-1.314648270606995|0.8417857885360718|-0.2103494703769684|0.1979067921638489|0.2623628973960876|-0.1927705258131027|XArbitraryZVertical|-0.6416530103953438|-0.02371285099843922|-0.02123855553217985|0.766334207335418|-0.06359950453042984|0.9824340343475342|-0.1754382252693176|0|0|0|-1|-1|3
2021-04-22 21:29:14.417 +0100|139503.042976125|0.3009796142578125|0.948822021484375|-0.2151031494140625|139503.032996125|-0.4303829658024608|-0.4179097746249876|-1.409045556943573|-1.51913595199585|0.6353908181190491|-0.2041645348072052|0.3460308015346527|0.06644392013549805|-0.09052819013595581|XArbitraryZVertical|-0.6527180997413026|-0.019114123001755|-0.02790510663769628|0.756845569822859|-0.06536121666431427|0.9869468212127686|-0.1471874713897705|0|0|0|-1|-1|3
2021-04-22 21:29:14.436 +0100|139503.062936125|0.308624267578125|0.9783172607421875|-0.353240966796875|139503.052956125|-0.526326899473112|-0.5009045510721114|-1.430131558091551|-0.8615285754203796|0.5180631875991821|-0.1401574164628983|0.3836571574211121|-0.02646923065185547|-0.1244267225265503|XArbitraryZVertical|-0.6620213181698181|-0.0154493805420116|-0.03338075463477411|0.7485819642708695|-0.06732779741287231|0.9901230335235596|-0.1229781806468964|0|0|0|-1|-1|3
2021-04-22 21:29:14.456 +0100|139503.082896125|0.149993896484375|0.879913330078125|-0.3965911865234375|139503.072916125|-0.5645084530099409|-0.5308484878732285|-1.435014404522645|0.1539504379034042|0.2982707619667053|-0.1141842156648636|0.3374971747398376|-0.03020906448364258|-0.2476879358291626|XArbitraryZVertical|-0.664424501574196|-0.01310549373526126|-0.03685071056657337|0.7463313591664156|-0.06853111088275909|0.9907957911491394|-0.1167366579174995|0|0|0|-1|-1|3
2021-04-22 21:29:14.477 +0100|139503.102856125|0.0897979736328125|0.788177490234375|-0.2818756103515625|139503.092876125|-0.5462270896928574|-0.5071305906948189|-1.424927648587403|0.7400692701339722|0.2429797500371933|-0.1685893982648849|0.2047329246997833|-0.1383056044578552|-0.2741700410842896|XArbitraryZVertical|-0.660548133106559|-0.01211569628926582|-0.03968582701424993|0.7496362553615067|-0.07059352844953537|0.9893800020217896|-0.127058744430542|0|0|0|-1|-1|3
2021-04-22 21:29:14.496 +0100|139503.122816125|-0.071502685546875|0.70361328125|-0.135528564453125|139503.112836125|-0.5277642919577711|-0.485811100357497|-1.409723736967624|0.6673081517219543|0.1215223670005798|-0.3033313453197479|0.1227203160524368|-0.2334393262863159|-0.109352171421051|XArbitraryZVertical|-0.65492334937466|-0.01282758843705712|-0.04239462301143435|0.7543962777772554|-0.07488462328910828|0.9870558381080627|-0.1418217122554779|0|0|0|-1|-1|3
2021-04-22 21:29:14.516 +0100|139503.142776125|-0.021820068359375|0.7965240478515625|-0.091278076171875|139503.132796125|-0.5272892482904329|-0.4815804170449758|-1.394553844728687|0.7452439665794373|0.2267297953367233|-0.3875766098499298|0.008486293256282806|-0.2417266964912415|0.04075212776660919|XArbitraryZVertical|-0.6496994574673944|-0.01398046157996178|-0.04617326117524287|0.7586588601144368|-0.08121028542518616|0.9845094680786133|-0.1553903222084045|0|0|0|-1|-1|3
2021-04-22 21:29:14.536 +0100|139503.162737125|-0.049224853515625|0.744232177734375|-0.0467681884765625|139503.152756125|-0.5173915227047816|-0.4680090847938169|-1.374818853339015|1.062819838523865|0.1898258924484253|-0.3628643453121185|0.06852450221776962|-0.2389905452728271|0.09074915945529938|XArbitraryZVertical|-0.6425505703708874|-0.01534773791774753|-0.05009534877741687|0.7644499477005324|-0.08784274756908417|0.980857789516449|-0.1737864166498184|0|0|0|-1|-1|3
2021-04-22 21:29:14.556 +0100|139503.182697125|-0.0488739013671875|0.7131500244140625|-0.0550384521484375|139503.172717125|-0.5043581346865386|-0.4514996998234392|-1.353086995152265|0.9101094603538513|0.1330188512802124|-0.3585641384124756|0.05623117834329605|-0.2166594862937927|0.1530454307794571|XArbitraryZVertical|-0.6344637440441427|-0.01675719638276384|-0.05390819436394055|0.7708883997098422|-0.09424144774675369|0.9763947725296021|-0.1943499147891998|0|0|0|-1|-1|3
2021-04-22 21:29:14.576 +0100|139503.202657125|-0.1319732666015625|0.8332977294921875|-0.1132049560546875|139503.192677125|-0.510160846124622|-0.4560609684364151|-1.338065069933578|0.4083975553512573|0.003663638141006231|-0.4209561347961426|0.0315680131316185|-0.2574941515922546|0.1375159025192261|XArbitraryZVertical|-0.6293658325761445|-0.01914183797763434|-0.05713285136531024|0.7747698588290506|-0.1015759706497192|0.9730401039123535|-0.2070644795894623|0|0|0|-1|-1|3
2021-04-22 21:29:14.596 +0100|139503.222617125|-0.13079833984375|0.990325927734375|-0.1558837890625|139503.212637125|-0.532187806647556|-0.4780990018963994|-1.329732485584928|0.1779992282390594|-0.06119130924344063|-0.4149683713912964|-0.03234147280454636|-0.0978238582611084|0.0786518007516861|XArbitraryZVertical|-0.6273160298282042|-0.02216309844168124|-0.06012753960752464|0.7761237767315421|-0.1098405569791794|0.9710845351219177|-0.211966797709465|0|0|0|-1|-1|3
2021-04-22 21:29:14.616 +0100|139503.242577125|-0.1740264892578125|1.025039672851562|-0.0740509033203125|139503.232597125|-0.5556280578542816|-0.5024585860453933|-1.32283495154901|0.1214244812726974|-0.1174934655427933|-0.4200083017349243|-0.01616048067808151|0.03836739063262939|0.06954111158847809|XArbitraryZVertical|-0.6259423763143157|-0.02548150080671073|-0.06278501417451043|0.7769201458348529|-0.1181937828660011|0.9694147706031799|-0.2150936722755432|0|0|0|-1|-1|3
2021-04-22 21:29:14.636 +0100|139503.262537125|-0.14208984375|1.110885620117188|0.01275634765625|139503.252557125|-0.584864617014958|-0.5337235917960331|-1.318198466157922|-0.02609136141836643|-0.1815144270658493|-0.4342858791351318|-0.0412055104970932|0.08309489488601685|0.176984965801239|XArbitraryZVertical|-0.625747036595583|-0.02932425829496098|-0.06519445911664636|0.7767435827561077|-0.1271453350782394|0.9682664275169373|-0.2151614725589752|0|0|0|-1|-1|3
2021-04-22 21:29:14.656 +0100|139503.282497125|-0.1278076171875|1.204010009765625|-0.0633697509765625|139503.272517125|-0.6135109778424778|-0.5655181377600742|-1.314053653434957|0.01205058302730322|-0.2133029848337173|-0.3905331790447235|0.001609072089195251|0.1718160510063171|0.2238740921020508|XArbitraryZVertical|-0.6258426803570269|-0.03350030050971753|-0.06715388599135681|0.7763305591208125|-0.1360701471567154|0.967222273349762|-0.2143973410129547|0|0|0|-1|-1|3
2021-04-22 21:29:14.676 +0100|139503.302457125|-0.162078857421875|1.166412353515625|-0.139892578125|139503.292477125|-0.6364357507159134|-0.5913995037270928|-1.310207847444884|-0.05784641206264496|-0.1703053861856461|-0.3212845921516418|0.005827918648719788|0.2231234312057495|0.126230388879776|XArbitraryZVertical|-0.6258395697562965|-0.03713855771291839|-0.06871136695038099|0.7760313132047494|-0.1436459571123123|0.9662384986877441|-0.2138911187648773|0|0|0|-1|-1|3
2021-04-22 21:29:14.696 +0100|139503.322417125|-0.16607666015625|1.173965454101562|-0.198760986328125|139503.312437125|-0.6676257526834042|-0.6250838281028773|-1.310996033427599|-0.5088527202606201|-0.1971458345651627|-0.2861678600311279|-0.0126577764749527|0.1879931688308716|0.04393225908279419|XArbitraryZVertical|-0.6278714904616924|-0.04025310757651225|-0.07007908391878231|0.7741099222766709|-0.1503219753503799|0.96644127368927|-0.2083141505718231|0|0|0|-1|-1|3
2021-04-22 21:29:14.716 +0100|139503.342377125|-0.1211090087890625|1.233810424804688|-0.2056427001953125|139503.332397125|-0.7143539246135752|-0.6746086810057952|-1.317562904741431|-0.6064500212669373|-0.2446735203266144|-0.2369293123483658|-0.001492410898208618|0.232393205165863|-3.680586814880371e-05|XArbitraryZVertical|-0.6326966659409979|-0.04320737773350056|-0.07108469513324286|0.7699188376399418|-0.1564824432134628|0.9681074023246765|-0.1956561058759689|0|0|0|-1|-1|3
2021-04-22 21:29:14.736 +0100|139503.362337125|-0.0634765625|1.278823852539062|-0.17425537109375|139503.352357125|-0.7434647364715518|-0.706999567128732|-1.321138941946414|0.01625939272344112|-0.1681000292301178|-0.1264717876911163|0.05584193766117096|0.2859164476394653|-0.02071857452392578|XArbitraryZVertical|-0.6356050272841411|-0.04560530957720659|-0.07118801644621632|0.7673713944732238|-0.1604873389005661|0.9689971208572388|-0.1878528147935867|0|0|0|-1|-1|3
2021-04-22 21:29:14.756 +0100|139503.382297125|0.00616455078125|1.216888427734375|-0.158172607421875|139503.372317125|-0.7156449067466552|-0.6821545742509229|-1.308064200017639|1.454198598861694|-0.1133870333433151|-0.150455579161644|0.1153284013271332|0.3491660952568054|0.02346915006637573|XArbitraryZVertical|-0.6300082882795927|-0.04785341205881211|-0.07132950385571413|0.7718237473267036|-0.1637451499700546|0.9656839966773987|-0.2015992105007172|0|0|0|-1|-1|3
2021-04-22 21:29:14.776 +0100|139503.402258125|-0.1079864501953125|0.7199554443359375|-0.0010528564453125|139503.392277125|-0.6395406498866233|-0.6142120654916302|-1.273558547811816|2.379880905151367|-0.4722853302955627|-0.260088324546814|0.1686231344938278|0.1680425405502319|0.07318326830863953|XArbitraryZVertical|-0.6144605096604813|-0.05256474707781588|-0.0702768444278437|0.7840514480820039|-0.1687916219234467|0.956149160861969|-0.2393504530191422|0|0|0|-1|-1|3
2021-04-22 21:29:14.796 +0100|139503.422218125|-0.1939849853515625|0.378265380859375|0.385223388671875|139503.412238125|-0.5802201745881611|-0.571919072132319|-1.23398852967315|1.838986873626709|-0.9201201796531677|-0.4190792441368103|0.02507534623146057|-0.3846404552459717|0.3396237790584564|XArbitraryZVertical|-0.5977075601396751|-0.06166702451982171|-0.0674537341902184|0.7964879687214996|-0.1788693070411682|0.9438143968582153|-0.2778857052326202|0|0|0|-1|-1|3
2021-04-22 21:29:14.816 +0100|139503.442178125|0.197479248046875|0.3475494384765625|1.09747314453125|139503.432198125|-0.5501196238343936|-0.5668886278282735|-1.203626815594721|1.425982594490051|-1.488786816596985|-0.2063164561986923|0.06462937593460083|-0.5491153597831726|0.8643625974655151|XArbitraryZVertical|-0.5857285170789508|-0.07423411699328535|-0.06257603656964549|0.8046711779239705|-0.1927732527256012|0.9333471655845642|-0.3028227984905243|0|0|0|-1|-1|3
2021-04-22 21:29:14.836 +0100|139503.462137625|0.50494384765625|0.2725677490234375|1.219879150390625|139503.452158125|-0.5159239699153784|-0.5745770557864558|-1.176351854117609|1.360277771949768|-2.597831010818481|-0.2137145400047302|0.4973847568035126|-0.5044629573822021|1.535203218460083|XArbitraryZVertical|-0.5746370035886873|-0.09219114129759587|-0.05152697062922222|0.8115652560021986|-0.2088568657636642|0.9232102036476135|-0.3225862085819244|0|0|0|-1|-1|3
2021-04-22 21:29:14.856 +0100|139503.482097625|0.293487548828125|0.3194732666015625|0.625579833984375|139503.472117625|-0.5067767858884484|-0.6343917032499858|-1.164336527150154|-0.1677489131689072|-4.130534648895264|-0.1578860580921173|0.7326157093048096|-0.7588121294975281|1.4210524559021|XArbitraryZVertical|-0.5710354929091455|-0.1212456023171763|-0.03292531185929938|0.8112545889476468|-0.2343251407146454|0.9185262322425842|-0.318435937166214|0|0|0|-1|-1|3
2021-04-22 21:29:14.876 +0100|139503.502057625|0.4777984619140625|0.751556396484375|0.0518035888671875|139503.492077625|-0.5397894097203521|-0.7583474821118479|-1.178718268115614|-1.644471287727356|-5.117794990539551|0.115504190325737|0.5180952548980713|-0.5015703439712524|0.8436411619186401|XArbitraryZVertical|-0.5796998534069318|-0.1588939054662235|-0.00761172772298006|0.7991514215552622|-0.2627856135368347|0.9241170287132263|-0.2774016261100769|0|0|0|-1|-1|3
2021-04-22 21:29:14.896 +0100|139503.522017625|0.598907470703125|1.710891723632812|-1.567153930664062|139503.512037625|-0.5985479268481082|-0.9201386673189124|-1.204740293844917|-1.500771641731262|-5.592361450195312|0.3117900788784027|0.874358057975769|0.06163060665130615|-0.02155101299285889|XArbitraryZVertical|-0.5929829108418341|-0.199921496863955|0.0227169054745314|0.7796709464548028|-0.284804493188858|0.9337462782859802|-0.2168053239583969|0|0|0|-1|-1|3
2021-04-22 21:29:14.916 +0100|139503.541977625|-0.032958984375|2.873870849609375|-3.11627197265625|139503.531997625|-0.6193811925082761|-1.048095941854037|-1.224393311261983|-0.02085526846349239|-4.934420585632324|1.052268266677856|0.7062458992004395|1.004285335540771|-1.859954118728638|XArbitraryZVertical|-0.5986819244455547|-0.2383964903791532|0.0579333756306726|0.7624898691679657|-0.2941824793815613|0.9406000375747681|-0.1694941371679306|0|0|0|-1|-1|3
2021-04-22 21:29:14.936 +0100|139503.561937625|-0.2367095947265625|2.693038940429688|-4.110992431640625|139503.551957625|-0.5187197175931644|-1.035157971650561|-1.243683530237673|1.866861820220947|-3.208078145980835|2.225773334503174|0.2198360860347748|2.000093698501587|-3.224982023239136|XArbitraryZVertical|-0.592439679142552|-0.2588789357024114|0.09743375581539608|0.7566398022025047|-0.2763089537620544|0.946973979473114|-0.1639938503503799|0|0|0|-1|-1|3
2021-04-22 21:29:14.956 +0100|139503.581897625|-0.138885498046875|1.988525390625|-4.349258422851562|139503.571917625|-0.2992620194068839|-0.8692441954803295|-1.257913995843185|2.788512229919434|-1.111116647720337|2.811484336853027|0.009541839361190796|1.582455039024353|-4.092433452606201|XArbitraryZVertical|-0.578402592745124|-0.2571416793129009|0.1356071792426634|0.7621938686885804|-0.2351125329732895|0.9514503479003906|-0.1986571997404099|0|0|0|-1|-1|3
2021-04-22 21:29:14.976 +0100|139503.601857625|-0.1098785400390625|1.522445678710938|-3.640579223632812|139503.591877625|-0.0336972177468268|-0.6188494433642683|-1.251211672967179|3.244262456893921|0.8951599597930908|2.640480756759644|0.04556275904178619|0.8841915130615234|-3.915141820907593|XArbitraryZVertical|-0.5618576910003418|-0.2374065780599704|0.1652841889147792|0.7750066402688296|-0.1822509616613388|0.9493659734725952|-0.2559081017971039|0|0|0|-1|-1|3
2021-04-22 21:29:14.996 +0100|139503.621817625|-0.0738372802734375|0.938446044921875|-2.777084350585938|139503.611837625|0.1849153828739753|-0.3794796138804582|-1.213711473542638|3.451663732528687|2.279193639755249|1.852643489837646|0.05271735787391663|0.5059670209884644|-3.147871017456055|XArbitraryZVertical|-0.5433567296272875|-0.205973021374709|0.1815783722398711|0.7933271437961892|-0.1294843107461929|0.9369197487831116|-0.3246771693229675|0|0|0|-1|-1|3
2021-04-22 21:29:15.016 +0100|139503.641777625|0.1007232666015625|0.11004638671875|-1.582489013671875|139503.631797625|0.2984151958727811|-0.2203349502966826|-1.165607623212205|1.984191179275513|2.923643112182617|0.6956920623779297|0.04257413744926453|-0.1853696703910828|-2.11378002166748|XArbitraryZVertical|-0.5273067544843619|-0.1720940296541455|0.1832003030685682|0.81164584370769|-0.0861532911658287|0.9190280437469482|-0.3846624493598938|0|0|0|-1|-1|3
2021-04-22 21:29:15.036 +0100|139503.661738625|-0.1469268798828125|0.5274200439453125|-0.0498046875|139503.651758625|0.3072111051485137|-0.1529963327918805|-1.155891238373864|-0.8351554274559021|3.06232213973999|-0.6082286238670349|0.08073529601097107|-0.9384542107582092|-0.7252613306045532|XArbitraryZVertical|-0.5284991599791586|-0.1465989179112966|0.1690367121396472|0.818916519778324|-0.06143303215503693|0.9151545763015747|-0.3983947932720184|0|0|0|-1|-1|3
2021-04-22 21:29:15.056 +0100|139503.681698625|-0.5306243896484375|2.30206298828125|1.244735717773438|139503.671718625|0.2559077178285464|-0.1368692891805579|-1.15436372329716|1.395218014717102|3.587164878845215|-1.288159847259521|-0.07691973447799683|-0.1097276210784912|1.02588677406311|XArbitraryZVertical|-0.5326246060144001|-0.1263017804419795|0.1436913167428266|0.824446356892491|-0.05519102513790131|0.914537787437439|-0.4007177650928497|0|0|0|-1|-1|3
2021-04-22 21:29:15.076 +0100|139503.701658625|-1.03778076171875|1.387680053710938|0.163360595703125|139503.691678625|0.1809613275738262|-0.1262061740910856|-1.076828969173438|5.327272891998291|3.903251886367798|-2.929445028305054|-0.4911335110664368|2.056675434112549|1.50691294670105|XArbitraryZVertical|-0.5047695361313216|-0.1001587793808051|0.109623322424716|0.850387395239984|-0.05967849865555763|0.8804587721824646|-0.4703518748283386|0|0|0|-1|-1|3
2021-04-22 21:29:15.095 +0100|139503.721618625|-1.407821655273438|0.936492919921875|0.1476287841796875|139503.711638625|0.07560345910056668|-0.1388982298349033|-0.9591315726647933|5.446919441223145|3.796960592269897|-3.867024898529053|-1.262904167175293|0.5771967768669128|0.5602179765701294|XArbitraryZVertical|-0.457626128930301|-0.07891671820089517|0.06544346547918378|0.8832144635951241|-0.07950349152088165|0.818693220615387|-0.5687009692192078|0|0|0|-1|-1|3
2021-04-22 21:29:15.116 +0100|139503.741578625|-1.806915283203125|0.746856689453125|0.843109130859375|139503.731598625|-0.02184600458269249|-0.1472035479839922|-0.8453279156424246|4.726888656616211|2.967079877853394|-3.828030347824097|-1.277013897895813|-0.04083633422851562|0.9954988956451416|XArbitraryZVertical|-0.4097890042954396|-0.06259188437213659|0.0202271615184541|0.909805533702608|-0.09731514751911163|0.7481887340545654|-0.6563104391098022|0|0|0|-1|-1|3
2021-04-22 21:29:15.135 +0100|139503.761538625|-2.117599487304688|1.0093994140625|0.969573974609375|139503.751558625|-0.1101223815567828|-0.1583912987997864|-0.7591332669683716|2.933810234069824|2.31643009185791|-3.561818838119507|-1.872211456298828|0.127579927444458|1.627073764801025|XArbitraryZVertical|-0.3728408586665977|-0.05304374966494476|-0.02168784821428351|0.9261240293794415|-0.1144224107265472|0.688292920589447|-0.716352105140686|0|0|0|-1|-1|3
2021-04-22 21:29:15.155 +0100|139503.781498625|-1.697921752929688|0.923553466796875|0.8025054931640625|139503.771518625|-0.1894922535203814|-0.1690818134539844|-0.7036588090080184|1.740368723869324|1.908892273902893|-3.151614427566528|-1.885669589042664|0.3414380550384521|1.737096428871155|XArbitraryZVertical|-0.3493438731404528|-0.04642649658657085|-0.05952323308029173|0.9339489554213034|-0.1283081024885178|0.6470117568969727|-0.7516068816184998|0|0|0|-1|-1|3
2021-04-22 21:29:15.175 +0100|139503.801458625|-1.49755859375|0.70684814453125|0.4978179931640625|139503.791478625|-0.2559011150081791|-0.1799488441986073|-0.6635776377066817|1.374505281448364|1.146657347679138|-2.52624773979187|-1.486336588859558|0.2972542643547058|1.482562780380249|XArbitraryZVertical|-0.3326053400579855|-0.04286195479329344|-0.09112545747220659|0.9376741493694218|-0.1409987211227417|0.615939199924469|-0.7750730514526367|0|0|0|-1|-1|3
2021-04-22 21:29:15.195 +0100|139503.821418625|-1.220108032226562|0.4990997314453125|0.4566802978515625|139503.811438625|-0.302775263116099|-0.1924175833703325|-0.6319170673158376|1.011621117591858|0.4996826350688934|-1.719746351242065|-1.280098438262939|0.04276132583618164|1.279539346694946|XArbitraryZVertical|-0.3195230535385351|-0.04361692311027615|-0.113174632734082|0.939784108502515|-0.1543047875165939|0.5906926989555359|-0.792005181312561|0|0|0|-1|-1|3
2021-04-22 21:29:15.215 +0100|139503.841378625|-1.062164306640625|0.4665374755859375|0.3789215087890625|139503.831398625|-0.3281792450919241|-0.2025001931196012|-0.6094595916442875|0.7883750200271606|0.008779996074736118|-0.7388958930969238|-1.011727452278137|-0.07355290651321411|1.245876550674438|XArbitraryZVertical|-0.3102399016388303|-0.04636414822650244|-0.1251107668116527|0.9412485902414371|-0.1649090796709061|0.5724244117736816|-0.8032031655311584|0|0|0|-1|-1|3
2021-04-22 21:29:15.235 +0100|139503.861338625|-0.9400634765625|0.280548095703125|0.3017425537109375|139503.851358625|-0.3308593148424072|-0.2077651685708117|-0.596847990936003|0.3608064651489258|-0.3812647461891174|0.2510211765766144|-0.8480510115623474|-0.1445265412330627|1.16193962097168|XArbitraryZVertical|-0.3047583277142777|-0.0496033699529468|-0.1264772767949503|0.9426905739893378|-0.1706112623214722|0.5620381832122803|-0.8093237280845642|0|0|0|-1|-1|3
2021-04-22 21:29:15.255 +0100|139503.881298625|-0.959869384765625|0.2969818115234375|0.2594146728515625|139503.871318625|-0.3146974381611614|-0.2090481977533476|-0.5976848333646074|-0.1570005565881729|-0.6354111433029175|1.043675422668457|-0.771823525428772|-0.2871099710464478|1.095997929573059|XArbitraryZVertical|-0.3048145096049842|-0.05259482425221561|-0.118599744781014|0.9435338865509367|-0.171551838517189|0.5627301931381226|-0.8086438179016113|0|0|0|-1|-1|3
2021-04-22 21:29:15.275 +0100|139503.901259625|-1.0401611328125|0.289642333984375|0.1886444091796875|139503.891278625|-0.2846920711072374|-0.2060735421034751|-0.6096240010801892|-0.4583821892738342|-0.7528305649757385|1.584605574607849|-0.802227795124054|-0.2812529802322388|1.047634482383728|XArbitraryZVertical|-0.3094217621065063|-0.05477089310959569|-0.1040526847479418|0.9436268247851514|-0.167758896946907|0.5725592374801636|-0.8025166392326355|0|0|0|-1|-1|3
2021-04-22 21:29:15.295 +0100|139503.921219625|-1.057098388671875|0.2633209228515625|0.091949462890625|139503.911239625|-0.2454777224831|-0.1988603700448877|-0.627868391827449|-0.7415487170219421|-0.8059502243995667|1.901162505149841|-0.9023658633232117|-0.2917507886886597|0.9617291688919067|XArbitraryZVertical|-0.3165253641787167|-0.0560843163824182|-0.08544893121311017|0.9430614100657524|-0.1598754227161407|0.5874210000038147|-0.7933324575424194|0|0|0|-1|-1|3
2021-04-22 21:29:15.315 +0100|139503.941179625|-0.9882659912109375|0.249114990234375|0.029022216796875|139503.931199625|-0.2020322369899984|-0.1911443468290115|-0.6547332433242331|-1.320291757583618|-1.056111335754395|2.002314329147339|-0.8950046300888062|-0.3640891313552856|0.8640918731689453|XArbitraryZVertical|-0.3275636435340343|-0.05761962896386387|-0.06452492789444282|0.9408606354899599|-0.1506961286067963|0.6089476943016052|-0.7787640690803528|0|0|0|-1|-1|3
2021-04-22 21:29:15.335 +0100|139503.961139625|-0.8727874755859375|0.318511962890625|-0.0961761474609375|139503.951159625|-0.1618675485334273|-0.190858026002783|-0.6973370634968282|-2.259958267211914|-1.455196738243103|1.884175062179565|-0.8086703419685364|-0.374050498008728|0.7539335489273071|XArbitraryZVertical|-0.3462187789059579|-0.06176279068472374|-0.04318815700978117|0.9351218954202571|-0.1454165726900101|0.6421786546707153|-0.7526358366012573|0|0|0|-1|-1|3
2021-04-22 21:29:15.355 +0100|139503.981099625|-0.8623046875|0.4845428466796875|-0.2235107421875|139503.971119625|-0.1286014660992149|-0.2010431042801783|-0.7566538535974442|-2.922831535339355|-1.701891541481018|1.67851710319519|-0.7202301621437073|-0.3481125235557556|0.6050402522087097|XArbitraryZVertical|-0.3727343856123582|-0.06944875384492354|-0.02242088247323628|0.9250640895008201|-0.1452031582593918|0.6864922046661377|-0.7124918699264526|0|0|0|-1|-1|3
2021-04-22 21:29:15.375 +0100|139504.001059625|-0.691802978515625|0.773284912109375|-0.27099609375|139503.991079625|-0.1042582786591483|-0.2176224357411289|-0.8200298416417747|-2.871360540390015|-1.651379466056824|1.301194190979004|-0.6949775815010071|-0.1652780771255493|0.4402947425842285|XArbitraryZVertical|-0.4009166829163857|-0.07881266161598952|-0.004273837844681864|0.9127081564058541|-0.147292822599411|0.7311661839485168|-0.6661087274551392|0|0|0|-1|-1|3
2021-04-22 21:29:15.395 +0100|139504.021019625|-0.554901123046875|0.8633270263671875|-0.4803466796875|139504.011039625|-0.0929692644871066|-0.2428814457396079|-0.8767756881568822|-2.514489889144897|-1.767115116119385|0.7347880005836487|-0.4911421835422516|0.05471491813659668|0.3042249083518982|XArbitraryZVertical|-0.425995806745378|-0.08998894734020144|0.009603137599126248|0.9001874402020195|-0.1538320481777191|0.7686805129051208|-0.6208591461181641|0|0|0|-1|-1|3
2021-04-22 21:29:15.415 +0100|139504.040979625|-0.741363525390625|0.9103546142578125|-0.7432708740234375|139504.030999625|-0.09638404722462812|-0.2823131758822585|-0.9305181909994359|-2.667764186859131|-1.871816277503967|0.3985359668731689|-0.3918460607528687|0.03544282913208008|0.06318032741546631|XArbitraryZVertical|-0.4497332895335636|-0.1041896675146709|0.02042252272452559|0.8868300527127703|-0.1664276868104935|0.8019296526908875|-0.5737689733505249|0|0|0|-1|-1|3
2021-04-22 21:29:15.435 +0100|139504.060939625|-0.7455902099609375|1.054550170898438|-0.9556427001953125|139504.050959625|-0.1205736725745069|-0.3381482174353883|-0.9877225042861474|-3.155647277832031|-1.673080682754517|0.02180353179574013|-0.6256197094917297|0.1150097250938416|-0.315669059753418|XArbitraryZVertical|-0.475347962699086|-0.1197406716017683|0.02732532427306472|0.8711831461157941|-0.1826540380716324|0.8347741961479187|-0.5194129943847656|0|0|0|-1|-1|3
2021-04-22 21:29:15.455 +0100|139504.080899625|-0.37774658203125|1.226531982421875|-0.7162322998046875|139504.070919625|-0.1686815010040459|-0.4082831989817281|-1.045239797016303|-3.012004137039185|-1.218462705612183|-0.2746231555938721|-0.4463945031166077|0.2250588536262512|-0.4939636588096619|XArbitraryZVertical|-0.5018479989464818|-0.1338653181773314|0.02935155265070685|0.8540300644804066|-0.1991899758577347|0.865044891834259|-0.4604573249816895|0|0|0|-1|-1|3
2021-04-22 21:29:15.475 +0100|139504.100859625|-0.1648406982421875|1.508544921875|-0.4597320556640625|139504.090879625|-0.2345095152297902|-0.4836158835895741|-1.09245628416763|-2.597269773483276|-0.5430153012275696|-0.5919266939163208|-0.08767762780189514|0.3913845419883728|-0.1919681429862976|XArbitraryZVertical|-0.5248287808641806|-0.1442071949176024|0.02648147743999684|0.8384854518922503|-0.2140347808599472|0.8877602219581604|-0.407518059015274|0|0|0|-1|-1|3
2021-04-22 21:29:15.495 +0100|139504.120820625|-0.3416290283203125|1.688552856445312|-1.04315185546875|139504.110839625|-0.3205685791484025|-0.5662473892269286|-1.125578370723832|-2.183438301086426|-0.03415053337812424|-1.032156467437744|0.04609595239162445|0.6756390929222107|-0.1776679456233978|XArbitraryZVertical|-0.5434472764548477|-0.1514793815076692|0.01752935712223719|0.8254767201631855|-0.2310328483581543|0.9025168418884277|-0.3634380996227264|0|0|0|-1|-1|3
