loggingTime(txt)|accelerometerTimestamp_sinceReboot(s)|accelerometerAccelerationX(G)|accelerometerAccelerationY(G)|accelerometerAccelerationZ(G)|motionTimestamp_sinceReboot(s)|motionYaw(rad)|motionRoll(rad)|motionPitch(rad)|motionRotationRateX(rad/s)|motionRotationRateY(rad/s)|motionRotationRateZ(rad/s)|motionUserAccelerationX(G)|motionUserAccelerationY(G)|motionUserAccelerationZ(G)|motionAttitudeReferenceFrame(txt)|motionQuaternionX(R)|motionQuaternionY(R)|motionQuaternionZ(R)|motionQuaternionW(R)|motionGravityX(G)|motionGravityY(G)|motionGravityZ(G)|motionMagneticFieldX(µT)|motionMagneticFieldY(µT)|motionMagneticFieldZ(µT)|motionHeading(°)|motionMagneticFieldCalibrationAccuracy(Z)|label
2021-04-09 10:01:17.132 +0100|28700.70037725|0.0147705078125|0.22174072265625|-0.961395263671875|28700.68041625|1.057424211923479|0.0009551973507913881|-0.2659916547698098|0.01165610924363136|0.03399919345974922|-0.005333842243999243|-0.008138455450534821|-0.002840191125869751|-0.002971827983856201|XArbitraryZVertical|0.1147367640804046|0.06647962149809032|-0.4999124459660273|-0.8558642863536856|0.0009216051548719406|0.2628661692142487|-0.9648318886756897|0|0|0|-1|-1|3
2021-04-09 10:01:17.134 +0100|28700.72033825|0.0088348388671875|0.2788238525390625|-0.96307373046875|28700.70037725|1.057640297857642|0.001387796768766848|-0.265702786402201|-0.03085937537252903|0.005797062534838915|0.008391823619604111|0.01919978857040405|-0.03555098176002502|-0.003277897834777832|XArbitraryZVertical|0.1147141339506203|0.06623467571275987|-0.49998984204337|-0.8558410391270206|0.001339095993898809|0.2625874578952789|-0.9649072885513306|0|0|0|-1|-1|3
2021-04-09 10:01:17.135 +0100|28700.74029825|0.0059661865234375|0.2971038818359375|-0.9713134765625|28700.72033825|1.057807538539827|0.001642602047064686|-0.2656217681414552|0.006964102387428284|0.003414173144847155|0.00465079303830862|0.003405191004276276|0.0089913010597229|0.0001762509346008301|XArbitraryZVertical|0.1147376353958629|0.0661149601919236|-0.5000495056800516|-0.8558123681621793|0.001584994373843074|0.262509286403656|-0.964928150177002|0|0|0|-1|-1|3
2021-04-09 10:01:17.136 +0100|28700.76025925|-0.00634765625|0.2639617919921875|-0.9690704345703125|28700.74029825|1.058015912001804|0.001733297472585907|-0.2643712099294908|0.08126761764287949|-0.004789375700056553|0.01424323208630085|0.01039718091487885|0.01375353336334229|-0.007430970668792725|XArbitraryZVertical|0.1142183886441244|0.06577525577567901|-0.5001756295221302|-0.8558342409792508|0.001673076651059091|0.2613023817539215|-0.9652555584907532|0|0|0|-1|-1|3
2021-04-09 10:01:17.151 +0100|28700.78022025|0.0048370361328125|0.2455291748046875|-0.9582672119140625|28700.76025925|1.058309617214125|0.001935557807642334|-0.262343901783248|0.09596328437328339|0.02196628600358963|0.02109705470502377|-0.009559199213981628|0.03545579314231873|-0.001273095607757568|XArbitraryZVertical|0.1133919441396367|0.06519811029436615|-0.5003577822022007|-0.8558818025328887|0.001869331113994122|0.2593449652194977|-0.9657829403877258|0|0|0|-1|-1|3
2021-04-09 10:01:17.172 +0100|28700.80018125|0.011871337890625|0.2364654541015625|-0.9620208740234375|28700.78022025|1.058812870315279|0.002564237344178415|-0.2610351629124487|0.05254743248224258|0.02263399213552475|0.02422866597771645|-0.001744389533996582|-0.007576286792755127|0.002237975597381592|XArbitraryZVertical|0.1129729717181594|0.06462989842744281|-0.5005812988603512|-0.8558496120705269|0.00247736694291234|0.258080780506134|-0.966120183467865|0|0|0|-1|-1|3
2021-04-09 10:01:17.191 +0100|28700.82014225|0.01324462890625|0.2476959228515625|-0.9638671875|28700.80018125|1.059216444463706|0.003132022381646191|-0.2600580187894636|0.03274334967136383|0.006534598302096128|0.009993715211749077|0.007075175642967224|-0.01740482449531555|0.009324073791503906|XArbitraryZVertical|0.1126840695380005|0.06416493924803708|-0.5007546284906288|-0.8558212371826108|0.003026703372597694|0.2571366131305695|-0.9663703441619873|0|0|0|-1|-1|3
2021-04-09 10:01:17.211 +0100|28700.84010225|-0.0010528564453125|0.27093505859375|-0.9700775146484375|28700.82014225|1.059243769258328|0.003336869925722165|-0.2599884755715414|0.01113427896052599|0.0004311124794185162|-0.01222033239901066|0.01214143633842468|-0.0117071270942688|0.007525503635406494|XArbitraryZVertical|0.1127047245491529|0.06406137656867014|-0.500757072298288|-0.855824992247482|0.003224721644073725|0.2570694088935852|-0.9663875699043274|0|0|0|-1|-1|3
2021-04-09 10:01:17.231 +0100|28700.86006325|-0.00750732421875|0.2735137939453125|-0.961700439453125|28700.84010225|1.058953072033863|0.003201241744159419|-0.2606784672517706|-0.004429200664162636|0.004169018939137459|-0.009900186210870743|0.00343824177980423|-0.001524865627288818|-0.007620513439178467|XArbitraryZVertical|0.1129752882400738|0.06427588409406834|-0.5006172403969861|-0.8558549758936895|0.003093083621934056|0.2577361464500427|-0.9662103652954102|0|0|0|-1|-1|3
2021-04-09 10:01:17.251 +0100|28700.88002475|-0.003692626953125|0.2545166015625|-0.9498138427734375|28700.86006325|1.058788600254286|0.00327428234010587|-0.2608094167295529|-0.00483087170869112|0.01496664620935917|-0.00023619644343853|-0.01054824143648148|0.02296105027198792|0.0007988810539245605|XArbitraryZVertical|0.1130548754927015|0.06426812217177978|-0.5005383245159097|-0.8558912766113367|0.003163545625284314|0.2578626871109009|-0.9661763906478882|0|0|0|-1|-1|3
2021-04-09 10:01:17.271 +0100|28700.89998575|0.0065460205078125|0.2432403564453125|-0.95062255859375|28700.88002475|1.058983339941517|0.003632482354138351|-0.260602819141426|-0.001160886255092919|0.01010691002011299|0.01371787860989571|-0.006866201758384705|0.005826652050018311|0.01096749305725098|XArbitraryZVertical|0.1130498948039505|0.06407410145174156|-0.5006083593891028|-0.8558654665040433|0.003509823232889175|0.2576630711555481|-0.9662284851074219|0|0|0|-1|-1|3
2021-04-09 10:01:17.291 +0100|28700.91994575|-0.000396728515625|0.263214111328125|-0.95538330078125|28700.89998575|1.05916271523537|0.00396546392257877|-0.2602648064141674|0.011146180331707|-0.001889779232442379|0.002106231171637774|-0.001847699284553528|-0.005962193012237549|0.02060532569885254|XArbitraryZVertical|0.1129829108276006|0.0638570721443151|-0.5006776792106276|-0.85584990844632|0.003831904381513596|0.257336437702179|-0.9663142561912537|0|0|0|-1|-1|3
2021-04-09 10:01:17.311 +0100|28700.93990675|0.00054931640625|0.269134521484375|-0.959259033203125|28700.91994575|1.059227208573811|0.003909437917284909|-0.2596882451321047|0.05066175013780594|-0.01385205984115601|0.0004182308912277222|-0.0001767128705978394|-0.004931986331939697|0.01393306255340576|XArbitraryZVertical|0.1127201758095647|0.06374021959208448|-0.5007278070083021|-0.8558639147304276|0.003778345184400678|0.2567792534828186|-0.9664626717567444|0|0|0|-1|-1|3
2021-04-09 10:01:17.331 +0100|28700.95986775|-0.0016326904296875|0.2512969970703125|-0.966888427734375|28700.93990675|1.059066919151897|0.003335169499852777|-0.2587926151704285|0.05737790837883949|-0.0215289406478405|-0.01166453026235104|-0.001575589412823319|0.02172103524208069|0.00955653190612793|XArbitraryZVertical|0.1121983294512973|0.06375254771080122|-0.5007214308404492|-0.8559353214694509|0.003224101383239031|0.2559135556221008|-0.9666942954063416|0|0|0|-1|-1|3
2021-04-09 10:01:17.351 +0100|28700.97982875|-0.0055389404296875|0.2536468505859375|-0.9637298583984375|28700.95986775|1.058696760094304|0.002732709149398402|-0.2585436382813242|-0.01043283101171255|-0.0151124270632863|-0.01815634034574032|-0.001954674953594804|-0.003291547298431396|0.005395293235778809|XArbitraryZVertical|0.1119527921888013|0.06392727408309921|-0.5006050247967286|-0.8560225849898128|0.00264187972061336|0.2556728720664978|-0.9667597413063049|0|0|0|-1|-1|3
2021-04-09 10:01:17.371 +0100|28700.99978975|-0.0069732666015625|0.2736663818359375|-0.9572906494140625|28700.97982875|1.058331413420276|0.002278234838287657|-0.2594568449966037|-0.06196419894695282|-0.01144232414662838|-0.01728761754930019|-0.006870612502098083|-0.004509985446929932|0.001942873001098633|XArbitraryZVertical|0.1122415614617357|0.06432998364819907|-0.5004438544448294|-0.8560488734979589|0.002201979281380773|0.2565556168556213|-0.966526985168457|0|0|0|-1|-1|3
2021-04-09 10:01:17.391 +0100|28701.01974975|-0.01513671875|0.2789154052734375|-0.94964599609375|28700.99978975|1.057905272087522|0.001873724808124707|-0.2603172958151516|-0.0208307784050703|-0.02401521429419518|-0.0224105641245842|-0.005060158669948578|0.004103660583496094|0.004789590835571289|XArbitraryZVertical|0.1125223593501084|0.06469456100363402|-0.500255683542286|-0.8560944148430998|0.00181059492751956|0.2573871612548828|-0.9663066864013672|0|0|0|-1|-1|3
2021-04-09 10:01:17.411 +0100|28701.03971075|-0.0097503662109375|0.2663116455078125|-0.9449310302734375|28701.01974975|1.057403305438696|0.001415489261391514|-0.2605502225471872|0.03142894804477692|-0.001557363662868738|-0.02234859950840473|-0.01519161462783813|0.02900981903076172|0.01560986042022705|XArbitraryZVertical|0.1125237258854557|0.06492074589354896|-0.5000588709837298|-0.8561921105954551|0.001367713790386915|0.2576122283935547|-0.9662474393844604|0|0|0|-1|-1|3
2021-04-09 10:01:17.431 +0100|28701.05967175|-0.002716064453125|0.26300048828125|-0.96240234375|28701.03971075|1.056972900907061|0.001561545261226497|-0.2595152271815687|0.07649044692516327|0.0269440021365881|-0.01744385622441769|-0.01672171056270599|0.01356104016304016|0.01660817861557007|XArbitraryZVertical|0.1121311018636271|0.06457521774322728|-0.4999005642608765|-0.8563621659978259|0.001509255496785045|0.2566120326519012|-0.9665133357048035|0|0|0|-1|-1|3
2021-04-09 10:01:17.451 +0100|28701.07963275|0.0022125244140625|0.2508087158203125|-0.952545166015625|28701.05967175|1.056441310706664|0.002051819912569574|-0.2576228705890554|0.07860562950372696|0.0243877898901701|-0.03405115008354187|-0.01153554767370224|0.0007115006446838379|0.02534621953964233|XArbitraryZVertical|0.1114604143672205|0.06386246002611339|-0.4997077479568551|-0.8566156092059729|0.00198410521261394|0.2547825872898102|-0.9669963121414185|0|0|0|-1|-1|3
2021-04-09 10:01:17.471 +0100|28701.09959275|-0.0075836181640625|0.26239013671875|-0.965606689453125|28701.07963275|1.055452222579067|0.001710783119876982|-0.2563563562840632|0.06062591820955276|-0.009431690908968449|-0.062975212931633|0.00612766295671463|-0.001725643873214722|0.006900429725646973|XArbitraryZVertical|0.1108642828617265|0.06363711341052891|-0.4993443741763686|-0.8569216268324363|0.001654874416999519|0.2535576820373535|-0.9673188328742981|0|0|0|-1|-1|3
2021-04-09 10:01:17.491 +0100|28701.11955375|0.001983642578125|0.2707061767578125|-0.96343994140625|28701.09959275|1.053790676027619|0.0009105224458867234|-0.2553613778971718|0.1005414053797722|-0.004061959683895111|-0.09432905167341232|-0.006541453301906586|-0.0006562471389770508|0.0121733546257019|XArbitraryZVertical|0.1102910947355387|0.06363987439841672|-0.498708729121522|-0.8573655151894695|0.0008809959981590509|0.2525950968265533|-0.9675716757774353|0|0|0|-1|-1|3
2021-04-09 10:01:17.511 +0100|28701.13951475|-0.002166748046875|0.2758026123046875|-0.9709930419921875|28701.11955375|1.051454894881024|-0.0003199474731225029|-0.2538115284296105|0.1046557724475861|-0.03691007941961288|-0.1357696950435638|-0.004648856818675995|0.01701796054840088|-0.0008331537246704102|XArbitraryZVertical|0.1093942531811757|0.06365311973183632|-0.4978241488929398|-0.8579932888429366|-0.0003096971195191145|0.251095175743103|-0.967962384223938|0|0|0|-1|-1|3
2021-04-09 10:01:17.531 +0100|28701.15947575|-0.0018157958984375|0.3066558837890625|-0.9814300537109375|28701.13951475|1.048123060342846|-0.00210377444590313|-0.2518801803359454|0.1107990369200706|-0.03771195933222771|-0.1829748451709747|0.001656472682952881|0.01369990408420563|0.008101224899291992|XArbitraryZVertical|0.1082278925576706|0.06375750308070098|-0.4965516367350751|-0.8588703963302715|-0.002037389436736703|0.2492252439260483|-0.9684433937072754|0|0|0|-1|-1|3
2021-04-09 10:01:17.551 +0100|28701.17943675|-0.0001220703125|0.291900634765625|-0.964141845703125|28701.15947575|1.043810158322917|-0.003645327159052023|-0.2493183031213264|0.1879466325044632|-0.01923856884241104|-0.2361024171113968|-0.002143114805221558|0.04651623964309692|-0.007915079593658447|XArbitraryZVertical|0.1068819490944901|0.06355343663723888|-0.4948595430008665|-0.8600299189111112|-0.003532608970999718|0.2467433959245682|-0.9690744280815125|0|0|0|-1|-1|3
2021-04-09 10:01:17.571 +0100|28701.19939675|-0.03375244140625|0.249542236328125|-0.95697021484375|28701.17943675|1.038173520868505|-0.005634062678930323|-0.2448160759078146|0.2556016445159912|-0.0317111648619175|-0.3217443823814392|0.008915066719055176|0.07111488282680511|-0.01555097103118896|XArbitraryZVertical|0.1046308636615862|0.06300094901110576|-0.4926721128710029|-0.861601736935753|-0.005466036964207888|0.2423778921365738|-0.9701665043830872|0|0|0|-1|-1|3
2021-04-09 10:01:17.591 +0100|28701.21935775|-0.02716064453125|0.25433349609375|-0.9637603759765625|28701.19939675|1.031562944064983|-0.007961084661579534|-0.2407581274929174|0.1571866124868393|-0.03273861110210419|-0.3271169364452362|-0.01051758974790573|0.01093640923500061|0.006817281246185303|XArbitraryZVertical|0.1025160451236947|0.06266660238750515|-0.4900574404661848|-0.8633696623710593|-0.00773138552904129|0.2384389489889145|-0.9711267352104187|0|0|0|-1|-1|3
2021-04-09 10:01:17.611 +0100|28701.23931875|-0.024261474609375|0.2848052978515625|-0.9461822509765625|28701.21935775|1.024718474445073|-0.01023906204326658|-0.2390492467014103|0.06995785236358643|-0.06546321511268616|-0.3331178426742554|-0.0233159065246582|0.01662467420101166|0.004303991794586182|XArbitraryZVertical|0.1014354160973474|0.06288522065727155|-0.4872629393420601|-0.8650614754882869|-0.00994772557169199|0.2367790192365646|-0.9715126156806946|0|0|0|-1|-1|3
2021-04-09 10:01:17.631 +0100|28701.25927975|-0.0090484619140625|0.244110107421875|-0.9406890869140625|28701.23931875|1.017981792368814|-0.01333940388094658|-0.2392025452365133|0.008790547959506512|-0.09611673653125763|-0.3332840204238892|-0.01598618924617767|0.03811269998550415|0.01018309593200684|XArbitraryZVertical|0.1009622021652801|0.06392368272941353|-0.4844993403314862|-0.8665915800759401|-0.01295921020209789|0.2369279563426971|-0.9714407920837402|0|0|0|-1|-1|3
2021-04-09 10:01:17.651 +0100|28701.27924075|-0.0292816162109375|0.2381744384765625|-0.9390411376953125|28701.25927975|1.011053801034079|-0.01717875399232325|-0.2410165744878495|-0.05616801232099533|-0.157892644405365|-0.3558948636054993|0.003010036423802376|0.02879761159420013|0.03035527467727661|XArbitraryZVertical|0.1010468068678209|0.06567548912320909|-0.4816421010688266|-0.8680421734011179|-0.01668139547109604|0.2386899441480637|-0.970952570438385|0|0|0|-1|-1|3
2021-04-09 10:01:17.676 +0100|28701.29920075|-0.03887939453125|0.240264892578125|-0.9369659423828125|28701.27924075|1.003215805988204|-0.02255185176168386|-0.2437231737848552|-0.1822374016046524|-0.1970182061195374|-0.4008148610591888|0.002429060637950897|-0.004210114479064941|0.03219616413116455|XArbitraryZVertical|0.1011969382192556|0.06826011548181014|-0.4784416009630951|-0.8695938625680104|-0.02188350446522236|0.2413174360990524|-0.9701994657516479|0|0|0|-1|-1|3
2021-04-09 10:01:17.691 +0100|28701.31916175|-0.0452423095703125|0.200103759765625|-0.93408203125|28701.29920075|0.9942941928129254|-0.02900272743592287|-0.2491906234829288|-0.3700574040412903|-0.2065999954938889|-0.4649938642978668|-0.003985775634646416|-0.01177065074443817|0.02333152294158936|XArbitraryZVertical|0.1023558948640745|0.07190880138606917|-0.4747570226322049|-0.8711820979415771|-0.02810296043753624|0.2466196566820145|-0.9687048196792603|0|0|0|-1|-1|3
2021-04-09 10:01:17.711 +0100|28701.33912275|-0.0674896240234375|0.16552734375|-0.923797607421875|28701.31916175|0.9835603555268396|-0.03601114325507514|-0.2585341860333288|-0.5849094986915588|-0.2225078493356705|-0.5503768920898438|-0.001996889710426331|-0.03772145509719849|0.03761142492294312|XArbitraryZVertical|0.1051818540835527|0.07659816490788061|-0.4702260906508912|-0.872901597988937|-0.03480681777000427|0.2556637227535248|-0.966139018535614|0|0|0|-1|-1|3
2021-04-09 10:01:17.731 +0100|28701.35908375|-0.0794677734375|-0.0062713623046875|-0.942352294921875|28701.33912275|0.9707151738304463|-0.04375821108686449|-0.2734486697887233|-0.9496129751205444|-0.2563053369522095|-0.6514793634414673|-0.01713044941425323|-0.08195745944976807|0.03272467851638794|XArbitraryZVertical|0.1104174295854704|0.08274163081222589|-0.464697824515262|-0.8746529445964886|-0.04211894422769547|0.2700535655021667|-0.9619235992431641|0|0|0|-1|-1|3
2021-04-09 10:01:17.751 +0100|28701.37904375|-0.0836181640625|-0.0842132568359375|-0.9459686279296875|28701.35908375|0.9548999910988119|-0.05224745186877801|-0.2988784788821948|-1.772884130477905|-0.2115765362977982|-0.7489599585533142|-0.02896374464035034|-0.2034288942813873|0.02528637647628784|XArbitraryZVertical|0.1203196810077012|0.0913321444918266|-0.4576934150581274|-0.8761839583714354|-0.04990846663713455|0.294448584318161|-0.954363226890564|0|0|0|-1|-1|3
2021-04-09 10:01:17.770 +0100|28701.39900475|-0.05572509765625|-0.1174163818359375|-1.006515502929688|28701.37904375|0.9356250008911369|-0.06133283148971082|-0.3453292882081719|-3.037009954452515|-0.09430678933858871|-0.8201680183410645|-0.02771192416548729|-0.4079788327217102|0.002397060394287109|XArbitraryZVertical|0.1396554876655988|0.1043980770086285|-0.4487227434249598|-0.8764960296271279|-0.0576758123934269|0.3385065495967865|-0.9391947984695435|0|0|0|-1|-1|3
2021-04-09 10:01:17.790 +0100|28701.41896575|-0.088531494140625|0.042877197265625|-0.92340087890625|28701.39900475|0.9100605979562668|-0.07136593811813115|-0.4175248746183496|-4.276371002197266|0.003101889975368977|-1.097357034683228|0.002497240900993347|-0.5064656138420105|-0.05162513256072998|XArbitraryZVertical|0.1707042116084583|0.122375495763096|-0.4363150518789284|-0.8749363954051842|-0.06517991423606873|0.4054991900920868|-0.9117686152458191|0|0|0|-1|-1|3
2021-04-09 10:01:17.810 +0100|28701.43892675|-0.1295623779296875|0.236236572265625|-0.645355224609375|28701.41896575|0.8727892603598142|-0.08773706784912126|-0.5116738939508071|-5.310498237609863|0.03654538840055466|-1.432652831077576|0.02156247198581696|-0.5380373001098633|-0.1087678670883179|XArbitraryZVertical|0.2111857350994595|0.1453080031078096|-0.4185815840315791|-0.8712495084855051|-0.07640213519334793|0.4896374344825745|-0.8685723543167114|0|0|0|-1|-1|3
2021-04-09 10:01:17.830 +0100|28701.45888775|-0.2047882080078125|0.4754638671875|-0.4765472412109375|28701.43892675|0.8252573274078731|-0.1119331104546548|-0.6189536489003399|-5.691325664520264|0.09021948277950287|-1.572870016098022|-0.03257232904434204|-0.4564640522003174|0.006929874420166016|XArbitraryZVertical|0.2571954642255773|0.1707512925267549|-0.3969759272897758|-0.8643522077003443|-0.09097769856452942|0.5801832675933838|-0.8093889951705933|0|0|0|-1|-1|3
2021-04-09 10:01:17.850 +0100|28701.47884775|-0.2648162841796875|0.5951995849609375|-0.3258209228515625|28701.45888775|0.7676156729221003|-0.1461193279843651|-0.7245011483109602|-5.260693550109863|0.007620635442435741|-1.677425622940063|-0.01738910377025604|-0.3714708089828491|0.2254244089126587|XArbitraryZVertical|0.3021610481314831|0.1956362305240076|-0.3732042214151804|-0.8550695713016584|-0.109029620885849|0.6627619862556458|-0.7408503293991089|0|0|0|-1|-1|3
2021-04-09 10:01:17.870 +0100|28701.49880875|-0.1382293701171875|0.8497467041015625|-0.352203369140625|28701.47884775|0.6998577338981709|-0.1902002047529306|-0.8143172727308171|-4.377226829528809|0.2496387958526611|-1.57654869556427|-0.1282799392938614|-0.1288065910339355|0.3427810668945312|XArbitraryZVertical|0.3404291924605869|0.2170580393725205|-0.3487061441874522|-0.8458120466503474|-0.1297610998153687|0.7272571921348572|-0.6739875674247742|0|0|0|-1|-1|3
2021-04-09 10:01:17.890 +0100|28701.51876975|-0.21051025390625|0.7915191650390625|-0.340179443359375|28701.49880875|0.633010576195992|-0.236772213429099|-0.8819807823561592|-3.181488275527954|0.09481194615364075|-1.387450337409973|-0.04429391026496887|-0.1015732288360596|0.2509165406227112|XArbitraryZVertical|0.3695503274712019|0.2334261499956492|-0.3274092463618123|-0.8377041205140408|-0.1490957140922546|0.7719994187355042|-0.6178895831108093|0|0|0|-1|-1|3
2021-04-09 10:01:17.910 +0100|28701.53873075|-0.2245330810546875|0.601043701171875|-0.4145355224609375|28701.51876975|0.5671028657986396|-0.2873036580522264|-0.9254894156928867|-2.28294038772583|0.05550799891352654|-1.448837995529175|-0.01674972474575043|0.08238738775253296|0.2256723046302795|XArbitraryZVertical|0.3883266329811206|0.2465902509079817|-0.3091202626209832|-0.8323703213857548|-0.1704295575618744|0.7989152073860168|-0.5767913460731506|0|0|0|-1|-1|3
2021-04-09 10:01:17.930 +0100|28701.55869175|-0.2579345703125|0.84600830078125|-0.4245452880859375|28701.53873075|0.4977004836593821|-0.3443844274871615|-0.9613491062470526|-2.483023881912231|-0.1633953750133514|-1.307973146438599|-0.01674942672252655|-0.201738715171814|0.1506826877593994|XArbitraryZVertical|0.404089184826833|0.2594412942726844|-0.2919359049067382|-0.8271492148711072|-0.1932570487260818|0.819964587688446|-0.538804292678833|0|0|0|-1|-1|3
2021-04-09 10:01:17.950 +0100|28701.57865175|-0.281463623046875|0.9524383544921875|-0.4642791748046875|28701.55869175|0.4221214172545916|-0.4118872076383092|-0.9979318587034329|-2.35670280456543|-0.2648759484291077|-1.217725515365601|0.003637209534645081|-0.09347915649414062|0.08778965473175049|XArbitraryZVertical|0.4203945581126521|0.2737040533868261|-0.2757486357243344|-0.8199496313512107|-0.2170006185770035|0.8403517603874207|-0.496709018945694|0|0|0|-1|-1|3
2021-04-09 10:01:17.970 +0100|28701.59861275|-0.272705078125|1.082077026367188|-0.568267822265625|28701.57865175|0.3471618681942596|-0.4795883870129358|-1.02718894970117|-1.968716859817505|-0.1523261666297913|-1.116169810295105|-0.05797488987445831|0.04756408929824829|0.03327873349189758|XArbitraryZVertical|0.4343541957513898|0.2861791338269249|-0.2610581072756628|-0.8131953865203303|-0.2386557310819626|0.8558484315872192|-0.4588758647441864|0|0|0|-1|-1|3
2021-04-09 10:01:17.990 +0100|28701.61857375|-0.295257568359375|1.059906005859375|-0.6317596435546875|28701.59861275|0.276909146545993|-0.5432544494076357|-1.047488066290348|-1.604857087135315|-0.1531481742858887|-1.011627674102783|-0.005980223417282104|0.1639813780784607|-0.1052493453025818|XArbitraryZVertical|0.4451133427714049|0.2966041693905807|-0.2480298873050332|-0.8077012732197502|-0.2583323121070862|0.8661706447601318|-0.4278001487255096|0|0|0|-1|-1|3
2021-04-09 10:01:18.010 +0100|28701.63853475|-0.312652587890625|1.100265502929688|-0.6133575439453125|28701.61857375|0.2121036402024331|-0.6025702929065123|-1.06283857134251|-1.420531868934631|-0.1556951105594635|-0.8372487425804138|-0.02073216438293457|0.1988927721977234|-0.2058505713939667|XArbitraryZVertical|0.4541324793390326|0.3056111761267362|-0.2366785195987032|-0.8027134106913691|-0.2756695747375488|0.8737396597862244|-0.4007309973239899|0|0|0|-1|-1|3
2021-04-09 10:01:18.030 +0100|28701.65849475|-0.3058624267578125|1.1312255859375|-0.574005126953125|28701.63853475|0.1563547576605937|-0.6542080327073516|-1.075213872649217|-1.093165993690491|-0.09711770713329315|-0.6056311130523682|-0.01037529110908508|0.2006614804267883|-0.2520805299282074|XArbitraryZVertical|0.4618953307813914|0.313006984387134|-0.2275545389382195|-0.7980591134692745|-0.2893833816051483|0.8796918988227844|-0.3773586750030518|0|0|0|-1|-1|3
2021-04-09 10:01:18.050 +0100|28701.67845575|-0.2725067138671875|1.1077880859375|-0.591278076171875|28701.65849475|0.1180378492715222|-0.6893398543348066|-1.082452563642883|-0.6395350694656372|-0.03454924374818802|-0.3845624625682831|-0.009902119636535645|0.2460856437683105|-0.2293456792831421|XArbitraryZVertical|0.4669617217919751|0.3176911751822422|-0.2213525722830636|-0.7949983518277413|-0.2984015643596649|0.8831111192703247|-0.3620381355285645|0|0|0|-1|-1|3
2021-04-09 10:01:18.070 +0100|28701.69841675|-0.2726593017578125|0.9776611328125|-0.5908203125|28701.67845575|0.09577845854264107|-0.7096862537695052|-1.086190450632461|-0.3082469403743744|-0.06696262955665588|-0.1698292195796967|0.005197525024414062|0.2129508852958679|-0.209418386220932|XArbitraryZVertical|0.4697980163163457|0.3203075771907397|-0.2177783464811775|-0.7932627313051035|-0.3035524487495422|0.8848586082458496|-0.3533857464790344|0|0|0|-1|-1|3
2021-04-09 10:01:18.090 +0100|28701.71837775|-0.262786865234375|0.9383392333984375|-0.56451416015625|28701.69841675|0.08741334268409816|-0.7190549196707362|-1.087664186655621|-0.1140280216932297|-0.1304608583450317|-5.21722249686718e-05|0.03664255142211914|0.1838839054107666|-0.2399011850357056|XArbitraryZVertical|0.4707195314285237|0.3219483323070153|-0.2168692979477233|-0.7923006693000166|-0.3059905171394348|0.8855442404747009|-0.3495447933673859|0|0|0|-1|-1|3
2021-04-09 10:01:18.110 +0100|28701.73833875|-0.26104736328125|0.9067230224609375|-0.5370025634765625|28701.71837775|0.08749671693010241|-0.7224749326953341|-1.090536764409854|-0.08843039721250534|-0.2052589356899261|0.1725162267684937|0.04312604665756226|0.05389094352722168|-0.2419745326042175|XArbitraryZVertical|0.4714942201841693|0.3231098918974941|-0.2181103467874296|-0.7910254031969733|-0.305500715970993|0.8868750333786011|-0.3465864062309265|0|0|0|-1|-1|3
2021-04-09 10:01:18.130 +0100|28701.75829875|-0.274993896484375|0.86273193359375|-0.51007080078125|28701.73833875|0.09308461957170064|-0.7221189234500971|-1.094646557808329|-0.0644393265247345|-0.2577580213546753|0.2834552526473999|0.04139977693557739|0.04006731510162354|-0.20163494348526|XArbitraryZVertical|0.4722871537520142|0.3239849017059787|-0.2208088424638933|-0.7894443372010147|-0.3029657304286957|0.8887662887573242|-0.343957245349884|0|0|0|-1|-1|3
2021-04-09 10:01:18.150 +0100|28701.77825975|-0.304443359375|0.9024810791015625|-0.472259521484375|28701.75829875|0.1011798052083147|-0.7208427979429967|-1.100319635212606|-0.1143659874796867|-0.328976571559906|0.3653644025325775|0.03205832839012146|-0.02662092447280884|-0.1876318156719208|XArbitraryZVertical|0.4734029037196076|0.3249841034095142|-0.2244843075435258|-0.7873257970490566|-0.2991936802864075|0.8913522958755493|-0.340550035238266|0|0|0|-1|-1|3
2021-04-09 10:01:18.178 +0100|28701.79822075|-0.3475341796875|0.8652496337890625|-0.4185638427734375|28701.77825975|0.1112301948688101|-0.7186847001037031|-1.10674111838783|-0.07646743953227997|-0.3673648536205292|0.3909993171691895|0.002081155776977539|-0.01636034250259399|-0.1573054790496826|XArbitraryZVertical|0.4745985820482649|0.3260617161813945|-0.2288011428092544|-0.7849141088005304|-0.2946834862232208|0.8942448496818542|-0.3368798792362213|0|0|0|-1|-1|3
2021-04-09 10:01:18.191 +0100|28701.81818175|-0.3638916015625|0.90997314453125|-0.3671112060546875|28701.79822075|0.120985262777062|-0.7173804208072434|-1.113579980310405|-0.1752019673585892|-0.3939831554889679|0.4041844308376312|-0.04118898510932922|-0.005286037921905518|-0.1033559143543243|XArbitraryZVertical|0.4759085770846615|0.3273945879432074|-0.2332347091284959|-0.782256608601316|-0.2902163565158844|0.8972848057746887|-0.3326476216316223|0|0|0|-1|-1|3
2021-04-09 10:01:18.210 +0100|28701.83814175|-0.3932647705078125|0.9341278076171875|-0.3347320556640625|28701.81818175|0.1286850006724213|-0.7187178099431387|-1.122145848625578|-0.226510688662529|-0.4219972193241119|0.4056028127670288|-0.06446164846420288|-0.01291012763977051|-0.06706064939498901|XArbitraryZVertical|0.4779300043977851|0.3291681900012206|-0.2376994059624753|-0.7789290318729234|-0.2855899631977081|0.9010332822799683|-0.3264624178409576|0|0|0|-1|-1|3
2021-04-09 10:01:18.230 +0100|28701.85810275|-0.38519287109375|0.966278076171875|-0.3260955810546875|28701.83814175|0.1349287929146221|-0.7216176681068275|-1.130575082993508|-0.2264258563518524|-0.4395800232887268|0.366070419549942|-0.09796261787414551|0.01618051528930664|-0.02665239572525024|XArbitraryZVertical|0.4799316375180665|0.3312188639748325|-0.2419345936147599|-0.7755175361578949|-0.2815079391002655|0.9046574234962463|-0.3199193775653839|0|0|0|-1|-1|3
2021-04-09 10:01:18.250 +0100|28701.87806291667|-0.3158111572265625|0.9464874267578125|-0.3299713134765625|28701.85810275|0.1433370681626847|-0.7226485447948422|-1.138582980829752|-0.1191513240337372|-0.4239292144775391|0.4439836144447327|-0.1201943755149841|0.04998278617858887|-0.01316052675247192|XArbitraryZVertical|0.4816135249104513|0.3331003140647614|-0.246485956506015|-0.7722288797258903|-0.2770374119281769|0.9080408215522766|-0.3141851723194122|0|0|0|-1|-1|3
2021-04-09 10:01:18.270 +0100|28701.89802391667|-0.275604248046875|0.84130859375|-0.29974365234375|28701.87806291667|0.1609893370555598|-0.7151218917995628|-1.145681737920836|0.08476583659648895|-0.425142765045166|0.5710355639457703|-0.07403555512428284|0.04935145378112793|-0.02203190326690674|XArbitraryZVertical|0.4824468703860194|0.3339934425864318|-0.2523861367671686|-0.7694120283595467|-0.2704313397407532|0.9109914898872375|-0.3113867938518524|0|0|0|-1|-1|3
2021-04-09 10:01:18.290 +0100|28701.91798491667|-0.28057861328125|0.7951202392578125|-0.2273406982421875|28701.89802391667|0.1883011938804441|-0.6981442464642836|-1.148821621223806|0.1924704909324646|-0.3752762079238892|0.6359032392501831|-0.0371641218662262|-0.01077693700790405|-0.004511445760726929|XArbitraryZVertical|0.4813163527093385|0.3338630915415672|-0.2591774618995747|-0.7679173709593943|-0.26326584815979|0.9122819304466248|-0.3137400150299072|0|0|0|-1|-1|3
2021-04-09 10:01:18.310 +0100|28701.93794491667|-0.3085784912109375|0.8274078369140625|-0.1425323486328125|28701.91798491667|0.2143512338984779|-0.6817193311902922|-1.152445515432965|0.1134697571396828|-0.3138561248779297|0.5938629508018494|-0.01613229513168335|-0.100878119468689|0.05173599720001221|XArbitraryZVertical|0.4805811942975222|0.3336396457763586|-0.2656373820006777|-0.7662657807480457|-0.2559926211833954|0.9137601852416992|-0.3154526054859161|0|0|0|-1|-1|3
2021-04-09 10:01:18.330 +0100|28701.95790591667|-0.3392181396484375|0.89764404296875|-0.091033935546875|28701.93794491667|0.2325760768351461|-0.6714396565132823|-1.157182172068763|-0.00616261875256896|-0.2457071393728256|0.4988400936126709|-0.04077604413032532|-0.1244749426841736|0.1305331289768219|XArbitraryZVertical|0.4808262548289173|0.3338690658287927|-0.2706585878469054|-0.7642522982649735|-0.2500408887863159|0.9156742095947266|-0.3146751224994659|0|0|0|-1|-1|3
2021-04-09 10:01:18.350 +0100|28701.97786691667|-0.317840576171875|0.8900299072265625|-0.0812530517578125|28701.95790591667|0.2462085528322491|-0.6634939344433869|-1.161645244571075|-0.01017981395125389|-0.152525469660759|0.37119460105896|-0.0890163779258728|-0.03572916984558105|0.2030024528503418|XArbitraryZVertical|0.4814321947545909|0.3339287692818027|-0.2744196966943366|-0.7625015772574918|-0.2450134754180908|0.9174588918685913|-0.3134292364120483|0|0|0|-1|-1|3
2021-04-09 10:01:18.369 +0100|28701.99782791667|-0.29351806640625|0.8934478759765625|-0.074249267578125|28701.97786691667|0.2542953249426091|-0.6589092340821262|-1.16517213650351|-0.1066985949873924|-0.09960019588470459|0.208804190158844|-0.08285608887672424|-0.02878004312515259|0.2246790528297424|XArbitraryZVertical|0.4821356178182116|0.3339922901165759|-0.276755934929241|-0.7611837326500419|-0.241591215133667|0.9188562631607056|-0.3119888007640839|0|0|0|-1|-1|3
2021-04-09 10:01:18.401 +0100|28702.01778891667|-0.2927398681640625|0.9337005615234375|-0.07366943359375|28701.99782791667|0.254336551886987|-0.6604394357361968|-1.169597342779423|-0.231382355093956|-0.05543540045619011|0.07575781643390656|-0.0675264298915863|-0.0328211784362793|0.2326458394527435|XArbitraryZVertical|0.4836993669806272|0.3344137839418812|-0.2775878976077568|-0.7597022421822744|-0.2395716160535812|0.9205934405326843|-0.3084046840667725|0|0|0|-1|-1|3
2021-04-09 10:01:18.409 +0100|28702.03774891667|-0.305633544921875|0.953338623046875|-0.04742431640625|28702.01778891667|0.2467129784853954|-0.6679297701993591|-1.174065874862046|-0.2981211245059967|0.01078377850353718|-0.0314902551472187|-0.05452895164489746|-0.0004538297653198242|0.2318669855594635|XArbitraryZVertical|0.4857336868684576|0.3352290060638912|-0.2769665211416506|-0.7582703108778437|-0.2393244653940201|0.922329306602478|-0.3033685982227325|0|0|0|-1|-1|3
2021-04-09 10:01:18.429 +0100|28702.05770991667|-0.2932586669921875|0.978485107421875|-0.00860595703125|28702.03774891667|0.2276971807445861|-0.6852863128524559|-1.17915436069583|-0.3763740956783295|0.09169343858957291|-0.1199368536472321|-0.0555843710899353|0.005953788757324219|0.233170211315155|XArbitraryZVertical|0.4885741416942232|0.3369412348928864|-0.2745325027171904|-0.7565698353542735|-0.2415801882743835|0.9242835640907288|-0.295531839132309|0|0|0|-1|-1|3
2021-04-09 10:01:18.449 +0100|28702.07767091667|-0.28900146484375|1.029067993164062|0.0107269287109375|28702.05770991667|0.2029930906927936|-0.7062796055351024|-1.183616346105046|-0.3750742077827454|0.1623223274946213|-0.2196415066719055|-0.05789598822593689|0.05217242240905762|0.2588443756103516|XArbitraryZVertical|0.491661420433422|0.3385874868204777|-0.2708429775371987|-0.7551634136840475|-0.2450516819953918|0.9259775280952454|-0.2872551083564758|0|0|0|-1|-1|3
2021-04-09 10:01:18.469 +0100|28702.09763191667|-0.281982421875|1.067352294921875|-0.002410888671875|28702.07767091667|0.169900538363094|-0.7347952477336976|-1.18750631613411|-0.3464626967906952|0.2003176063299179|-0.3096705675125122|-0.03887090086936951|0.08133494853973389|0.2830624878406525|XArbitraryZVertical|0.4949960742397538|0.3409406850592145|-0.2658651267181916|-0.7536936568078302|-0.250725269317627|0.927439272403717|-0.2774766683578491|0|0|0|-1|-1|3
2021-04-09 10:01:18.489 +0100|28702.11759191667|-0.2901763916015625|1.043319702148438|-0.0106658935546875|28702.09763191667|0.1380648601737039|-0.7615906025132867|-1.189562763893832|-0.211399644613266|0.2191451787948608|-0.3353423774242401|-0.02190282940864563|0.1072860360145569|0.2702106535434723|XArbitraryZVertical|0.4977183561102118|0.3429826161983082|-0.2607944517416541|-0.7527454427817856|-0.2567528188228607|0.9282063841819763|-0.2692787349224091|0|0|0|-1|-1|3
2021-04-09 10:01:18.509 +0100|28702.13755291667|-0.2932891845703125|1.001708984375|-0.0304718017578125|28702.11759191667|0.1116782669679565|-0.7822262801955532|-1.188728393202128|-0.04930043593049049|0.2850907444953918|-0.3573097288608551|-0.03006118535995483|0.1372141242027283|0.26215460896492|XArbitraryZVertical|0.4992611670408694|0.3442409918816818|-0.255889497620144|-0.7528327379109934|-0.262800395488739|0.9278956055641174|-0.2644728422164917|0|0|0|-1|-1|3
2021-04-09 10:01:18.529 +0100|28702.15751391667|-0.2927398681640625|0.941314697265625|-0.041534423828125|28702.13755291667|0.08798715547203355|-0.7993579321481914|-1.186322801550704|0.0117911146953702|0.3406286835670471|-0.3872263431549072|-0.02300840616226196|0.09917324781417847|0.2380816042423248|XArbitraryZVertical|0.5002409924288088|0.3449858330621027|-0.2508958633011356|-0.7535218037010525|-0.2688919007778168|0.9269960522651672|-0.2614874541759491|0|0|0|-1|-1|3
2021-04-09 10:01:18.549 +0100|28702.17747491667|-0.29229736328125|0.9068603515625|-0.0341339111328125|28702.15751391667|0.06398447047797122|-0.8156218130752682|-1.183822403728031|0.006089869420975447|0.4048842191696167|-0.418292373418808|-0.01676884293556213|0.04849350452423096|0.2205828428268433|XArbitraryZVertical|0.5014015465315884|0.3453442610031366|-0.2455374509953654|-0.7543508878701607|-0.2747957706451416|0.9260553121566772|-0.2586676478385925|0|0|0|-1|-1|3
2021-04-09 10:01:18.569 +0100|28702.19743591667|-0.2984619140625|0.841766357421875|-0.01641845703125|28702.17747491667|0.03833721391735141|-0.8320131926413071|-1.18167024412511|-0.04763898625969887|0.474648654460907|-0.4575423896312714|-0.01489269733428955|-0.01139163970947266|0.2177059054374695|XArbitraryZVertical|0.503017249175408|0.3453092477013665|-0.2396308993179296|-0.7551902345050487|-0.2804713845252991|0.9252409338951111|-0.255470335483551|0|0|0|-1|-1|3
2021-04-09 10:01:18.589 +0100|28702.21739591667|-0.2850494384765625|0.8468475341796875|-0.024932861328125|28702.19743591667|0.009317963226280127|-0.8499016793201251|-1.17951790663548|-0.1641690880060196|0.5496658086776733|-0.5162022113800049|-0.01103934645652771|-0.04403549432754517|0.2254975736141205|XArbitraryZVertical|0.5050934030035905|0.3449891248925739|-0.2328167781916932|-0.7560816929700427|-0.2864914834499359|0.9244222640991211|-0.2517263293266296|0|0|0|-1|-1|3
2021-04-09 10:01:18.609 +0100|28702.23735691667|-0.286895751953125|0.83837890625|-0.0773773193359375|28702.21739591667|-0.02574318862236781|-0.8719185802786408|-1.177356389439761|-0.2448134273290634|0.6197083592414856|-0.5874661207199097|0.004293620586395264|-0.08869534730911255|0.2313857674598694|XArbitraryZVertical|0.5078045242928855|0.3446924097187505|-0.2247531471866581|-0.7568407933025715|-0.2934932112693787|0.9235957860946655|-0.2466434091329575|0|0|0|-1|-1|3
2021-04-09 10:01:18.629 +0100|28702.25731791667|-0.3037261962890625|0.8190765380859375|-0.0836181640625|28702.23735691667|-0.06447457009257296|-0.8953679090910135|-1.174021271525704|-0.301373153924942|0.7277750968933105|-0.66879802942276|0.007896870374679565|-0.07778340578079224|0.1930356174707413|XArbitraryZVertical|0.5106486879819416|0.3441347188324157|-0.2154444549493909|-0.7578872120707358|-0.3015977442264557|0.9223120808601379|-0.241618424654007|0|0|0|-1|-1|3
2021-04-09 10:01:18.649 +0100|28702.27727891667|-0.3243865966796875|0.812042236328125|-0.0526275634765625|28702.25731791667|-0.1080832975113531|-0.9208945225021936|-1.169868883081004|-0.3877067565917969|0.8697723150253296|-0.7293676137924194|0.0197736918926239|-0.09413045644760132|0.1486338675022125|XArbitraryZVertical|0.5139301775959696|0.3432160117793379|-0.2046417001797407|-0.7590786180583073|-0.3107127845287323|0.920699417591095|-0.236157089471817|0|0|0|-1|-1|3
2021-04-09 10:01:18.669 +0100|28702.29723991667|-0.32659912109375|0.811309814453125|-0.0383453369140625|28702.27727891667|-0.1568515204164889|-0.9479812081203802|-1.165197651023507|-0.5061758756637573|1.038921713829041|-0.8158442974090576|0.005543380975723267|-0.09301453828811646|0.1599418222904205|XArbitraryZVertical|0.5178951067654837|0.3416194648748036|-0.1921510176208545|-0.7603675696753146|-0.3204845786094666|0.9188663363456726|-0.2301615923643112|0|0|0|-1|-1|3
2021-04-09 10:01:18.689 +0100|28702.31719991667|-0.3187255859375|0.8624114990234375|-0.0341796875|28702.29723991667|-0.2066954829643311|-0.9717372780719183|-1.157950147728338|-0.7007097601890564|1.156180024147034|-0.9175593256950378|0.003533124923706055|-0.1278046369552612|0.184196412563324|XArbitraryZVertical|0.5215846250048594|0.3388699810801817|-0.1777932066911938|-0.7625656478722198|-0.3313528001308441|0.9159826040267944|-0.2262332290410995|0|0|0|-1|-1|3
2021-04-09 10:01:18.709 +0100|28702.33716091667|-0.306488037109375|0.9010162353515625|-0.0416717529296875|28702.31719991667|-0.2645436158741873|-1.000318060255854|-1.150066116377603|-0.8066827058792114|1.273918509483337|-1.029940366744995|0.01202377676963806|-0.06226569414138794|0.1853944957256317|XArbitraryZVertical|0.5261502142930102|0.3359814871897082|-0.1614205565514701|-0.764346651221872|-0.3437497317790985|0.9127909541130066|-0.2205647826194763|0|0|0|-1|-1|3
2021-04-09 10:01:18.729 +0100|28702.35712191667|-0.2869720458984375|0.9637298583984375|-0.0747528076171875|28702.33716091667|-0.3267408325908667|-1.030780357921234|-1.140977706168001|-0.8894549608230591|1.348652005195618|-1.091765165328979|0.04815927147865295|-0.04226547479629517|0.176103487610817|XArbitraryZVertical|0.5311038335407734|0.3328724344331512|-0.1435232586176348|-0.7658497473803038|-0.3574090301990509|0.9090413451194763|-0.2142493277788162|0|0|0|-1|-1|3
2021-04-09 10:01:18.749 +0100|28702.37708291667|-0.27325439453125|1.021148681640625|-0.1174163818359375|28702.35712191667|-0.3901504040893341|-1.060938619556785|-1.130819131266797|-0.9122644066810608|1.371271252632141|-1.119207739830017|0.06829679012298584|0.03453958034515381|0.1591358184814453|XArbitraryZVertical|0.5361748187197343|0.3295162634061511|-0.1247417421947951|-0.7670562678752207|-0.3717482686042786|0.9047613739967346|-0.2078711986541748|0|0|0|-1|-1|3
2021-04-09 10:01:18.769 +0100|28702.39704291667|-0.256561279296875|1.045547485351562|-0.152435302734375|28702.37708291667|-0.4515435925269728|-1.089239133200826|-1.119768729432587|-0.8859871029853821|1.342501044273376|-1.117331504821777|0.1114016175270081|0.09568250179290771|0.101912796497345|XArbitraryZVertical|0.5409958218497599|0.3261593424197268|-0.1059326746939908|-0.7679336521495908|-0.3863191902637482|0.8999996781349182|-0.2018872052431107|0|0|0|-1|-1|3
2021-04-09 10:01:18.789 +0100|28702.41700391667|-0.265716552734375|1.079818725585938|-0.1717376708984375|28702.39704291667|-0.5093622542556007|-1.114952839420256|-1.107511497873532|-0.8280870318412781|1.277142643928528|-1.134034276008606|0.1390199065208435|0.1409334540367126|0.05908119678497314|XArbitraryZVertical|0.5452351386262712|0.3230385040311295|-0.08740162903128548|-0.7685869177928566|-0.4012574553489685|0.894589364528656|-0.1967295408248901|0|0|0|-1|-1|3
2021-04-09 10:01:18.809 +0100|28702.43696491667|-0.258514404296875|1.119003295898438|-0.20928955078125|28702.41700391667|-0.562242212521072|-1.137427733813053|-1.093979633063675|-0.7507926821708679|1.184916257858276|-1.113695025444031|0.1524576544761658|0.1689587831497192|0.03120023012161255|XArbitraryZVertical|0.5486566121547901|0.3203305011516685|-0.06945750093784327|-0.7691164927434579|-0.4165263175964355|0.8884603977203369|-0.192728579044342|0|0|0|-1|-1|3
2021-04-09 10:01:18.828 +0100|28702.45692591667|-0.2205963134765625|1.078048706054688|-0.286407470703125|28702.43696491667|-0.6074673620717367|-1.155363767130393|-1.080342392042002|-0.5806745290756226|1.024291396141052|-0.9809220433235168|0.1715931296348572|0.217902660369873|0.005606859922409058|XArbitraryZVertical|0.5511810280636417|0.3180402789688899|-0.0531068498635977|-0.7695646769216939|-0.4309621453285217|0.8821191191673279|-0.1900997161865234|0|0|0|-1|-1|3
2021-04-09 10:01:18.848 +0100|28702.47688691667|-0.18798828125|0.9813995361328125|-0.337432861328125|28702.45692591667|-0.6414447088345047|-1.166537311808917|-1.067723434611038|-0.4186170697212219|0.8406103253364563|-0.8266909718513489|0.1953489184379578|0.2438902258872986|-0.05125325918197632|XArbitraryZVertical|0.5525382013308336|0.316043526332519|-0.03945151086824582|-0.7702348965050412|-0.4432585835456848|0.8761051893234253|-0.1896360516548157|0|0|0|-1|-1|3
2021-04-09 10:01:18.868 +0100|28702.49684691667|-0.2004547119140625|1.007705688476562|-0.33203125|28702.47688691667|-0.6697874301985084|-1.176425473921125|-1.056450865978377|-0.4367919862270355|0.640919029712677|-0.7715702652931213|0.2542042434215546|0.1576446294784546|-0.129026398062706|XArbitraryZVertical|0.5535154402102885|0.3148132512132237|-0.0279586089291848|-0.7705398766564111|-0.4542012810707092|0.8706149458885193|-0.1890265494585037|0|0|0|-1|-1|3
2021-04-09 10:01:18.888 +0100|28702.51680791667|-0.2259063720703125|1.096023559570312|-0.3430938720703125|28702.49684691667|-0.6985920125472891|-1.190759846405393|-1.045705221354449|-0.4708543121814728|0.4207702875137329|-0.7616331577301025|0.2801463305950165|0.1123831272125244|-0.1529704928398132|XArbitraryZVertical|0.5547583679116536|0.3150633214389995|-0.01764434054214202|-0.769848780239296|-0.4655255377292633|0.8652783036231995|-0.1859565079212189|0|0|0|-1|-1|3
2021-04-09 10:01:18.908 +0100|28702.53676891667|-0.2368316650390625|1.097930908203125|-0.4344329833984375|28702.51680791667|-0.7243678590003312|-1.207197873035463|-1.035259834480288|-0.3461272716522217|0.1471900790929794|-0.6666626930236816|0.258541464805603|0.1969205141067505|-0.1482115834951401|XArbitraryZVertical|0.5557236266543804|0.3169058426722207|-0.009151036250318304|-0.7685429456361395|-0.4769406020641327|0.8599950075149536|-0.1814838796854019|0|0|0|-1|-1|3
2021-04-09 10:01:18.928 +0100|28702.55672991667|-0.2361297607421875|0.98834228515625|-0.5311279296875|28702.53676891667|-0.7411099035019654|-1.22182114545199|-1.025990768553304|-0.1539512276649475|-0.163237988948822|-0.5092931389808655|0.2595202326774597|0.2610289454460144|-0.208044171333313|XArbitraryZVertical|0.5557174799564198|0.3202715105740511|-0.003965967126714163|-0.7671953239995248|-0.4870136976242065|0.855228066444397|-0.1772084832191467|0|0|0|-1|-1|3
2021-04-09 10:01:18.948 +0100|28702.57669091667|-0.2828826904296875|0.9287567138671875|-0.52691650390625|28702.55672991667|-0.751118360100652|-1.236074731510226|-1.017920347092638|-0.09328071027994156|-0.3994225859642029|-0.4515151381492615|0.2540035843849182|0.1902117133140564|-0.3141060471534729|XArbitraryZVertical|0.5550488604102221|0.3250621028335501|-0.001611316411792393|-0.7656715159427812|-0.4959928691387177|0.8510177731513977|-0.1725107878446579|0|0|0|-1|-1|3
2021-04-09 10:01:18.968 +0100|28702.59665091667|-0.3595733642578125|1.013504028320312|-0.4785919189453125|28702.57669091667|-0.7612474273537869|-1.254194812955902|-1.009718461977148|-0.1556285172700882|-0.5465846061706543|-0.4956125617027283|0.252189576625824|0.08701872825622559|-0.3741153478622437|XArbitraryZVertical|0.5544243792687068|0.331333721797614|-0.0002250237494627232|-0.7634341019115664|-0.5056533813476562|0.846682071685791|-0.1656631380319595|0|0|0|-1|-1|3
2021-04-09 10:01:18.988 +0100|28702.61661191667|-0.3199310302734375|0.9938507080078125|-0.4781341552734375|28702.59665091667|-0.7713229665807204|-1.27432417544136|-1.00131619502156|-0.06622868031263351|-0.6084954738616943|-0.4466110169887543|0.1897889971733093|0.1374177932739258|-0.3454191088676453|XArbitraryZVertical|0.5538062002005063|0.3384322358205238|0.0006652972080337431|-0.7607640675354073|-0.5156710743904114|0.842181384563446|-0.1575246304273605|0|0|0|-1|-1|3
2021-04-09 10:01:19.008 +0100|28702.63657291667|-0.3003082275390625|0.85247802734375|-0.4917144775390625|28702.61661191667|-0.7735935821584261|-1.289664930854374|-0.993939844743761|0.1439328640699387|-0.7469359636306763|-0.2921241521835327|0.1820927262306213|0.1890866160392761|-0.3237965106964111|XArbitraryZVertical|0.5521882721090625|0.3455872350103321|-0.0003869566653925337|-0.7587210966614206|-0.5239813327789307|0.8381812572479248|-0.1513151526451111|0|0|0|-1|-1|3
2021-04-09 10:01:19.028 +0100|28702.65653391667|-0.3091278076171875|0.783203125|-0.464111328125|28702.63657291667|-0.7700490123290725|-1.302752538727785|-0.9883772913739517|0.1713824719190598|-0.8618425726890564|-0.2118195444345474|0.2108088135719299|0.08710688352584839|-0.3347750902175903|XArbitraryZVertical|0.5500497527856218|0.3529966754321576|-0.003571237486638935|-0.75685266685456|-0.5304042100906372|0.8351345062255859|-0.145677238702774|0|0|0|-1|-1|3
2021-04-09 10:01:19.048 +0100|28702.67649491667|-0.390655517578125|0.86639404296875|-0.4119720458984375|28702.65653391667|-0.7677276762523043|-1.318954425780999|-0.9834464316930369|0.05282539874315262|-0.9476671814918518|-0.2439092248678207|0.2434024810791016|-0.02847206592559814|-0.3471997976303101|XArbitraryZVertical|0.5482616960217828|0.3610600745622865|-0.007322815680693329|-0.7543151635677513|-0.5366765260696411|0.8324121832847595|-0.1380894631147385|0|0|0|-1|-1|3
2021-04-09 10:01:19.068 +0100|28702.69645491667|-0.484832763671875|0.98602294921875|-0.3656463623046875|28702.67649491667|-0.7704053456684445|-1.340559496390545|-0.978472466496111|-0.03874963894486427|-0.9858132600784302|-0.2637424170970917|0.2045693397521973|-0.03342640399932861|-0.3125032186508179|XArbitraryZVertical|0.5473247208752607|0.3697734787250694|-0.01063246666450175|-0.7507264806258626|-0.543558657169342|0.8296455144882202|-0.1274064481258392|0|0|0|-1|-1|3
2021-04-09 10:01:19.088 +0100|28702.71641591667|-0.5275115966796875|0.9640960693359375|-0.34454345703125|28702.69645491667|-0.771319277684566|-1.360606147720977|-0.9731495687390245|0.1256757974624634|-0.9528890252113342|-0.2524025738239288|0.09897470474243164|0.124983012676239|-0.2663830518722534|XArbitraryZVertical|0.545964911295129|0.3784440785999841|-0.01404151131555503|-0.7473321071369726|-0.5503144860267639|0.8266620635986328|-0.1174047887325287|0|0|0|-1|-1|3
2021-04-09 10:01:19.108 +0100|28702.73637691667|-0.53338623046875|0.9176483154296875|-0.3445587158203125|28702.71641591667|-0.7662406394905807|-1.375277309259803|-0.9680754033518849|0.2441351115703583|-0.9307008981704712|-0.1868511736392975|0.04526674747467041|0.1633560657501221|-0.2394759505987167|XArbitraryZVertical|0.5435429565598328|0.3866457778622958|-0.01827363284965855|-0.7448034759377861|-0.5560852289199829|0.8237962126731873|-0.1101321950554848|0|0|0|-1|-1|3
2021-04-09 10:01:19.128 +0100|28702.75633791667|-0.54693603515625|0.86767578125|-0.324493408203125|28702.73637691667|-0.758026522725055|-1.386926227764536|-0.9639350328416983|0.2819872498512268|-0.9031947255134583|-0.1474863737821579|0.03330475091934204|0.1145322918891907|-0.2406386137008667|XArbitraryZVertical|0.5407344766418996|0.3942985106720776|-0.02312627565766599|-0.7426979069061883|-0.560679018497467|0.8214420676231384|-0.1042698174715042|0|0|0|-1|-1|3
2021-04-09 10:01:19.148 +0100|28702.77629891667|-0.5830535888671875|0.877716064453125|-0.277862548828125|28702.75633791667|-0.7500122753436851|-1.397963549316937|-0.9602655979085959|0.2283693701028824|-0.8594266176223755|-0.1289433091878891|0.02316594123840332|0.06548309326171875|-0.2415395379066467|XArbitraryZVertical|0.5380393730949312|0.4015185755842319|-0.02786524154740289|-0.7406214868077831|-0.5647614002227783|0.8193438649177551|-0.09859292954206467|0|0|0|-1|-1|3
2021-04-09 10:01:19.168 +0100|28702.79625891667|-0.58990478515625|0.872100830078125|-0.234466552734375|28702.77629891667|-0.743260657498561|-1.408977683011287|-0.9570970653645439|0.2190192043781281|-0.7934654951095581|-0.1170616149902344|0.003736138343811035|0.05613434314727783|-0.2084837555885315|XArbitraryZVertical|0.5356793764861291|0.4082344215738547|-0.03226991687678212|-0.738478911978372|-0.568372368812561|0.8175232410430908|-0.09278452396392822|0|0|0|-1|-1|3
2021-04-09 10:01:19.188 +0100|28702.81621991667|-0.5517730712890625|0.81634521484375|-0.2155914306640625|28702.79625891667|-0.7359053991467359|-1.418189544229798|-0.9544255201806843|0.2320474088191986|-0.7285611033439636|-0.08368599414825439|-0.01280802488327026|0.05924731492996216|-0.167447566986084|XArbitraryZVertical|0.5333115844064807|0.4142951528499085|-0.03655723944476246|-0.7366151701482233|-0.571359395980835|0.8159818053245544|-0.08787655830383301|0|0|0|-1|-1|3
2021-04-09 10:01:19.208 +0100|28702.83618091667|-0.53302001953125|0.7799530029296875|-0.2033538818359375|28702.81621991667|-0.7289236606787893|-1.426636763612305|-0.9523303327717934|0.1982582360506058|-0.694861114025116|-0.07297724485397339|-0.003895103931427002|0.02797442674636841|-0.1413460969924927|XArbitraryZVertical|0.5311465183408871|0.4198060352553849|-0.04067577423867368|-0.7348414346510866|-0.573772132396698|0.8147687911987305|-0.08329253643751144|0|0|0|-1|-1|3
2021-04-09 10:01:19.228 +0100|28702.85614191667|-0.542205810546875|0.8074493408203125|-0.1930084228515625|28702.83618091667|-0.723854518663718|-1.436354140107161|-0.9503485356884986|0.1255741715431213|-0.6906094551086426|-0.08386407047510147|0.03489381074905396|-0.02672195434570312|-0.1328847408294678|XArbitraryZVertical|0.5293532079230249|0.4252299021332406|-0.04445003463232828|-0.7327954316047337|-0.5761535167694092|0.8136181831359863|-0.07792942225933075|0|0|0|-1|-1|3
2021-04-09 10:01:19.248 +0100|28702.87610266667|-0.5460052490234375|0.8278045654296875|-0.1767120361328125|28702.85614191667|-0.7201348782606481|-1.447123934698772|-0.9484127358987956|0.1240759938955307|-0.6820171475410461|-0.0795314610004425|0.0442194938659668|-0.01839298009872437|-0.12574702501297|XArbitraryZVertical|0.5278064817521615|0.4306544592591654|-0.04800820495936895|-0.7305151863378795|-0.5785211324691772|0.8124911785125732|-0.07191410660743713|0|0|0|-1|-1|3
2021-04-09 10:01:19.268 +0100|28702.89606366667|-0.549835205078125|0.8270416259765625|-0.1532440185546875|28702.87610266667|-0.7136056999732234|-1.454200173563229|-0.9467513659557121|0.1409691721200943|-0.6552714109420776|-0.07084476202726364|0.03551000356674194|0.006639778614044189|-0.116776704788208|XArbitraryZVertical|0.5257866872203509|0.4353855669008614|-0.05169559616331729|-0.72891395516094|-0.5803555250167847|0.8115215301513672|-0.06797553598880768|0|0|0|-1|-1|3
2021-04-09 10:01:19.288 +0100|28702.91602466667|-0.5374908447265625|0.7975921630859375|-0.146453857421875|28702.89606366667|-0.7048061307702309|-1.458068319257436|-0.9453150138965563|0.1422698944807053|-0.6181436777114868|-0.05867313966155052|0.03291308879852295|0.01742863655090332|-0.09990912675857544|XArbitraryZVertical|0.5233865681544755|0.439472311292709|-0.05543133440031546|-0.7279135382763108|-0.5817716717720032|0.8106814026832581|-0.06586117297410965|0|0|0|-1|-1|3
2021-04-09 10:01:19.308 +0100|28702.93598566667|-0.540008544921875|0.8132171630859375|-0.1376495361328125|28702.91602466667|-0.6962358955014162|-1.461457861951541|-0.9440225308475123|0.1242227405309677|-0.6043964028358459|-0.05959237739443779|0.04302418231964111|0.003934323787689209|-0.08405172824859619|XArbitraryZVertical|0.5210626889194764|0.4432742960482796|-0.05899800546213367|-0.7269944850422789|-0.5830326080322266|0.8099240064620972|-0.06400314718484879|0|0|0|-1|-1|3
2021-04-09 10:01:19.327 +0100|28702.95594666667|-0.5613555908203125|0.8605804443359375|-0.1375885009765625|28702.93598566667|-0.6889290407100596|-1.465865304108474|-0.9429639820184474|0.09541738778352737|-0.6058975458145142|-0.05405788123607635|0.04767757654190063|-0.01418215036392212|-0.07832300662994385|XArbitraryZVertical|0.5190271774330608|0.4470452919460306|-0.06244096268706463|-0.7258529299104827|-0.5841611623764038|0.8093026876449585|-0.06152259185910225|0|0|0|-1|-1|3
2021-04-09 10:01:19.347 +0100|28702.97590666667|-0.57977294921875|0.877197265625|-0.13787841796875|28702.95594666667|-0.6816359582464561|-1.47031422589478|-0.942301918257374|0.1335064917802811|-0.5875958800315857|-0.03147374466061592|0.02984762191772461|0.03238004446029663|-0.07616901397705078|XArbitraryZVertical|0.5170749951896819|0.4507161237613643|-0.06601441948371389|-0.7246589797629348|-0.5849621891975403|0.8089135885238647|-0.05897685140371323|0|0|0|-1|-1|3
2021-04-09 10:01:19.367 +0100|28702.99586766667|-0.58544921875|0.871856689453125|-0.1322021484375|28702.97590666667|-0.6733173815991024|-1.473674240328376|-0.9424858049405345|0.1763229817152023|-0.5559279918670654|0.01333882287144661|0.01613098382949829|0.05825763940811157|-0.08204030990600586|XArbitraryZVertical|0.5151271710897525|0.4540326952924815|-0.06995549793946944|-0.723605331964765|-0.585008978843689|0.8090217113494873|-0.05699661746621132|0|0|0|-1|-1|3
2021-04-09 10:01:19.387 +0100|28703.01582866667|-0.59552001953125|0.852020263671875|-0.117950439453125|28702.99586766667|-0.6635057980387946|-1.47521190180194|-0.9434023611493958|0.2311180531978607|-0.509958803653717|0.05660365149378777|0.002494335174560547|0.06379228830337524|-0.08221721649169922|XArbitraryZVertical|0.5130770150980469|0.4568794907412433|-0.07420857496130817|-0.7228460060855386|-0.5843576192855835|0.8095601201057434|-0.05602621659636497|0|0|0|-1|-1|3
2021-04-09 10:01:19.407 +0100|28703.03578966667|-0.615936279296875|0.8772125244140625|-0.098541259765625|28703.01582866667|-0.6522351717205239|-1.474675219249275|-0.9447378626505516|0.2641125321388245|-0.4659666419029236|0.08125892281532288|-0.008286654949188232|0.05249565839767456|-0.07253175973892212|XArbitraryZVertical|0.5108668899140718|0.4592352600448117|-0.07859467411884433|-0.7224547961668681|-0.5832505822181702|0.8103433847427368|-0.05623599514365196|0|0|0|-1|-1|3
2021-04-09 10:01:19.427 +0100|28703.05575066667|-0.6298980712890625|0.8544158935546875|-0.0867919921875|28703.03578966667|-0.6397185203452014|-1.472261252262686|-0.9466102237034357|0.3245066404342651|-0.400488406419754|0.1012448817491531|-0.02560579776763916|0.05738145112991333|-0.0520167350769043|XArbitraryZVertical|0.5085791098143841|0.4610857592575278|-0.08313181738819705|-0.722382468385566|-0.5816023349761963|0.811439037322998|-0.05749442428350449|0|0|0|-1|-1|3
2021-04-09 10:01:19.447 +0100|28703.07571066667|-0.6205596923828125|0.811614990234375|-0.0949859619140625|28703.05575066667|-0.6253533390755157|-1.467061417940871|-0.948802830886873|0.3662961721420288|-0.3319735825061798|0.1164567768573761|-0.04593300819396973|0.05633085966110229|-0.03169107437133789|XArbitraryZVertical|0.506068599542734|0.4623070676072575|-0.08774001899336975|-0.7228198784750082|-0.5795245170593262|0.8127185702323914|-0.0603334940969944|0|0|0|-1|-1|3
2021-04-09 10:01:19.467 +0100|28703.09567166667|-0.6152496337890625|0.779998779296875|-0.0889129638671875|28703.07571066667|-0.6098750070315307|-1.459667154148301|-0.9510413999695573|0.3881779909133911|-0.2746604681015015|0.1329596787691116|-0.05241590738296509|0.02136772871017456|-0.02536648511886597|XArbitraryZVertical|0.5034223800625648|0.462988534210504|-0.09222056269605736|-0.723673331693544|-0.5772531032562256|0.8140208125114441|-0.06441505253314972|0|0|0|-1|-1|3
2021-04-09 10:01:19.487 +0100|28703.11563266667|-0.608795166015625|0.7709808349609375|-0.084442138671875|28703.09567166667|-0.594555647192351|-1.451474786344679|-0.9532153143259259|0.3666955530643463|-0.2224594950675964|0.1420088261365891|-0.0453830361366272|-0.024463951587677|-0.02312403172254562|XArbitraryZVertical|0.5008516860786387|0.46333794494233|-0.09643481056846866|-0.7246833715189434|-0.5749475359916687|0.8152815699577332|-0.06893107295036316|0|0|0|-1|-1|3
2021-04-09 10:01:19.507 +0100|28703.13559366667|-0.613800048828125|0.77044677734375|-0.0750579833984375|28703.11563266667|-0.5810291200310519|-1.444080737234985|-0.9550578557579221|0.3213189244270325|-0.1904838681221008|0.1255160421133041|-0.03807657957077026|-0.04394698143005371|-0.0145481750369072|XArbitraryZVertical|0.4985861993538804|0.4635910108783169|-0.1001022953367125|-0.7255857757763574|-0.5729308128356934|0.8163471817970276|-0.07299035042524338|0|0|0|-1|-1|3
2021-04-09 10:01:19.527 +0100|28703.15555466667|-0.6080474853515625|0.7676544189453125|-0.080047607421875|28703.13559366667|-0.5700547510099871|-1.438382531207892|-0.9562906369583155|0.2597668766975403|-0.1505654901266098|0.09246702492237091|-0.03672248125076294|-0.04735904932022095|-0.005466639995574951|XArbitraryZVertical|0.4966720497382686|0.4639573326907171|-0.1030744275939793|-0.7262481057211824|-0.5715078711509705|0.8170585632324219|-0.07612093538045883|0|0|0|-1|-1|3
2021-04-09 10:01:19.547 +0100|28703.17551466667|-0.6093292236328125|0.7761993408203125|-0.0833587646484375|28703.15555466667|-0.5619313614352512|-1.434311523006959|-0.9566495627480425|0.1959153413772583|-0.110099233686924|0.065084308385849|-0.04387372732162476|-0.05299806594848633|0.003456957638263702|XArbitraryZVertical|0.4950986281537701|0.464406988764541|-0.105133912466435|-0.7267396261607935|-0.5709025859832764|0.8172654509544373|-0.07840699702501297|0|0|0|-1|-1|3
2021-04-09 10:01:19.567 +0100|28703.19547566667|-0.5963287353515625|0.7854461669921875|-0.0900115966796875|28703.17551466667|-0.5553853858555057|-1.430718911150426|-0.9561730533873353|0.166289746761322|-0.06806672364473343|0.04447188600897789|-0.03380948305130005|-0.04410207271575928|-0.002967782318592072|XArbitraryZVertical|0.4936344323729768|0.4648323286062099|-0.1064689929296129|-0.7272692478997834|-0.5710030198097229|0.8169907331466675|-0.0805119052529335|0|0|0|-1|-1|3
2021-04-09 10:01:19.587 +0100|28703.21543666667|-0.585052490234375|0.7719573974609375|-0.0916900634765625|28703.19547566667|-0.5496452920775581|-1.426980841097169|-0.9553470608026714|0.1554827690124512|-0.03423291072249413|0.03620285913348198|-0.03340107202529907|-0.03343260288238525|-0.004399307072162628|XArbitraryZVertical|0.4922672166622643|0.4650825222969401|-0.1073655713554984|-0.7279039014919328|-0.5713656544685364|0.8165141344070435|-0.08274246752262115|0|0|0|-1|-1|3
2021-04-09 10:01:19.607 +0100|28703.23539766667|-0.5761871337890625|0.7751922607421875|-0.083251953125|28703.21543666667|-0.545118117282842|-1.423686942211517|-0.9543263045404859|0.1019459590315819|-0.00743149733170867|0.0136910704895854|-0.02398723363876343|-0.03722220659255981|-0.004241943359375|XArbitraryZVertical|0.4911027777039113|0.4652364883748514|-0.1078708745449679|-0.7285170452835317|-0.5719140768051147|0.8159244060516357|-0.08474614471197128|0|0|0|-1|-1|3
2021-04-09 10:01:19.627 +0100|28703.25535766667|-0.5669403076171875|0.7935333251953125|-0.0832366943359375|28703.23539766667|-0.5433197155926732|-1.422394079932201|-0.9529809189527922|0.03513051196932793|0.001887968275696039|-0.0008189850486814976|-0.004121661186218262|-0.05278569459915161|-0.0001360252499580383|XArbitraryZVertical|0.4903721683266775|0.4655225767355113|-0.1077700747801539|-0.7288413563931655|-0.5728893280029297|0.8151458501815796|-0.08564773201942444|0|0|0|-1|-1|3
2021-04-09 10:01:19.647 +0100|28703.27531866667|-0.5610809326171875|0.8155364990234375|-0.091033935546875|28703.25535766667|-0.5424717223428731|-1.421620729274762|-0.9515254028070183|0.02821837365627289|0.009377948939800262|-0.01999729685485363|0.002691328525543213|-0.01472568511962891|0.005121894180774689|XArbitraryZVertical|0.4898025811769451|0.4657895948196141|-0.107415290950117|-0.7291060080768275|-0.5739954113960266|0.8143018484115601|-0.08626697212457657|0|0|0|-1|-1|3
2021-04-09 10:01:19.667 +0100|28703.29527966667|-0.56011962890625|0.8219146728515625|-0.09912109375|28703.27531866667|-0.5421739249623689|-1.421491748920084|-0.9500907802014785|0.01486491784453392|-0.01038520969450474|-0.0191923975944519|0.01402765512466431|-0.01369380950927734|-0.0005355402827262878|XArbitraryZVertical|0.4893318166402133|0.4661512967778963|-0.1070247643406744|-0.7292483516363111|-0.5751388669013977|0.8134682774543762|-0.0865146815776825|0|0|0|-1|-1|3
2021-04-09 10:01:19.687 +0100|28703.31524066667|-0.548065185546875|0.79656982421875|-0.1019134521484375|28703.29527966667|-0.5412696336655363|-1.421003793764571|-0.9489453914170828|0.04180959984660149|-0.01604080572724342|-0.01528252474963665|0.01142734289169312|0.01860445737838745|-0.0007262825965881348|XArbitraryZVertical|0.4888207604140503|0.4664623339052998|-0.1068619577696189|-0.729416082416935|-0.5760175585746765|0.8128015995025635|-0.08693431317806244|0|0|0|-1|-1|3
2021-04-09 10:01:19.707 +0100|28703.33520166667|-0.541839599609375|0.796966552734375|-0.1130218505859375|28703.31524066667|-0.5404767284413504|-1.421006589506248|-0.947891870147993|0.0009218554478138685|-0.04481396824121475|-0.02020351216197014|0.03003519773483276|-0.008354008197784424|-0.01608782261610031|XArbitraryZVertical|0.4883351826469813|0.4669031307600253|-0.1068085905884175|-0.7294671051350484|-0.5768641829490662|0.8121874332427979|-0.08706042915582657|0|0|0|-1|-1|3
2021-04-09 10:01:19.727 +0100|28703.35516166667|-0.5513916015625|0.83428955078125|-0.1110382080078125|28703.33520166667|-0.5418340225269601|-1.423296274874931|-0.9472491921885624|-0.06050080806016922|-0.07441005110740662|-0.02844599634408951|0.02728545665740967|-0.02036911249160767|-0.02116214483976364|XArbitraryZVertical|0.4883468821174716|0.4675567257207428|-0.1066632296923019|-0.7290617961369804|-0.5775781869888306|0.8118123412132263|-0.08581606298685074|0|0|0|-1|-1|3
2021-04-09 10:01:19.747 +0100|28703.37512266667|-0.56072998046875|0.8474273681640625|-0.1143951416015625|28703.35516166667|-0.5442260022605517|-1.426869249421493|-0.946942680861006|-0.06170454248785973|-0.08972940593957901|-0.02390477433800697|0.03175616264343262|0.001263797283172607|-0.02717321366071701|XArbitraryZVertical|0.4886289157361907|0.4683460455825921|-0.1065642880293933|-0.728380337736987|-0.5781273245811462|0.811633288860321|-0.08378753066062927|0|0|0|-1|-1|3
2021-04-09 10:01:19.767 +0100|28703.39508366667|-0.5588531494140625|0.8461456298828125|-0.124267578125|28703.37512266667|-0.5456833340675795|-1.429770834266754|-0.9470507161512427|-0.03291124105453491|-0.09349378943443298|-0.01558985188603401|0.0208473801612854|0.03745555877685547|-0.02803944796323776|XArbitraryZVertical|0.4888463104423302|0.4690208933387951|-0.1067781454236207|-0.7277686704099828|-0.5782812237739563|0.8116964101791382|-0.0820973739027977|0|0|0|-1|-1|3
2021-04-09 10:01:19.787 +0100|28703.41504466667|-0.5533599853515625|0.842559814453125|-0.125|28703.39508366667|-0.5457934894549973|-1.431572139640978|-0.947243460621188|-0.007818722166121006|-0.1017893701791763|-0.008091988041996956|0.02216696739196777|0.03880786895751953|-0.04015027731657028|XArbitraryZVertical|0.4888303548717594|0.4696040347714369|-0.1072414517310391|-0.7273350970997441|-0.5782732367515564|0.8118090033531189|-0.08103387057781219|0|0|0|-1|-1|3
2021-04-09 10:01:19.807 +0100|28703.43500566667|-0.55792236328125|0.820831298828125|-0.128509521484375|28703.41504466667|-0.5451200547581394|-1.432745780292872|-0.9475305990354681|6.371852941811085e-05|-0.1057583391666412|0.005236067343503237|0.02161866426467896|0.02673834562301636|-0.04151725023984909|XArbitraryZVertical|0.4886902738537459|0.4701279565400857|-0.1078672049290067|-0.7269981398679429|-0.5781369805335999|0.8119766116142273|-0.08032304048538208|0|0|0|-1|-1|3
2021-04-09 10:01:19.827 +0100|28703.45496566667|-0.56719970703125|0.8496246337890625|-0.1270294189453125|28703.43500566667|-0.5445145868767762|-1.434013376179024|-0.948091704895981|-0.0301295705139637|-0.1213746890425682|0.0105024678632617|0.02335894107818604|0.01493632793426514|-0.04765283316373825|XArbitraryZVertical|0.4886379615921384|0.4706048816819486|-0.1085809039127785|-0.7266183251680973|-0.5777867436408997|0.8123040199279785|-0.07952797412872314|0|0|0|-1|-1|3
2021-04-09 10:01:19.846 +0100|28703.47492666667|-0.56951904296875|0.8381805419921875|-0.1334381103515625|28703.45496566667|-0.5445784775435363|-1.436102917854033|-0.9490689312476971|-0.01850919984281063|-0.1195304989814758|0.01392329856753349|0.01527547836303711|0.022530198097229|-0.04876863211393356|XArbitraryZVertical|0.4888150966482275|0.4711187362306884|-0.1093887670090849|-0.7260448530268274|-0.577164888381958|0.8128735423088074|-0.0782138779759407|0|0|0|-1|-1|3
2021-04-09 10:01:19.866 +0100|28703.49488766667|-0.563507080078125|0.8328857421875|-0.1307830810546875|28703.47492666667|-0.5437192065391293|-1.437266965420386|-0.950115190188997|-0.006355681456625462|-0.1163149476051331|0.02440186217427254|0.009151935577392578|0.03830933570861816|-0.05176627635955811|XArbitraryZVertical|0.4888437590895651|0.4715054809832037|-0.1103284190684026|-0.7256322513977435|-0.5764124393463135|0.8134825229644775|-0.07742872089147568|0|0|0|-1|-1|3
2021-04-09 10:01:19.887 +0100|28703.51484866667|-0.56243896484375|0.8130035400390625|-0.12359619140625|28703.49488766667|-0.5420003428739133|-1.43770526239403|-0.9512437230818253|0.02742188796401024|-0.1203286498785019|0.03910348564386368|0.009557247161865234|0.02150964736938477|-0.05858004093170166|XArbitraryZVertical|0.4887322925042538|0.4718195053157648|-0.1114294007890078|-0.7253349221352438|-0.5755360126495361|0.8141383528709412|-0.07705420255661011|0|0|0|-1|-1|3
2021-04-09 10:01:19.906 +0100|28703.53480966667|-0.5630950927734375|0.7997589111328125|-0.1217498779296875|28703.51484866667|-0.5391834490136299|-1.437204776930039|-0.9524170486855986|0.03809712082147598|-0.1243190765380859|0.03950047492980957|0.006831943988800049|0.01014775037765503|-0.04598336666822433|XArbitraryZVertical|0.4884266356936009|0.4720507946049203|-0.1127135654876682|-0.7251918462869322|-0.5745501518249512|0.8148190975189209|-0.07721494138240814|0|0|0|-1|-1|3
2021-04-09 10:01:19.926 +0100|28703.55476966667|-0.557830810546875|0.7877044677734375|-0.12725830078125|28703.53480966667|-0.5366747524522008|-1.437247344591327|-0.953308806365843|0.01256810873746872|-0.1421814858913422|0.02615573070943356|0.01171475648880005|-0.01830786466598511|-0.04676079005002975|XArbitraryZVertical|0.4880836030877645|0.4724696292109717|-0.1139258453782053|-0.7249605569101012|-0.5738329887390137|0.815335750579834|-0.0770936906337738|0|0|0|-1|-1|3
2021-04-09 10:01:19.946 +0100|28703.57473066667|-0.574066162109375|0.831390380859375|-0.1246337890625|28703.55476966667|-0.5353439685566048|-1.438548895082311|-0.9539503142253754|-0.02270226366817951|-0.1578180640935898|0.001643107505515218|0.01559913158416748|-0.02139502763748169|-0.0508115291595459|XArbitraryZVertical|0.4878756300759239|0.4731157091849641|-0.1149359125252511|-0.7245197013597041|-0.5734144449234009|0.8157069683074951|-0.07627779245376587|0|0|0|-1|-1|3
2021-04-09 10:01:19.966 +0100|28703.59469166667|-0.582427978515625|0.8670654296875|-0.13104248046875|28703.57473066667|-0.5348888315298348|-1.440630527088376|-0.9541206265581785|-0.02569913677871227|-0.1500699818134308|-0.01137566659599543|0.00704348087310791|-0.01455080509185791|-0.05089420080184937|XArbitraryZVertical|0.487695906094063|0.4739406335620665|-0.1156642863770675|-0.723985450694646|-0.5734342336654663|0.8158054947853088|-0.07506595551967621|0|0|0|-1|-1|3
2021-04-09 10:01:19.986 +0100|28703.61465266667|-0.5925750732421875|0.88128662109375|-0.135162353515625|28703.59469166667|-0.5332248394506849|-1.441515274054389|-0.9539940410992377|0.04253925755620003|-0.1333555579185486|-0.01458530873060226|-0.006642818450927734|0.04008787870407104|-0.05472993850708008|XArbitraryZVertical|0.4872142264289725|0.4746960531375786|-0.116440579581595|-0.7236903927258628|-0.5736029148101807|0.8157323002815247|-0.07457190752029419|0|0|0|-1|-1|3
2021-04-09 10:01:20.006 +0100|28703.63461366667|-0.574066162109375|0.851593017578125|-0.1422271728515625|28703.61465266667|-0.5288705203843378|-1.439666446264111|-0.9535444778259183|0.1297292709350586|-0.09342204034328461|-0.009768271818757057|-0.01842707395553589|0.0665166974067688|-0.05629193037748337|XArbitraryZVertical|0.486161360731113|0.4751915854735375|-0.1174191512221185|-0.7239149645316747|-0.5738272666931152|0.8154721260070801|-0.07568017393350601|0|0|0|-1|-1|3
2021-04-09 10:01:20.026 +0100|28703.65457366667|-0.5733184814453125|0.8404388427734375|-0.14300537109375|28703.63461366667|-0.5221601547722888|-1.435370738292292|-0.9529086901552419|0.1633376032114029|-0.08299325406551361|-0.003564171493053436|-0.008966326713562012|0.04518693685531616|-0.06308078765869141|XArbitraryZVertical|0.4846397100404582|0.4754125697851977|-0.1185984056531134|-0.7245977137047733|-0.5740107297897339|0.8151040077209473|-0.07821448147296906|0|0|0|-1|-1|3
2021-04-09 10:01:20.046 +0100|28703.67453466667|-0.57537841796875|0.85406494140625|-0.1360931396484375|28703.65457366667|-0.5159109785331688|-1.431172669750775|-0.9523819409910369|0.1148245111107826|-0.06813932210206985|0.007185589522123337|-0.002954304218292236|0.02737998962402344|-0.06024574488401413|XArbitraryZVertical|0.4832539302089929|0.4755249868960931|-0.1196757731338651|-0.7252720009485071|-0.5741023421287537|0.8147987127304077|-0.08068325370550156|0|0|0|-1|-1|3
2021-04-09 10:01:20.066 +0100|28703.69449566667|-0.6021881103515625|0.9093780517578125|-0.1214141845703125|28703.67453466667|-0.511724076787484|-1.428605582581514|-0.9524188893635022|0.05432038381695747|-0.06940778344869614|-0.001156052108854055|0.005199134349822998|0.03349262475967407|-0.06043976545333862|XArbitraryZVertical|0.482423159664271|0.4755961086819583|-0.1205867926136409|-0.7256274062746068|-0.5738634467124939|0.8148201704025269|-0.08215247094631195|0|0|0|-1|-1|3
2021-04-09 10:01:20.086 +0100|28703.71445666667|-0.6092681884765625|0.9506988525390625|-0.137786865234375|28703.69449566667|-0.5095921317747313|-1.427497408518974|-0.9525891760222932|0.01280719414353371|-0.04398103803396225|-0.01225326769053936|-0.01610177755355835|0.06026476621627808|-0.04311526566743851|XArbitraryZVertical|0.4820319433602959|0.4756689079782718|-0.121148457109047|-0.7257462472769454|-0.5736349821090698|0.8149188756942749|-0.08276858925819397|0|0|0|-1|-1|3
2021-04-09 10:01:20.106 +0100|28703.73441766667|-0.594451904296875|0.9605255126953125|-0.167327880859375|28703.71445666667|-0.5077842838810686|-1.426090285237291|-0.9526012552945631|0.0240775253623724|-0.02636896818876266|-0.001811988651752472|-0.03691953420639038|0.1225745677947998|-0.04188239574432373|XArbitraryZVertical|0.4816908574562559|0.475590998031169|-0.1214695368267326|-0.7259699971208077|-0.573508083820343|0.8149258494377136|-0.08357424288988113|0|0|0|-1|-1|3
2021-04-09 10:01:20.126 +0100|28703.75437766667|-0.57977294921875|0.94244384765625|-0.19708251953125|28703.73441766667|-0.5056126998423629|-1.424497181376759|-0.9529798591027825|0.05531390756368637|-0.02441239729523659|0.04355726763606071|-0.02744036912918091|0.1466320753097534|-0.06957823783159256|XArbitraryZVertical|0.4813804692410302|0.4754486559480289|-0.1219972134172027|-0.7261806895645185|-0.5730690956115723|0.8151452541351318|-0.08444283902645111|0|0|0|-1|-1|3
2021-04-09 10:01:20.146 +0100|28703.77433866667|-0.5749053955078125|0.9310455322265625|-0.202392578125|28703.75437766667|-0.5028003799259024|-1.422399724268955|-0.954253873814448|0.08969832956790924|0.00110169593244791|0.1041627377271652|-0.01672935485839844|0.1378837823867798|-0.09402751922607422|XArbitraryZVertical|0.4812080406169655|0.4750719210493795|-0.1229270124902301|-0.7263845793206815|-0.5718628764152527|0.8158825635910034|-0.08549097925424576|0|0|0|-1|-1|3
2021-04-09 10:01:20.166 +0100|28703.79429966667|-0.577056884765625|0.9543914794921875|-0.1824798583984375|28703.77433866667|-0.498635277164288|-1.418887575011816|-0.9564095149881254|0.1087389960885048|0.01824750006198883|0.1373241543769836|0.0001479387283325195|0.1136595010757446|-0.1158912181854248|XArbitraryZVertical|0.4810595509829366|0.474305193230683|-0.1242929640830394|-0.726751479476141|-0.5698193907737732|0.8171270489692688|-0.08723258227109909|0|0|0|-1|-1|3
2021-04-09 10:01:20.186 +0100|28703.81426066667|-0.580230712890625|0.9730224609375|-0.1702117919921875|28703.79429966667|-0.4936141066023882|-1.414081596795764|-0.9590741728082|0.1480867266654968|0.05574406310915947|0.1734690219163895|-0.006962478160858154|0.118168830871582|-0.1037130355834961|XArbitraryZVertical|0.4809432851380973|0.4731580989418608|-0.1258225637968716|-0.7273126877217293|-0.5672407150268555|0.8186602592468262|-0.08962994068861008|0|0|0|-1|-1|3
2021-04-09 10:01:20.206 +0100|28703.83422166667|-0.562347412109375|0.9488525390625|-0.176971435546875|28703.81426066667|-0.4862263516428336|-1.406322770140406|-0.9623143960998963|0.2209046334028244|0.1130772307515144|0.2166378796100616|-0.01966351270675659|0.1573889851570129|-0.08261382579803467|XArbitraryZVertical|0.4806343300640616|0.4713744530592358|-0.1276875081883065|-0.728349415658967|-0.5639086365699768|0.8205167055130005|-0.093593530356884|0|0|0|-1|-1|3
2021-04-09 10:01:20.226 +0100|28703.85418166667|-0.5476226806640625|0.9007415771484375|-0.1912841796875|28703.83422166667|-0.4759008782394559|-1.395327216174226|-0.9663337229112926|0.297485888004303|0.1395632773637772|0.2780079245567322|-0.01311439275741577|0.133247435092926|-0.07646165788173676|XArbitraryZVertical|0.4800947775636114|0.4689383403077037|-0.1300951318088653|-0.7298500960089632|-0.5595933794975281|0.8228076100349426|-0.0992116779088974|0|0|0|-1|-1|3
2021-04-09 10:01:20.245 +0100|28703.8741435|-0.532012939453125|0.8672027587890625|-0.2053985595703125|28703.85418166667|-0.462874992923921|-1.381355622740322|-0.9710711662303744|0.3347778618335724|0.1749148815870285|0.3233855366706848|-0.007281363010406494|0.105234682559967|-0.07355402410030365|XArbitraryZVertical|0.4793723998149065|0.4658966108630531|-0.1330049915863716|-0.731745945750895|-0.5543180704116821|0.8254907727241516|-0.1062849014997482|0|0|0|-1|-1|3
2021-04-09 10:01:20.266 +0100|28703.8941045|-0.54248046875|0.8682098388671875|-0.2025909423828125|28703.8741435|-0.4491672114335164|-1.366371979096875|-0.9763380996979379|0.3205060064792633|0.1864045560359955|0.3428521752357483|0.01122856140136719|0.04779970645904541|-0.08787323534488678|XArbitraryZVertical|0.4787751089102224|0.4625227368586862|-0.1360909841735139|-0.7337074168468695|-0.5483987927436829|0.8284520506858826|-0.1136942282319069|0|0|0|-1|-1|3
2021-04-09 10:01:20.286 +0100|28703.9140655|-0.5444793701171875|0.8819732666015625|-0.1937713623046875|28703.8941045|-0.4356216222824063|-1.351072948164878|-0.9818171856552594|0.3072355985641479|0.2221814543008804|0.3538948893547058|0.008389651775360107|0.03349786996841431|-0.08498944342136383|XArbitraryZVertical|0.478364771958701|0.4589416509276913|-0.1391079690679315|-0.7356554781965239|-0.5421571731567383|0.8315082192420959|-0.1210794150829315|0|0|0|-1|-1|3
2021-04-09 10:01:20.305 +0100|28703.9340265|-0.5374298095703125|0.8880462646484375|-0.1861114501953125|28703.9140655|-0.4216344483410977|-1.334559301289926|-0.9874536212757425|0.3282052278518677|0.2655893266201019|0.3676942586898804|-0.00615304708480835|0.0478510856628418|-0.06709681451320648|XArbitraryZVertical|0.478053475525418|0.4549798422929899|-0.1420433281013408|-0.7377546985699711|-0.5355184078216553|0.8346260786056519|-0.1289164423942566|0|0|0|-1|-1|3
2021-04-09 10:01:20.325 +0100|28703.9539865|-0.5152587890625|0.8513641357421875|-0.196502685546875|28703.9340265|-0.4059574542102382|-1.315671467357671|-0.9931463043724763|0.3746380507946014|0.3148819506168365|0.3913773000240326|-0.01585292816162109|0.04724681377410889|-0.04935681819915771|XArbitraryZVertical|0.4776217575525178|0.4505266804677324|-0.1450499356459842|-0.7401782266597317|-0.5283820629119873|0.8377481698989868|-0.1378063410520554|0|0|0|-1|-1|3
2021-04-09 10:01:20.345 +0100|28703.9739475|-0.504913330078125|0.8327484130859375|-0.2056884765625|28703.9539865|-0.3884340128991742|-1.294330469102812|-0.9987236964388978|0.3915850222110748|0.3460934162139893|0.3999840021133423|-0.004557251930236816|0.03266328573226929|-0.04390715062618256|XArbitraryZVertical|0.4770088801937739|0.4456189403531451|-0.1481213843310086|-0.7429309501894141|-0.520817756652832|0.8407807350158691|-0.1477725803852081|0|0|0|-1|-1|3
2021-04-09 10:01:20.365 +0100|28703.9939085|-0.4984588623046875|0.82244873046875|-0.2067718505859375|28703.9739475|-0.3708349730119481|-1.272266582152188|-1.004352280470504|0.3652322292327881|0.3794916570186615|0.4081486165523529|0.003408968448638916|-0.008074939250946045|-0.04375016689300537|XArbitraryZVertical|0.4765503245696782|0.4404355615861152|-0.1510666355599477|-0.7457180084346747|-0.5128997564315796|0.8438145518302917|-0.157832607626915|0|0|0|-1|-1|3
2021-04-09 10:01:20.385 +0100|28704.0138695|-0.494720458984375|0.8397369384765625|-0.2064361572265625|28703.9939085|-0.352586492333095|-1.248508349005672|-1.009629898963155|0.3509707748889923|0.4263074696063995|0.4106939136981964|0.004133522510528564|-0.01895207166671753|-0.03505264222621918|XArbitraryZVertical|0.4760696935992702|0.4348308671273796|-0.153751627793852|-0.748759106843269|-0.5047741532325745|0.8466349244117737|-0.1685595214366913|0|0|0|-1|-1|3
2021-04-09 10:01:20.405 +0100|28704.0338295|-0.4753570556640625|0.8114013671875|-0.2103271484375|28704.0138695|-0.3343998972160007|-1.224184898019694|-1.014944303291233|0.3789727985858917|0.457398921251297|0.4423111379146576|-0.001073181629180908|-0.02143245935440063|-0.02618783712387085|XArbitraryZVertical|0.4757660038455098|0.4289743763104554|-0.1562927043934524|-0.7517981814558102|-0.4962868094444275|0.8494511842727661|-0.1792553812265396|0|0|0|-1|-1|3
2021-04-09 10:01:20.425 +0100|28704.0537905|-0.465087890625|0.7900543212890625|-0.21533203125|28704.0338295|-0.3142719658092707|-1.197636563893947|-1.020242283153624|0.4137051403522491|0.4908618032932281|0.4572592675685883|0.0005687475204467773|-0.01777690649032593|-0.01423203945159912|XArbitraryZVertical|0.4753317279903457|0.4227272042606989|-0.1590334452305746|-0.7550298350097554|-0.4871560037136078|0.8522347807884216|-0.1907229125499725|0|0|0|-1|-1|3
2021-04-09 10:01:20.445 +0100|28704.0737515|-0.46038818359375|0.785980224609375|-0.2080230712890625|28704.0537905|-0.2932437929852065|-1.169831096911405|-1.024781190349885|0.410137951374054|0.505199670791626|0.4241845905780792|0.009150713682174683|-0.05723679065704346|-0.0110323429107666|XArbitraryZVertical|0.4746795700860933|0.4163396889850193|-0.1616171311205271|-0.7584330339169675|-0.4780988395214081|0.8546006083488464|-0.2026811391115189|0|0|0|-1|-1|3
2021-04-09 10:01:20.465 +0100|28704.0937125|-0.4607086181640625|0.8189697265625|-0.2090301513671875|28704.0737515|-0.2735083529885165|-1.142829977738124|-1.028442198464524|0.3646902441978455|0.515764594078064|0.3895315229892731|0.007398992776870728|-0.07698506116867065|0.0007455497980117798|XArbitraryZVertical|0.4740506254873209|0.4100836026418483|-0.1636827622597141|-0.7617843867251303|-0.4696027338504791|0.8564959764480591|-0.2142148911952972|0|0|0|-1|-1|3
2021-04-09 10:01:20.485 +0100|28704.1136735|-0.447540283203125|0.814910888671875|-0.221435546875|28704.0937125|-0.2551442518815777|-1.116847000042881|-1.031414605129951|0.3749676048755646|0.5365113019943237|0.3726610243320465|0.0004839599132537842|-0.05069857835769653|0.0158456563949585|XArbitraryZVertical|0.4734814611768267|0.4039832943876037|-0.1653054694748705|-0.7650406189853961|-0.4615890979766846|0.858026385307312|-0.2252256125211716|0|0|0|-1|-1|3
2021-04-09 10:01:20.505 +0100|28704.1336335|-0.438568115234375|0.7893524169921875|-0.226348876953125|28704.1136735|-0.2363574821196587|-1.090354209804663|-1.033970019418009|0.402214527130127|0.5347024202346802|0.3665252029895782|0.001046180725097656|-0.04024386405944824|0.0219443142414093|XArbitraryZVertical|0.4728143078945803|0.3978276115543651|-0.1668839506634409|-0.7683290982763792|-0.4535148143768311|0.8593360781669617|-0.236359640955925|0|0|0|-1|-1|3
2021-04-09 10:01:20.525 +0100|28704.1535945|-0.4242706298828125|0.761627197265625|-0.2302398681640625|28704.1336335|-0.2170917078739896|-1.063454523219176|-1.035904446964453|0.3928177952766418|0.5328837037086487|0.3666135370731354|-0.0004284679889678955|-0.05740571022033691|0.0236814022064209|XArbitraryZVertical|0.4719556444201147|0.39169609474421|-0.1684225722131168|-0.7716644872800169|-0.4455399513244629|0.8603237271308899|-0.2476640790700912|0|0|0|-1|-1|3
2021-04-09 10:01:20.545 +0100|28704.1735555|-0.399627685546875|0.7527923583984375|-0.2291412353515625|28704.1535945|-0.1986494334067265|-1.037379079818936|-1.037505616983228|0.3642671406269073|0.5324168801307678|0.3484307825565338|0.008423388004302979|-0.08260440826416016|0.03211712837219238|XArbitraryZVertical|0.4711539006157409|0.3857023552244411|-0.169787562921144|-0.774867736060315|-0.4377444684505463|0.8611388206481934|-0.2584953904151917|0|0|0|-1|-1|3
2021-04-09 10:01:20.565 +0100|28704.1935165|-0.3955230712890625|0.772613525390625|-0.2345733642578125|28704.1735555|-0.1824112465427536|-1.013664790149394|-1.039046885827096|0.3217545449733734|0.5004065632820129|0.3151127696037292|0.02081930637359619|-0.1011327505111694|0.03700730204582214|XArbitraryZVertical|0.470627224883374|0.3800785871079006|-0.1708654314534881|-0.7777246275284179|-0.430365115404129|0.8619213700294495|-0.2681005597114563|0|0|0|-1|-1|3
2021-04-09 10:01:20.585 +0100|28704.2134775|-0.40203857421875|0.79150390625|-0.2446746826171875|28704.1935165|-0.1656466170539805|-0.9894417658062847|-1.040944482325049|0.2947710752487183|0.4791354835033417|0.2969653904438019|0.02754110097885132|-0.1066558361053467|0.04898655414581299|XArbitraryZVertical|0.470242500660222|0.374297465338463|-0.1721284150052491|-0.7804776244983903|-0.4223774075508118|0.8628819584846497|-0.2775467932224274|0|0|0|-1|-1|3
2021-04-09 10:01:20.605 +0100|28704.2334375|-0.4034423828125|0.7811279296875|-0.2417755126953125|28704.2134775|-0.1498268594983283|-0.9662879940633624|-1.042413561061357|0.287065714597702|0.4760069251060486|0.2677582502365112|0.01622027158737183|-0.08212894201278687|0.04597654938697815|XArbitraryZVertical|0.4698499040216235|0.368749159238078|-0.1731945967856277|-0.7831147537655919|-0.4147948920726776|0.8636234998703003|-0.2865302562713623|0|0|0|-1|-1|3
2021-04-09 10:01:20.625 +0100|28704.2533985|-0.3978118896484375|0.786773681640625|-0.2508544921875|28704.2334375|-0.1355041981671504|-0.9444277816625374|-1.043564543912016|0.2341721802949905|0.4772127270698547|0.2427664250135422|0.007084250450134277|-0.08028233051300049|0.05254584550857544|XArbitraryZVertical|0.4695579462968618|0.3633763908988225|-0.1739247700709733|-0.785635600746929|-0.4076273441314697|0.8642032146453857|-0.2949458658695221|0|0|0|-1|-1|3
2021-04-09 10:01:20.645 +0100|28704.2733595|-0.3709259033203125|0.7884674072265625|-0.2713775634765625|28704.2533985|-0.1234470562826614|-0.9246308478805766|-1.0445713564569|0.1887006908655167|0.4644493758678436|0.1980353593826294|0.002820730209350586|-0.07831656932830811|0.05675256252288818|XArbitraryZVertical|0.46948720566062|0.3582808183915477|-0.1742311503299122|-0.7879468857738412|-0.4010139107704163|0.8647093176841736|-0.3024332523345947|0|0|0|-1|-1|3
2021-04-09 10:01:20.668 +0100|28704.2933205|-0.35687255859375|0.7998199462890625|-0.2838897705078125|28704.2733595|-0.1139842740481556|-0.9075616768660029|-1.045483474680004|0.1340196430683136|0.4222472310066223|0.1624083817005157|0.006835758686065674|-0.08394706249237061|0.04674053192138672|XArbitraryZVertical|0.4696374698952165|0.3536475439129171|-0.1741430764724478|-0.7899673670919718|-0.3951718211174011|0.8651670813560486|-0.3087481260299683|0|0|0|-1|-1|3
2021-04-09 10:01:20.685 +0100|28704.3132815|-0.3526611328125|0.827056884765625|-0.2904052734375|28704.2933205|-0.1068127206770003|-0.8934756916933071|-1.046458788831438|0.08965638279914856|0.369395524263382|0.1371647119522095|0.02742469310760498|-0.07019925117492676|0.03303986787796021|XArbitraryZVertical|0.469976012992964|0.3496358005292964|-0.1738655273162414|-0.7916112100236213|-0.3901259899139404|0.865655779838562|-0.3137547075748444|0|0|0|-1|-1|3
2021-04-09 10:01:20.704 +0100|28704.3332415|-0.35968017578125|0.855712890625|-0.2972259521484375|28704.3132815|-0.1011549567564666|-0.8818553788378095|-1.047410200037955|0.07753034681081772|0.3105329573154449|0.1121992617845535|0.03701725602149963|-0.05787312984466553|0.03063473105430603|XArbitraryZVertical|0.4703673537425131|0.3462413238321654|-0.173562908531058|-0.7929359895543659|-0.3858177661895752|0.8661317229270935|-0.3177430033683777|0|0|0|-1|-1|3
2021-04-09 10:01:20.726 +0100|28704.3532025|-0.362884521484375|0.873199462890625|-0.3139801025390625|28704.3332415|-0.09588908010901515|-0.8715121183382325|-1.047867328676801|0.105546697974205|0.274126410484314|0.08852873742580414|0.02510643005371094|-0.02929288148880005|0.03038620948791504|XArbitraryZVertical|0.4705330817592787|0.3433187327389506|-0.1733082400941435|-0.7941632549301448|-0.3822077214717865|0.8663601279258728|-0.3214617371559143|0|0|0|-1|-1|3
2021-04-09 10:01:20.752 +0100|28704.3731635|-0.363006591796875|0.857879638671875|-0.3145751953125|28704.3532025|-0.08973769264760531|-0.8609199552883455|-1.047213489002626|0.1702263653278351|0.2521691918373108|0.06081162393093109|0.01643332839012146|-0.002583742141723633|0.01822981238365173|XArbitraryZVertical|0.470145167480666|0.3406360992972718|-0.1731365155355493|-0.7955843532224789|-0.3792109191417694|0.8660333752632141|-0.3258611261844635|0|0|0|-1|-1|3
2021-04-09 10:01:20.764 +0100|28704.3931245|-0.364013671875|0.8496246337890625|-0.304718017578125|28704.3731635|-0.08281004727221648|-0.8499725024251994|-1.045366299492425|0.2039727568626404|0.2421253323554993|0.03221211209893227|0.01405975222587585|0.00452125072479248|0.0129493772983551|XArbitraryZVertical|0.4691977709508272|0.3381261893990025|-0.1729746008574658|-0.7972478636527592|-0.3768221735954285|0.8651083111763|-0.3310482501983643|0|0|0|-1|-1|3
2021-04-09 10:01:20.784 +0100|28704.4130855|-0.3562469482421875|0.84521484375|-0.2637939453125|28704.3931245|-0.07697874076087559|-0.8404875360649221|-1.043113781620012|0.2159718722105026|0.217805027961731|0.004766019061207771|0.009607106447219849|-0.007881343364715576|0.02549809217453003|XArbitraryZVertical|0.4681542251484723|0.3359737267797204|-0.1726582195199464|-0.7988383017089673|-0.3751160204410553|0.8639762997627258|-0.3359065651893616|0|0|0|-1|-1|3
2021-04-09 10:01:20.804 +0100|28704.4330455|-0.3444976806640625|0.934051513671875|-0.1868896484375|28704.4130855|-0.07055256412911563|-0.8311263886716921|-1.040372880405767|0.2775413990020752|0.1833815425634384|0.0002763732336461544|0.01168820261955261|-0.01057213544845581|0.04870179295539856|XArbitraryZVertical|0.4668102377740889|0.3340496632954206|-0.1725344811408611|-0.8004566907092873|-0.3737028539180756|0.8625929355621338|-0.3409980535507202|0|0|0|-1|-1|3
2021-04-09 10:01:20.824 +0100|28704.4530065|-0.277740478515625|0.89361572265625|-0.076690673828125|28704.4330455|-0.05692072625747562|-0.8169283175556956|-1.035314798659519|0.692288339138031|0.09776996821165085|0.05922278016805649|0.0266631543636322|-0.02374941110610962|0.1204925775527954|XArbitraryZVertical|0.4637739564772909|0.3320965392385938|-0.173779502725364|-0.8027616400763696|-0.3719999194145203|0.860023021697998|-0.3492512106895447|0|0|0|-1|-1|3
2021-04-09 10:01:20.844 +0100|28704.4729675|-0.0700836181640625|0.761688232421875|0.0109405517578125|28704.4530065|-0.03153189674602292|-0.7951906658163299|-1.024419096655051|1.031122446060181|-0.1048797592520714|0.02280174568295479|0.03250408172607422|0.1040536761283875|0.2201489210128784|XArbitraryZVertical|0.4571384458629756|0.3303443618659435|-0.1770758482474291|-0.8065614361376027|-0.3709896802902222|0.8544124960899353|-0.3637940883636475|0|0|0|-1|-1|3
2021-04-09 10:01:20.864 +0100|28704.4929285|-0.02532958984375|0.7764129638671875|0.00634765625|28704.4729675|-0.002470633631917711|-0.7773871362491054|-1.009801718963085|1.164727091789246|-0.6144686937332153|0.02589038945734501|0.2012546360492706|-0.03384435176849365|0.3610916435718536|XArbitraryZVertical|0.4480469068203298|0.3311383573260844|-0.1823196694143784|-0.8101610426824394|-0.3731752634048462|0.8467263579368591|-0.3792027235031128|0|0|0|-1|-1|3
2021-04-09 10:01:20.884 +0100|28704.5128895|-0.0379791259765625|1.007369995117188|-0.0753631591796875|28704.4929285|0.03144314509900771|-0.7674338910619039|-0.9929736184942031|1.419472813606262|-1.241666436195374|0.1436259895563126|0.3495902717113495|-0.1046820282936096|0.4228388071060181|XArbitraryZVertical|0.436470370456166|0.3360720542598676|-0.1911225503430835|-0.8124170918122001|-0.3792226910591125|0.8376538753509521|-0.393098384141922|0|0|0|-1|-1|3
2021-04-09 10:01:20.904 +0100|28704.5328495|0.074462890625|1.22216796875|-0.6172332763671875|28704.5128895|0.08454111765904611|-0.7544680063057566|-0.9701849504376794|2.355705976486206|-1.851790428161621|0.4507793784141541|0.3569950461387634|0.07056403160095215|0.3840776681900024|XArbitraryZVertical|0.4193466736294501|0.3438823104128405|-0.206358857465686|-0.8144382359760168|-0.3870700001716614|0.8249902725219727|-0.4117866456508636|0|0|0|-1|-1|3
2021-04-09 10:01:20.924 +0100|28704.5528105|0.0545654296875|0.9073944091796875|-1.63714599609375|28704.5328495|0.1684657540545037|-0.7259740825689976|-0.9353451097183508|3.651469707489014|-2.093280792236328|0.8095278739929199|0.3772917985916138|0.3521944284439087|0.213581383228302|XArbitraryZVertical|0.3932758830481481|0.3512739956933952|-0.2297063915791338|-0.8180315987138905|-0.3940304815769196|0.8048039674758911|-0.4438813328742981|0|0|0|-1|-1|3
2021-04-09 10:01:20.944 +0100|28704.5727715|-0.1751251220703125|0.0825653076171875|-2.209579467773438|28704.5528105|0.2800463322616671|-0.6776653518188565|-0.8810206205011525|4.827414035797119|-1.722848415374756|0.8555712699890137|0.5153030753135681|0.383824348449707|-0.6407672166824341|XArbitraryZVertical|0.356260136255913|0.3538397561406614|-0.2594073102201175|-0.8249751632033001|-0.3989850580692291|0.7713887691497803|-0.4957522749900818|0|0|0|-1|-1|3
2021-04-09 10:01:20.964 +0100|28704.5927325|-0.342529296875|-0.76031494140625|-2.316558837890625|28704.5727715|0.3892976553173928|-0.619020132428783|-0.8097382278304027|5.11375904083252|-0.5066843628883362|0.5284801125526428|0.3479828238487244|-0.187774658203125|-1.464682102203369|XArbitraryZVertical|0.3139447007868836|0.3472482647727997|-0.2870493315673874|-0.8357393709123184|-0.4001828730106354|0.7241066694259644|-0.5617147088050842|0|0|0|-1|-1|3
2021-04-09 10:01:20.984 +0100|28704.6126935|-0.5252532958984375|-0.9857940673828125|-2.168289184570312|28704.5927325|0.4670618571581028|-0.5605322950676308|-0.7301848477781008|4.41607141494751|0.8937286734580994|-0.4152500629425049|0.1139926612377167|-0.9577169418334961|-1.661762475967407|XArbitraryZVertical|0.2739985013283767|0.330765791541082|-0.3038068095561289|-0.8504235707609289|-0.3960968255996704|0.6670073866844177|-0.6310376524925232|0|0|0|-1|-1|3
2021-04-09 10:01:21.004 +0100|28704.6326535|-0.4465179443359375|-0.5570831298828125|-1.95281982421875|28704.6126935|0.4917800061481452|-0.5137901761733497|-0.6627389390732158|2.248127222061157|2.194225788116455|-1.427441000938416|-0.04491770267486572|-1.661190986633301|-1.572457075119019|XArbitraryZVertical|0.2467140393210347|0.3096244549811493|-0.3027985851461664|-0.8669360639370098|-0.3874398767948151|0.6152783036231995|-0.6865297555923462|0|0|0|-1|-1|3
2021-04-09 10:01:21.024 +0100|28704.6526145|-0.3931732177734375|0.0904388427734375|-1.881088256835938|28704.6326535|0.4648651481430568|-0.4730105602684809|-0.6254891386495504|0.07662903517484665|3.374730348587036|-2.203626394271851|-0.1750384271144867|-1.360196828842163|-1.321959018707275|XArbitraryZVertical|0.2397097770713771|0.2858437180534953|-0.2832216295630237|-0.8835259751514062|-0.3693187236785889|0.5854938626289368|-0.7216652035713196|0|0|0|-1|-1|3
2021-04-09 10:01:21.044 +0100|28704.6725755|-0.5724639892578125|0.75872802734375|-1.501358032226562|28704.6526145|0.4018786550309382|-0.4345978069811693|-0.6204750556792831|-1.832656025886536|4.05457067489624|-2.588748455047607|-0.04616904258728027|-0.8282164335250854|-1.176306009292603|XArbitraryZVertical|0.2511315840070919|0.2606687129040154|-0.2500849277195019|-0.8980214533251233|-0.3425637483596802|0.5814217329025269|-0.7379695177078247|0|0|0|-1|-1|3
2021-04-09 10:01:21.064 +0100|28704.6925365|-0.88311767578125|1.614532470703125|-0.690460205078125|28704.6725755|0.3200566864091906|-0.4008343881989437|-0.64828426618246|-3.267969131469727|4.036565780639648|-2.180367946624756|-0.1278625130653381|-0.2108743786811829|-1.01261305809021|XArbitraryZVertical|0.2780621481239501|0.2360350696070654|-0.2106200830576166|-0.9069774495160641|-0.3110260367393494|0.6038196682929993|-0.7339377999305725|0|0|0|-1|-1|3
2021-04-09 10:01:21.084 +0100|28704.7124975|-0.9824676513671875|2.02691650390625|-0.3632965087890625|28704.6925365|0.2523688085150412|-0.367361757215688|-0.6917219766718116|-2.643312215805054|3.701420068740845|-1.378559708595276|-0.242211788892746|0.5894467830657959|-0.5462508201599121|XArbitraryZVertical|0.3090287608515318|0.2124139885260423|-0.1778329861144562|-0.9098115595893543|-0.2766023874282837|0.6378642916679382|-0.7187630534172058|0|0|0|-1|-1|3
2021-04-09 10:01:21.104 +0100|28704.7324575|-0.9279937744140625|1.654922485351562|-0.5611572265625|28704.7124975|0.2099873144024104|-0.3225354557887767|-0.7249841257620915|-1.395570397377014|3.560788631439209|-0.6923171281814575|-0.7891561985015869|1.080270290374756|0.2483659386634827|XArbitraryZVertical|0.3323425800961088|0.1859891466413481|-0.1533443166835645|-0.9118344139683742|-0.2372569143772125|0.6631235480308533|-0.709912896156311|0|0|0|-1|-1|3
2021-04-09 10:01:21.124 +0100|28704.7524185|-0.84954833984375|1.141448974609375|-0.53997802734375|28704.7324575|0.191440862690666|-0.266329351534863|-0.7379272204755134|-0.3890787363052368|3.284012317657471|-0.1914903074502945|-0.788519561290741|1.302754759788513|0.2403917908668518|XArbitraryZVertical|0.3439841245003875|0.1574328677306653|-0.1360177933423216|-0.9156359179144687|-0.1947264522314072|0.6727557778358459|-0.713779628276825|0|0|0|-1|-1|3
2021-04-09 10:01:21.144 +0100|28704.7723795|-0.8030853271484375|0.827362060546875|-0.21649169921875|28704.7524185|0.1925809097250304|-0.2027100352748979|-0.7424872955833719|-0.1280470490455627|2.958695650100708|0.3266236782073975|-0.7599153518676758|0.6904553771018982|0.1210874319076538|XArbitraryZVertical|0.3501758749926802|0.1285507557963945|-0.1256685138714761|-0.9192709929964636|-0.148333802819252|0.6761226058006287|-0.7217031121253967|0|0|0|-1|-1|3
2021-04-09 10:01:21.164 +0100|28704.7923405|-0.7632598876953125|0.8487548828125|-0.057098388671875|28704.7723795|0.205736193297541|-0.1406840741333142|-0.7488929186622105|-0.3657212257385254|2.345921039581299|0.7272131443023682|-0.7021978497505188|0.2174422144889832|0.3289062976837158|XArbitraryZVertical|0.3562069958754482|0.1025338329936368|-0.1209062828500339|-0.9208611028810849|-0.1027035117149353|0.680828332901001|-0.7252067923545837|0|0|0|-1|-1|3
2021-04-09 10:01:21.184 +0100|28704.8123015|-0.6763916015625|0.79632568359375|-0.173858642578125|28704.7923405|0.2283486607766959|-0.08407005239029255|-0.7590813454487486|-0.4228667914867401|1.788887143135071|1.00796902179718|-0.7423808574676514|0.1722039580345154|0.6351691484451294|XArbitraryZVertical|0.3633096933701134|0.08094971811078765|-0.1211931274685309|-0.920198653924144|-0.06091836839914322|0.6882553100585938|-0.7229064106941223|0|0|0|-1|-1|3
2021-04-09 10:01:21.204 +0100|28704.8322615|-0.626373291015625|0.7588348388671875|-0.2877655029296875|28704.8123015|0.2587894834170869|-0.03231218531579729|-0.7674613656799273|-0.2444188594818115|1.323594808578491|1.24039351940155|-0.6861768960952759|0.1171832680702209|0.6143050789833069|XArbitraryZVertical|0.3692711576449723|0.06315696363803207|-0.1256319866415867|-0.918622265877953|-0.02325024828314781|0.6943104863166809|-0.7193000316619873|0|0|0|-1|-1|3
2021-04-09 10:01:21.224 +0100|28704.8522225|-0.5659027099609375|0.6658782958984375|-0.258392333984375|28704.8322615|0.2955533248780734|0.01659410508709397|-0.7694468848768433|0.05094321072101593|1.02802836894989|1.39114773273468|-0.6650564074516296|0.09514117240905762|0.4729735851287842|XArbitraryZVertical|0.3723318589778952|0.04765078717073015|-0.1333918806975132|-0.9172268934396305|0.0119189266115427|0.6957380175590515|-0.7181967496871948|0|0|0|-1|-1|3
2021-04-09 10:01:21.244 +0100|28704.8721835|-0.525238037109375|0.618133544921875|-0.1987152099609375|28704.8522225|0.3345952282475056|0.06176402028325757|-0.7652633293828317|0.2272629141807556|0.7773676514625549|1.429075002670288|-0.6435609459877014|0.0137864351272583|0.432578980922699|XArbitraryZVertical|0.3727445310652764|0.0338978035016174|-0.1430354843958778|-0.9162170083105314|0.04451590031385422|0.6927269101142883|-0.7198249101638794|0|0|0|-1|-1|3
2021-04-09 10:01:21.263 +0100|28704.892142375|-0.4752655029296875|0.5319061279296875|-0.19635009765625|28704.872181375|0.373119729617418|0.1018890514703486|-0.7575116960202977|0.3068729639053345|0.579643726348877|1.412386655807495|-0.623337984085083|-0.04565054178237915|0.5042444467544556|XArbitraryZVertical|0.3716528952988805|0.02200240840078767|-0.1536075530340715|-0.9153113540020167|0.0738992765545845|0.6871157288551331|-0.7227800488471985|0|0|0|-1|-1|3
2021-04-09 10:01:21.283 +0100|28704.912103375|-0.414642333984375|0.5068359375|-0.2236480712890625|28704.892142375|0.4095876076674577|0.1368666221346753|-0.7486996252328398|0.2206210047006607|0.4339785575866699|1.334567904472351|-0.6030805706977844|-0.1009739637374878|0.5377516746520996|XArbitraryZVertical|0.3701310884381807|0.01187567690657904|-0.1643564963888386|-0.9142477436720277|0.09995227307081223|0.6806867122650146|-0.7257238626480103|0|0|0|-1|-1|3
2021-04-09 10:01:21.303 +0100|28704.932063375|-0.38055419921875|0.5182952880859375|-0.192138671875|28704.912103375|0.4432149005305674|0.1669890803598504|-0.7423703226742046|0.03069240227341652|0.2949076890945435|1.204706430435181|-0.5563006997108459|-0.1636759042739868|0.5215713381767273|XArbitraryZVertical|0.3696995033053563|0.003629957923495779|-0.1746055992095668|-0.9125908968632088|0.1224778741598129|0.6760364174842834|-0.726618230342865|0|0|0|-1|-1|3
2021-04-09 10:01:21.324 +0100|28704.952024375|-0.31396484375|0.510009765625|-0.1789398193359375|28704.932063375|0.4739196639551147|0.1924758178352793|-0.7393739703552834|-0.1340818554162979|0.1863092631101608|1.073441505432129|-0.5477296113967896|-0.155742883682251|0.514522910118103|XArbitraryZVertical|0.3706344358669421|-0.00266630928888791|-0.1841269481761121|-0.9103408774252718|0.1413420736789703|0.6738255023956299|-0.7252460122108459|0|0|0|-1|-1|3
2021-04-09 10:01:21.343 +0100|28704.971985375|-0.2818450927734375|0.52325439453125|-0.175262451171875|28704.952024375|0.5014126328899529|0.2132800794456824|-0.7389432623562036|-0.2406162619590759|0.0405622310936451|0.9188051819801331|-0.4983791410923004|-0.1665635704994202|0.5383358001708984|XArbitraryZVertical|0.372469957794458|-0.007071050908527113|-0.1927970776039699|-0.9077694851789105|0.1564600020647049|0.6735071539878845|-0.7224322557449341|0|0|0|-1|-1|3
2021-04-09 10:01:21.363 +0100|28704.991946375|-0.173004150390625|0.521728515625|-0.1447601318359375|28704.971985375|0.5261738987723027|0.2297061367071278|-0.7431151561327407|-0.5737665295600891|-0.06642376631498337|0.8037922978401184|-0.4674534499645233|-0.1536044478416443|0.5497719049453735|XArbitraryZVertical|0.3760345384333739|-0.009308529903307937|-0.2005440242638155|-0.9045959235366894|0.1676638722419739|0.6765850782394409|-0.7170227766036987|0|0|0|-1|-1|3
2021-04-09 10:01:21.384 +0100|28705.011907375|-0.081268310546875|0.4586639404296875|-0.1221466064453125|28704.991946375|0.5508892129900982|0.2438153937361439|-0.7535997552600728|-0.8527067303657532|-0.2093776613473892|0.7006629705429077|-0.4085853695869446|-0.1471121907234192|0.5495519638061523|XArbitraryZVertical|0.3822024607145048|-0.009482956708407608|-0.2079602038043656|-0.9003243892104021|0.1760412752628326|0.6842682361602783|-0.7076627016067505|0|0|0|-1|-1|3
2021-04-09 10:01:21.403 +0100|28705.031867375|-0.067352294921875|0.4299468994140625|-0.08367919921875|28705.011907375|0.5739953474431565|0.2538719053098705|-0.7688743272798343|-1.064489006996155|-0.3795117139816284|0.5274988412857056|-0.3005893528461456|-0.2130717635154724|0.5555218458175659|XArbitraryZVertical|0.3900238881559993|-0.007245867553037338|-0.2147650061669256|-0.8953797499087589|0.1805025786161423|0.6953266859054565|-0.6956577301025391|0|0|0|-1|-1|3
2021-04-09 10:01:21.423 +0100|28705.051828375|-0.0072479248046875|0.42669677734375|-0.0705413818359375|28705.031867375|0.5939660938674688|0.2589643854652969|-0.7898172272933506|-1.308605074882507|-0.5150299072265625|0.3264508545398712|-0.2534702122211456|-0.2716251015663147|0.5818238854408264|XArbitraryZVertical|0.3996795962087115|-0.002323305211304195|-0.220350583439903|-0.8897733420774449|0.1802736967802048|0.7102246284484863|-0.6805016398429871|0|0|0|-1|-1|3
2021-04-09 10:01:21.443 +0100|28705.071789375|0.0298004150390625|0.418060302734375|-0.0797119140625|28705.051828375|0.6104320106441725|0.2589325069316489|-0.815859147209592|-1.530768036842346|-0.6833224296569824|0.1113215833902359|-0.2107492983341217|-0.2958796620368958|0.593705415725708|XArbitraryZVertical|0.4108203632912532|0.005179500690505236|-0.2246829476052002|-0.8835821757753998|0.175455629825592|0.7283145785331726|-0.6623995900154114|0|0|0|-1|-1|3
2021-04-09 10:01:21.463 +0100|28705.091750375|-0.0004425048828125|0.3945159912109375|-0.1043853759765625|28705.071789375|0.6228259743303444|0.2525794702422798|-0.8480084350740781|-1.783743739128113|-0.8734802603721619|-0.1392687410116196|-0.1531285792589188|-0.3364505171775818|0.5608554482460022|XArbitraryZVertical|0.4236815283433011|0.01577554788076956|-0.2277205648973188|-0.8765778465322877|0.1653050035238266|0.7499645352363586|-0.6404901742935181|0|0|0|-1|-1|3
2021-04-09 10:01:21.483 +0100|28705.111711375|-0.0757904052734375|0.3779449462890625|-0.1463623046875|28705.091750375|0.6274392386247807|0.2366451199283789|-0.8873665173317195|-2.213009119033813|-1.098295927047729|-0.5685304999351501|-0.1211390793323517|-0.3417712450027466|0.5114720463752747|XArbitraryZVertical|0.4383642869143644|0.03013240171863265|-0.2285699761543816|-0.8687258602561101|0.148040235042572|0.7754114866256714|-0.6138575673103333|0|0|0|-1|-1|3
2021-04-09 10:01:21.503 +0100|28705.131671375|0.034942626953125|0.6659393310546875|-0.332672119140625|28705.111711375|0.620366486328634|0.2064469865856182|-0.9401663637252029|-2.78353476524353|-1.279383897781372|-1.022341370582581|-0.1561935245990753|-0.4724962115287781|0.4645390510559082|XArbitraryZVertical|0.4570879230104543|0.05004297338804724|-0.2262303942031491|-0.8587119521761378|0.1208693608641624|0.8076562285423279|-0.5771326422691345|0|0|0|-1|-1|3
2021-04-09 10:01:21.523 +0100|28705.151632375|0.156494140625|0.835662841796875|-0.457061767578125|28705.131671375|0.5956453500594542|0.1596951767156079|-0.9996091752146381|-2.768654823303223|-1.323985457420349|-1.424075722694397|-0.1125200465321541|-0.3331261277198792|0.2896735072135925|XArbitraryZVertical|0.4772388760846625|0.0732598756026053|-0.2201804323229167|-0.8475828514733129|0.08596969395875931|0.841259777545929|-0.5337520837783813|0|0|0|-1|-1|3
2021-04-09 10:01:21.543 +0100|28705.171593375|0.1164093017578125|0.8367919921875|-0.40887451171875|28705.151632375|0.5490342790407408|0.09433583794482343|-1.056508165000272|-2.64590859413147|-1.294301271438599|-1.713934898376465|0.02138198912143707|-0.1314914226531982|0.07244706153869629|XArbitraryZVertical|0.495653231494051|0.09728206062244328|-0.2109949171080483|-0.836866395243695|0.04633644968271255|0.8706430792808533|-0.4897281527519226|0|0|0|-1|-1|3
2021-04-09 10:01:21.563 +0100|28705.191554375|-0.0154571533203125|0.855224609375|-0.49072265625|28705.171593375|0.4760359454023654|0.002085702846406426|-1.111804487203737|-2.773154020309448|-1.365322351455688|-1.914727568626404|0.1555089950561523|-0.08412116765975952|-0.01087376475334167|XArbitraryZVertical|0.5130408524514853|0.1235609033908019|-0.1997398299536701|-0.8256063247928551|0.0009240586077794433|0.8964996337890625|-0.4430435597896576|0|0|0|-1|-1|3
2021-04-09 10:01:21.583 +0100|28705.211515375|-0.10406494140625|1.279510498046875|-0.5176239013671875|28705.191554375|0.3762604102980588|-0.1145497992373152|-1.166794887417675|-2.949396848678589|-1.23994517326355|-1.916428804397583|0.04882217943668365|-0.04179400205612183|-0.0972975492477417|XArbitraryZVertical|0.5313204865103158|0.149786946518162|-0.1868091183936929|-0.8126284206634905|-0.04493123665452003|0.9194954037666321|-0.390524834394455|0|0|0|-1|-1|3
2021-04-09 10:01:21.603 +0100|28705.231475375|-0.06396484375|1.246292114257812|-0.3584442138671875|28705.211515375|0.2395704599990588|-0.2641559768557459|-1.212080431324819|-2.270202875137329|-0.9675057530403137|-2.316097021102905|0.00641225278377533|0.01647192239761353|-0.1589218378067017|XArbitraryZVertical|0.5476752086798746|0.1749409937625608|-0.1718396952077073|-0.7999492955852024|-0.0916631668806076|0.9363484382629395|-0.3388950228691101|0|0|0|-1|-1|3
2021-04-09 10:01:21.623 +0100|28705.251436375|-0.02874755859375|1.090988159179688|-0.6217193603515625|28705.231475375|0.07884988284051241|-0.4330650622094877|-1.22559588811416|-1.169294238090515|-0.7911354303359985|-2.392436027526855|0.08331975340843201|0.384203314781189|-0.08590295910835266|XArbitraryZVertical|0.5543638328668679|0.1977554939217581|-0.1549635059523478|-0.7934481152374736|-0.1420051157474518|0.941007673740387|-0.3071469962596893|0|0|0|-1|-1|3
2021-04-09 10:01:21.643 +0100|28705.271397375|-0.110687255859375|1.156997680664062|-0.6932373046875|28705.251436375|-0.07084582039609401|-0.5933391860913724|-1.219594693903721|-0.9505455493927002|-1.028227210044861|-2.328666687011719|0.2332803905010223|0.2332815527915955|-0.3131321966648102|XArbitraryZVertical|0.5558267492970763|0.2201004917448544|-0.1395526112615463|-0.7893905806588685|-0.1923563629388809|0.9389600157737732|-0.2852247953414917|0|0|0|-1|-1|3
2021-04-09 10:01:21.663 +0100|28705.291358375|-0.2214508056640625|1.053955078125|-0.6179962158203125|28705.271397375|-0.2119913585241394|-0.7462943129763528|-1.208296178808883|-1.254556775093079|-1.011874794960022|-2.352091312408447|0.1221026033163071|0.1264496445655823|-0.4540242254734039|XArbitraryZVertical|0.5577421256046912|0.242370485123868|-0.1248451365485186|-0.7839605160619465|-0.2407549917697906|0.9350131750106812|-0.2603605389595032|0|0|0|-1|-1|3
2021-04-09 10:01:21.683 +0100|28705.311319375|-0.2264251708984375|1.245849609375|-0.652069091796875|28705.291358375|-0.3576432828675083|-0.9024200520963497|-1.191879549354101|-1.498952507972717|-0.8956883549690247|-2.395355224609375|0.1849727630615234|0.1152611970901489|-0.4307772517204285|XArbitraryZVertical|0.5612499453202342|0.2652889633626533|-0.1083724969544932|-0.7764506995528949|-0.2903194725513458|0.9290658831596375|-0.2292405366897583|0|0|0|-1|-1|3
2021-04-09 10:01:21.703 +0100|28705.331279375|-0.234466552734375|1.354293823242188|-0.6526031494140625|28705.311319375|-0.488152361087261|-1.037547871825233|-1.170743767088033|-1.338377714157104|-0.5635356903076172|-2.159498691558838|0.1042074859142303|0.2080948948860168|-0.4208857119083405|XArbitraryZVertical|0.5654630078083364|0.285065009081738|-0.09090017456857787|-0.7685875069068386|-0.3353934288024902|0.9210405349731445|-0.1979790478944778|0|0|0|-1|-1|3
2021-04-09 10:01:21.723 +0100|28705.351240375|-0.3413543701171875|1.443374633789062|-0.490203857421875|28705.331279375|-0.5888294759884136|-1.140107832532048|-1.144825457446141|-1.114320635795593|-0.5118232369422913|-2.017038106918335|0.1576975286006927|0.4278481602668762|-0.5105313062667847|XArbitraryZVertical|0.5680288956579511|0.3018065800562519|-0.07439152750128104|-0.7620512756115247|-0.3754711151123047|0.9106379747390747|-0.1725119203329086|0|0|0|-1|-1|3
2021-04-09 10:01:21.743 +0100|28705.371201375|-0.3840179443359375|1.373458862304688|-0.3599090576171875|28705.351240375|-0.6655451373528259|-1.22044023113789|-1.117711729645386|-0.8202919960021973|-0.538483202457428|-1.753825902938843|0.1197210252285004|0.4539265036582947|-0.4367727637290955|XArbitraryZVertical|0.5694012855858581|0.3172675807518386|-0.06019049794793967|-0.7559766387382222|-0.4111486673355103|0.8991011381149292|-0.1502469182014465|0|0|0|-1|-1|3
2021-04-09 10:01:21.763 +0100|28705.391162375|-0.391326904296875|1.177825927734375|-0.271484375|28705.371201375|-0.7127623347847474|-1.272586565481424|-1.090185578301679|-0.3747858703136444|-0.4679136872291565|-1.538506865501404|0.08164075016975403|0.5863557457923889|-0.2828046679496765|XArbitraryZVertical|0.5680953818938046|0.3306818543943361|-0.04879774483365686|-0.7520213120536637|-0.4419160485267639|0.8867127299308777|-0.1358342915773392|0|0|0|-1|-1|3
2021-04-09 10:01:21.783 +0100|28705.411123375|-0.3778533935546875|1.02337646484375|-0.2244873046875|28705.391162375|-0.7413818709882199|-1.307055538044928|-1.064023011791588|-0.238575667142868|-0.4585101306438446|-1.39134156703949|0.07012295722961426|0.3796370625495911|-0.183222159743309|XArbitraryZVertical|0.5651962189119236|0.3424736878963408|-0.03960374445706811|-0.7494642096333324|-0.4685757756233215|0.8743151426315308|-0.1265300214290619|0|0|0|-1|-1|3
2021-04-09 10:01:21.802 +0100|28705.431083375|-0.380767822265625|0.95892333984375|-0.212371826171875|28705.411123375|-0.7641407432473996|-1.336095457505836|-1.039008506326768|-0.2515092194080353|-0.4936857223510742|-1.315657138824463|0.09642955660820007|0.2213960886001587|-0.1164981126785278|XArbitraryZVertical|0.5621150951551421|0.3536465828185569|-0.03127664275302759|-0.7469823714223609|-0.4931733906269073|0.8619018793106079|-0.1179214268922806|0|0|0|-1|-1|3
2021-04-09 10:01:21.823 +0100|28705.451044375|-0.398468017578125|1.012985229492188|-0.2109527587890625|28705.431083375|-0.7850957175144304|-1.364657085609945|-1.015353872823997|-0.2935133874416351|-0.5868892073631287|-1.226137042045593|0.1390189528465271|0.1315340995788574|-0.102377638220787|XArbitraryZVertical|0.5594119244707545|0.3648174877033897|-0.02379876538894857|-0.7439087020886894|-0.5161551833152771|0.8496671915054321|-0.1079329997301102|0|0|0|-1|-1|3
2021-04-09 10:01:21.843 +0100|28705.471005375|-0.4349212646484375|1.141983032226562|-0.1570892333984375|28705.451044375|-0.8039378973767781|-1.393944153087869|-0.9939712758171938|-0.2485741525888443|-0.759914755821228|-1.036493897438049|0.159295916557312|0.1341835856437683|-0.1159045845270157|XArbitraryZVertical|0.5571979839576948|0.3762403796754585|-0.01794921570625377|-0.7400349278348212|-0.5368595123291016|0.8381983637809753|-0.09594716876745224|0|0|0|-1|-1|3
2021-04-09 10:01:21.863 +0100|28705.490966375|-0.39080810546875|1.167068481445312|-0.130279541015625|28705.471005375|-0.8121569695600744|-1.416320402467033|-0.9765470349803711|0.1643496751785278|-0.7903931140899658|-0.7487250566482544|0.1212438344955444|0.2607561349868774|-0.0917249321937561|XArbitraryZVertical|0.5542400131983081|0.3869693087909108|-0.01533504882921522|-0.7367752580231214|-0.5532202124595642|0.8285690546035767|-0.08614552021026611|0|0|0|-1|-1|3
2021-04-09 10:01:21.883 +0100|28705.510927375|-0.247955322265625|1.2027587890625|-0.2003326416015625|28705.490966375|-0.7999999781323613|-1.422488460282807|-0.9634287117513032|0.7093909978866577|-0.8520258069038391|-0.4525327384471893|0.1373191475868225|0.3596789836883545|-0.05687308311462402|XArbitraryZVertical|0.548542347064444|0.396151502639119|-0.01712417723208102|-0.7361196917359535|-0.5644431710243225|0.8211531639099121|-0.08433055877685547|0|0|0|-1|-1|3
2021-04-09 10:01:21.903 +0100|28705.530887375|-0.094268798828125|1.524215698242188|-0.332794189453125|28705.510927375|-0.7703745340587503|-1.416951126922788|-0.9556258047055901|1.050138711929321|-1.058178782463074|-0.02105279453098774|0.2433319687843323|0.3564667105674744|-0.06705188751220703|XArbitraryZVertical|0.5406945256767557|0.4042678027972357|-0.02392264573916103|-0.7373227415198503|-0.570281982421875|0.816675066947937|-0.08843394368886948|0|0|0|-1|-1|3
2021-04-09 10:01:21.922 +0100|28705.550848375|0.369720458984375|1.770370483398438|-0.6801605224609375|28705.530887375|-0.7271200249056465|-1.404739670074461|-0.9583614465029766|1.43423056602478|-1.206671833992004|0.7061877846717834|0.3871445655822754|0.5084402561187744|-0.1614164710044861|XArbitraryZVertical|0.5327805786903487|0.4106508251622443|-0.03751825212498051|-0.7389880139631995|-0.5669540762901306|0.8182507157325745|-0.09502150863409042|0|0|0|-1|-1|3
2021-04-09 10:01:21.942 +0100|28705.570809375|0.425262451171875|2.031600952148438|-1.022811889648438|28705.550848375|-0.6585763857329415|-1.372816181867476|-0.9727870114674368|2.197612047195435|-1.319600701332092|1.397937655448914|0.6652211546897888|0.8995859622955322|-0.3589285016059875|XArbitraryZVertical|0.5233231862837574|0.4132371473690948|-0.05920435377770968|-0.7428747166183594|-0.5520008206367493|0.8264579772949219|-0.1107358038425446|0|0|0|-1|-1|3
2021-04-09 10:01:21.962 +0100|28705.590770375|0.3101959228515625|2.139755249023438|-1.396652221679688|28705.570809375|-0.5512607351574678|-1.311531742760013|-0.9952878075317448|3.051641464233398|-1.432973027229309|2.159083366394043|1.014902591705322|0.9957557320594788|-0.722939133644104|XArbitraryZVertical|0.5098846863986404|0.4126154070703965|-0.09054789286483514|-0.7493779990838493|-0.5260718464851379|0.8389156460762024|-0.1395322680473328|0|0|0|-1|-1|3
2021-04-09 10:01:21.982 +0100|28705.610731375|0.384185791015625|1.724151611328125|-1.86474609375|28705.590770375|-0.3978993358632418|-1.204556609841595|-1.022755802679567|3.876846075057983|-0.8128990530967712|2.965586185455322|0.7776004076004028|1.304198861122131|-0.9724006652832031|XArbitraryZVertical|0.4929602060603637|0.4045991333545592|-0.129745576566249|-0.7592470679157038|-0.4864625930786133|0.8535470962524414|-0.186579555273056|0|0|0|-1|-1|3
2021-04-09 10:01:22.002 +0100|28705.630691375|0.31805419921875|0.916107177734375|-2.142333984375|28705.610731375|-0.1983579303008671|-1.03999192537888|-1.047024004998884|4.244684219360352|0.2249317020177841|3.543887376785278|0.7992041110992432|1.095640182495117|-1.394666790962219|XArbitraryZVertical|0.474323028492146|0.3852567801116408|-0.172760178714169|-0.7724952334785157|-0.4313297867774963|0.8659386038780212|-0.253189742565155|0|0|0|-1|-1|3
2021-04-09 10:01:22.022 +0100|28705.650652375|-0.0409088134765625|0.1098175048828125|-2.123321533203125|28705.630691375|0.02410120284089012|-0.8267836123535425|-1.055461412373917|3.894315958023071|1.837969541549683|3.566038608551025|0.7649750113487244|0.5488487482070923|-1.686009645462036|XArbitraryZVertical|0.4569389978504838|0.3525966592037508|-0.2118137442414358|-0.7886808552921157|-0.3626005351543427|0.8701277375221252|-0.3337647020816803|0|0|0|-1|-1|3
2021-04-09 10:01:22.042 +0100|28705.670613375|-0.4296417236328125|0.3115386962890625|-1.620864868164062|28705.650652375|0.2061098591682171|-0.6130323501474508|-1.05508507094701|1.847838282585144|3.695080757141113|3.050948858261108|0.4352715015411377|-0.5219343304634094|-1.781032085418701|XArbitraryZVertical|0.4505807576741871|0.3087068247726352|-0.2358366865413665|-0.803777549563684|-0.2837362885475159|0.8699421882629395|-0.4033541679382324|0|0|0|-1|-1|3
2021-04-09 10:01:22.062 +0100|28705.690574375|-0.7357635498046875|0.8081512451171875|-1.033309936523438|28705.670613375|0.3177051955848242|-0.4242250269089212|-1.070700450619493|-0.3845508396625519|5.386924743652344|2.435151815414429|-0.05789084732532501|-0.810015857219696|-1.498998403549194|XArbitraryZVertical|0.4637873064545015|0.2576795406087912|-0.2390501573513314|-0.813239077928966|-0.1973732858896255|0.8775365948677063|-0.4370051920413971|0|0|0|-1|-1|3
2021-04-09 10:01:22.082 +0100|28705.710535375|-0.808380126953125|1.253448486328125|-0.7347869873046875|28705.690574375|0.3872801283633026|-0.2423441744254509|-1.1039261498691|-1.460899472236633|6.457359790802002|1.703947186470032|-0.5662879943847656|-0.1851102113723755|-0.8441703319549561|XArbitraryZVertical|0.490980482512033|0.2011654631896796|-0.2248516873611645|-0.8172591517709377|-0.1080130487680435|0.8929813504219055|-0.4369412362575531|0|0|0|-1|-1|3
2021-04-09 10:01:22.102 +0100|28705.730495375|-0.8634796142578125|1.432159423828125|-0.9645538330078125|28705.710535375|0.4439616521075954|-0.06127070863942482|-1.137448717367685|-1.388184905052185|6.550587177276611|1.26893413066864|-0.717162013053894|-0.01246863603591919|-0.4520147442817688|XArbitraryZVertical|0.5194144033072843|0.1436900348509052|-0.2015106922263842|-0.8178970166335242|-0.02571219019591808|0.9075651168823242|-0.4191237092018127|0|0|0|-1|-1|3
2021-04-09 10:01:22.122 +0100|28705.750456375|-1.221420288085938|1.395782470703125|-0.55828857421875|28705.730495375|0.4949554524965823|0.1157191797848945|-1.162103485322829|-1.0883709192276|6.038595199584961|1.119228959083557|-0.9270501136779785|0.6283036470413208|-0.27025505900383|XArbitraryZVertical|0.5431301447349393|0.08736959568333415|-0.17364081560222|-0.8168385032760118|0.04588542133569717|0.9176411032676697|-0.3947524130344391|0|0|0|-1|-1|3
2021-04-09 10:01:22.142 +0100|28705.770417375|-1.030120849609375|1.611740112304688|-0.269256591796875|28705.750456375|0.5514727656691436|0.2881476109413909|-1.190243150875422|-1.953446984291077|5.665680885314941|0.6954509019851685|-1.340492844581604|0.6376118063926697|0.05115997791290283|XArbitraryZVertical|0.5662124166102149|0.03664636212679143|-0.1456642064622746|-0.8104583684375927|0.1055530607700348|0.9284592866897583|-0.3561210930347443|0|0|0|-1|-1|3
