loggingTime(txt)|accelerometerTimestamp_sinceReboot(s)|accelerometerAccelerationX(G)|accelerometerAccelerationY(G)|accelerometerAccelerationZ(G)|motionTimestamp_sinceReboot(s)|motionYaw(rad)|motionRoll(rad)|motionPitch(rad)|motionRotationRateX(rad/s)|motionRotationRateY(rad/s)|motionRotationRateZ(rad/s)|motionUserAccelerationX(G)|motionUserAccelerationY(G)|motionUserAccelerationZ(G)|motionAttitudeReferenceFrame(txt)|motionQuaternionX(R)|motionQuaternionY(R)|motionQuaternionZ(R)|motionQuaternionW(R)|motionGravityX(G)|motionGravityY(G)|motionGravityZ(G)|motionMagneticFieldX(µT)|motionMagneticFieldY(µT)|motionMagneticFieldZ(µT)|motionHeading(°)|motionMagneticFieldCalibrationAccuracy(Z)|label
2021-04-22 22:27:01.278 +0100|142030.2829527917|-0.080169677734375|-0.0121307373046875|-0.971923828125|142030.2629927917|0.7115910129394765|0.01295432452468044|0.06112914360892855|-0.3364415168762207|-0.05990986153483391|-0.2173617482185364|0.08057629317045212|-0.07257483154535294|0.03636318445205688|XArbitraryZVertical|0.02639008057301479|0.01671348064870115|0.3483516936608186|0.9368433160962848|0.01292976643890142|-0.06109108030796051|-0.9980484247207642|0|0|0|-1|-1|3
2021-04-22 22:27:01.290 +0100|142030.3029127917|0.0082855224609375|-0.0881805419921875|-0.973846435546875|142030.2829527917|0.7093920872096892|0.01330345018447761|0.05534026896546636|-0.1967108100652695|0.04741238430142403|-0.1078068539500237|-0.1244427710771561|0.051300048828125|0.02490049600601196|XArbitraryZVertical|0.02363456331072933|0.01584378200921672|0.3473372907568316|0.9373084887822862|0.01328269205987453|-0.05531202629208565|-0.9983807802200317|0|0|0|-1|-1|3
2021-04-22 22:27:01.291 +0100|142030.3228727917|-0.04376220703125|-0.04986572265625|-0.9759674072265625|142030.3029127917|0.7074734571242696|0.01320949778933586|0.05314302266278804|-0.179994985461235|-0.002876777201890945|-0.09865223616361618|0.009606365114450455|-0.03039225935935974|0.02521920204162598|XArbitraryZVertical|0.02263575641694144|0.01539681581799917|0.3464403371534118|0.9376725706776831|0.01319046597927809|-0.0531180128455162|-0.9985011219978333|0|0|0|-1|-1|3
2021-04-22 22:27:01.296 +0100|142030.3428337917|0.0032958984375|-0.0478973388671875|-0.9947357177734375|142030.3228727917|0.7056644752043608|0.01397583861103306|0.05112861978484071|-0.2002822160720825|0.02691611088812351|-0.07703784108161926|-0.06334962695837021|-0.01217076927423477|0.02523750066757202|XArbitraryZVertical|0.02157237619526434|0.01538799567395827|0.3456031960089828|0.9380066703726381|0.01395712047815323|-0.05110634490847588|-0.998595654964447|0|0|0|-1|-1|3
2021-04-22 22:27:01.316 +0100|142030.3627937917|0.010162353515625|-0.0854034423828125|-0.9906463623046875|142030.3428337917|0.704061687852693|0.01560400119434091|0.05024356977609384|-0.1159851625561714|-0.01830564066767693|-0.08651940524578094|-0.01698729023337364|0.01357191056013107|0.009892702102661133|XArbitraryZVertical|0.02088868644559896|0.01598208860187682|0.3448694676179573|0.938282177053487|0.01558367721736431|-0.05022243410348892|-0.9986164569854736|0|0|0|-1|-1|3
2021-04-22 22:27:01.336 +0100|142030.3827537917|0.0289764404296875|-0.0643463134765625|-0.9857635498046875|142030.3627937917|0.7024291121254461|0.01327055642461722|0.04689093721537584|-0.1601313501596451|-0.0313575267791748|-0.08449655771255493|-0.008586198091506958|-0.03671280294656754|0.00294792652130127|XArbitraryZVertical|0.01972960422671502|0.0142936988935563|0.3440823952931235|0.9386233682193914|0.0132555803284049|-0.04687375575304031|-0.9988128542900085|0|0|0|-1|-1|3
2021-04-22 22:27:01.356 +0100|142030.4027137917|0.033477783203125|-0.0401458740234375|-0.9935302734375|142030.3827537917|0.700787241662824|0.01249211462496213|0.04408249598504425|-0.1341219693422318|-0.02515582554042339|-0.08124253153800964|0.01281960960477591|-0.02215383946895599|0.0174899697303772|XArbitraryZVertical|0.01855635558273206|0.01343035181847057|0.3433067364639261|0.9389440553902383|0.01247965451329947|-0.04406822100281715|-0.9989506006240845|0|0|0|-1|-1|3
2021-04-22 22:27:01.376 +0100|142030.4226737917|0.0255126953125|-0.0327301025390625|-1.005111694335938|142030.4027137917|0.6994496061371492|0.01089360999030278|0.04266075718370335|-0.06751225888729095|-0.04446251690387726|-0.05226458609104156|0.02173999696969986|-0.002272970974445343|0.009498357772827148|XArbitraryZVertical|0.01817151528743597|0.01242386736294032|0.3426653957440013|0.9391995924261242|0.01088348310440779|-0.0426478199660778|-0.9990308880805969|0|0|0|-1|-1|3
2021-04-22 22:27:01.396 +0100|142030.4426337917|0.0090179443359375|-0.0599365234375|-1.014404296875|142030.4226737917|0.698479544989813|0.009407178483190498|0.04213223910356577|-0.0001897732727229595|-0.04841602966189384|-0.05094720795750618|0.01944060809910297|0.01390735805034637|-0.002854287624359131|XArbitraryZVertical|0.01818361183070159|0.011626516373361|0.3421969368788841|0.9393804417504967|0.009398691356182098|-0.04211977496743202|-0.9990683794021606|0|0|0|-1|-1|3
2021-04-22 22:27:01.416 +0100|142030.4625937917|0.0119476318359375|-0.0276947021484375|-1.007919311523438|142030.4426337917|0.6974421358483066|0.008444244045147698|0.04252536257576581|-0.02869443595409393|-0.0265269260853529|-0.04957336932420731|0.003526567481458187|-0.01266214996576309|-0.007943511009216309|XArbitraryZVertical|0.01853885389269533|0.01123184796066323|0.3417001954685557|0.9395590865256156|0.008436509408056736|-0.04251254722476006|-0.999060332775116|0|0|0|-1|-1|3
2021-04-22 22:27:01.436 +0100|142030.4825537917|-0.0012664794921875|-0.0113525390625|-1.008285522460938|142030.4625937917|0.6967189235685624|0.008416623234954578|0.04256795495244779|-0.005226693116128445|-0.01448666863143444|-0.02994401194155216|0.004530739970505238|0.003432657569646835|-0.01026439666748047|XArbitraryZVertical|0.01856764135132663|0.01121943192512467|0.3413600937319607|0.9396822959062192|0.008408899419009686|-0.04255510121583939|-0.999058723449707|0|0|0|-1|-1|3
2021-04-22 22:27:01.456 +0100|142030.5025137917|0.01177978515625|-0.0618133544921875|-1.002273559570312|142030.4825537917|0.6964463475121743|0.008659130620345739|0.04326823119242857|0.05083328112959862|-0.00720137869939208|0.002488409634679556|-0.005141210742294788|0.03728963062167168|-0.003018081188201904|XArbitraryZVertical|0.01885684984900258|0.01145026481806687|0.3412331365244252|0.9397198494873742|0.008650918491184711|-0.04325473308563232|-0.9990265965461731|0|0|0|-1|-1|3
2021-04-22 22:27:01.476 +0100|142030.5224737917|0.0111083984375|-0.067474365234375|-0.9855499267578125|142030.5025137917|0.6965825363298908|0.009129516294385367|0.04370580949431613|-0.006135996431112289|0.01817577704787254|0.00679412018507719|-0.001430055126547813|-0.004540048539638519|-0.004445135593414307|XArbitraryZVertical|0.01898140852015997|0.01174719154639664|0.3413008765062671|0.939689032719936|0.009120671078562737|-0.04369189590215683|-0.9990034103393555|0|0|0|-1|-1|3
2021-04-22 22:27:01.496 +0100|142030.5424337917|0.0038909912109375|-0.0742950439453125|-0.993011474609375|142030.5224737917|0.6968622849466943|0.009729407696199368|0.04290659897016585|-0.06838236004114151|0.03232712298631668|0.01287145353853703|0.005294536240398884|-0.03234656900167465|0.005471527576446533|XArbitraryZVertical|0.01850183781395463|0.01189532414055042|0.3414390986633406|0.9396465913552617|0.009720300324261189|-0.042893435806036|-0.9990323781967163|0|0|0|-1|-1|3
2021-04-22 22:27:01.516 +0100|142030.5623947917|0.0091705322265625|-0.087188720703125|-0.9774627685546875|142030.5623947917|0.6967050126793691|0.01130796424628738|0.03713397747725705|-0.2456331253051758|0.04430511593818665|-0.0355512946844101|-0.002571713179349899|-0.04649163037538528|0.02106672525405884|XArbitraryZVertical|0.01552086313691847|0.01165080836457531|0.3413840843397002|0.9397236001268304|0.0112999277189374|-0.03712544217705727|-0.9992467164993286|0|0|0|-1|-1|3
2021-04-22 22:27:01.536 +0100|142030.5823547917|0.0059814453125|-0.08941650390625|-0.9816741943359375||||||||||||||||||||||||3
2021-04-22 22:27:01.556 +0100|142030.6023147917|-0.0061492919921875|0.0169677734375|-0.9423980712890625|142030.5823547917|0.6956489394836106|0.01255025384885157|0.03178442180237154|-0.2344576865434647|0.07496842741966248|-0.06618137657642365|-0.007553775794804096|-0.06346520036458969|0.01806241273880005|XArbitraryZVertical|0.0128009921602176|0.01131514510594857|0.3408973564506672|0.9399452778091031|0.01254358608275652|-0.03177906945347786|-0.9994162321090698|0|0|0|-1|-1|3
2021-04-22 22:27:01.576 +0100|142030.6222747917|0.02410888671875|-0.0391998291015625|-0.9951629638671875|142030.6023147917|0.6945636334462609|0.0144662498595893|0.0294528349385182|-0.07736183702945709|0.09734494984149933|-0.05537080392241478|-0.01574102602899075|0.03006002120673656|0.06864506006240845|XArbitraryZVertical|0.01138495031474427|0.01181224168952894|0.3403974851557063|0.940138584789773|0.01445947121828794|-0.02944857627153397|-0.9994617104530334|0|0|0|-1|-1|3
2021-04-22 22:27:01.596 +0100|142030.6422347917|0.0502166748046875|-0.0798492431640625|-1.011398315429688|142030.6222747917|0.693079902985847|0.01609044109231902|0.02839950598515136|-0.1497652530670166|0.0945456475019455|-0.09163666516542435|-0.002991035580635071|0.01583879627287388|0.01327657699584961|XArbitraryZVertical|0.01062252875168277|0.0123886789746035|0.3397076849036774|0.940389533465168|0.0160832591354847|-0.02839568816125393|-0.9994673728942871|0|0|0|-1|-1|3
2021-04-22 22:27:01.615 +0100|142030.6621947917|0.053466796875|-0.020111083984375|-0.9866485595703125|142030.6422347917|0.6913547770859391|0.01810489454791196|0.02432545178870148|-0.3331248462200165|0.1298916041851044|-0.08175492286682129|0.02650307305157185|-0.06039265170693398|-0.005495131015777588|XArbitraryZVertical|0.008375493961380492|0.0126370887510406|0.3388987060595261|0.940700743936794|0.01809854991734028|-0.02432305365800858|-0.9995403289794922|0|0|0|-1|-1|3
2021-04-22 22:27:01.636 +0100|142030.6821547917|0.0417633056640625|0.001220703125|-0.9815673828125|142030.6621947917|0.6905210765010608|0.02025318826526078|0.019452007660668|-0.2347292751073837|0.1183391809463501|-0.008024596609175205|0.03552308306097984|-0.009127838537096977|0.006014466285705566|XArbitraryZVertical|0.005724390234044329|0.01281984762698619|0.3385011453178374|0.9408613253119177|0.02024797163903713|-0.01945078186690807|-0.9996057748794556|0|0|0|-1|-1|3
2021-04-22 22:27:01.656 +0100|142030.7021147917|0.039886474609375|-0.032867431640625|-0.9768218994140625|142030.6821547917|0.691390536263656|0.02215404141873064|0.01673803165525076|-0.08630112558603287|0.1216608434915543|0.08061188459396362|0.02403941005468369|0.02127020433545113|0.02015292644500732|XArbitraryZVertical|0.004120080722712338|0.01325676741895939|0.3389054402303134|0.9407180868952686|0.02214912697672844|-0.01673725061118603|-0.9996145367622375|0|0|0|-1|-1|3
2021-04-22 22:27:01.676 +0100|142030.7220747917|0.0461578369140625|-0.0199127197265625|-0.986053466796875|142030.7021147917|0.6937443998835114|0.02416851947072936|0.01488809556806259|-0.09372328966856003|0.1259182244539261|0.1476031690835953|0.01384633965790272|-0.0150643652305007|0.02042537927627563|XArbitraryZVertical|0.002892183199708967|0.01389439118325335|0.3400082966345869|0.9403154358069206|0.02416348829865456|-0.01488754525780678|-0.9995971918106079|0|0|0|-1|-1|3
2021-04-22 22:27:01.696 +0100|142030.7420347917|0.0212249755859375|-0.0436859130859375|-0.9818267822265625|142030.7220747917|0.6971831162149512|0.02685734198017448|0.01373172787481988|-0.1469779163599014|0.1130990907549858|0.1775364726781845|0.01788737624883652|-0.01358084287494421|0.01620775461196899|XArbitraryZVertical|0.001865638304752693|0.01496529556989447|0.3416221993609224|0.9397164373641393|0.02685158140957355|-0.01373129617422819|-0.9995450973510742|0|0|0|-1|-1|3
2021-04-22 22:27:01.716 +0100|142030.7619957917|-0.0010986328125|-0.126068115234375|-0.977630615234375|142030.7420347917|0.7006065205093328|0.02955818416681342|0.01078219153885388|-0.2628223896026611|0.0979715883731842|0.1583186686038971|0.000141635537147522|-0.02025330252945423|0.01789194345474243|XArbitraryZVertical|-8.55988823089647e-06|0.01573075074450829|0.3432150319009396|0.9391251278359748|0.029552161693573|-0.01078198291361332|-0.9995051026344299|0|0|0|-1|-1|3
2021-04-22 22:27:01.736 +0100|142030.7819557917|-0.0287628173828125|-0.250457763671875|-0.9085540771484375|142030.7619957917|0.7029809828148146|0.03199249051330363|0.002015365615704024|-0.6651042699813843|0.1113702207803726|0.04844125360250473|-0.0287213921546936|-0.09914931654930115|0.01894122362136841|XArbitraryZVertical|-0.00456127703788068|0.01536449354868037|0.344268446030314|0.9387345159668136|0.03198696672916412|-0.002015364356338978|-0.9994862675666809|0|0|0|-1|-1|3
2021-04-22 22:27:01.756 +0100|142030.8019157917|-0.0806884765625|-0.4024658203125|-0.842071533203125|142030.7819557917|0.7027101825391144|0.0346690509951513|-0.01776406913305193|-1.426917433738708|0.1356564909219742|-0.1933705806732178|-0.04901496320962906|-0.2307442128658295|0.0752912163734436|XArbitraryZVertical|-0.0143035372134628|0.01321761887381823|0.3439605574353155|0.9387822599624752|0.03465663641691208|0.01776313409209251|-0.9992414116859436|0|0|0|-1|-1|3
2021-04-22 22:27:01.775 +0100|142030.8218757917|-0.10089111328125|-0.4368896484375|-0.7659912109375|142030.8019157917|0.6972911052794503|0.03758981686265819|-0.05770198810877979|-2.658943891525269|0.157851055264473|-0.4940442144870758|-0.1087310016155243|-0.4267179369926453|0.1394304633140564|XArbitraryZVertical|-0.03352442186749615|0.007802629738667118|0.3409131311115118|0.9394645428387957|0.03751841932535172|0.05766997486352921|-0.9976304769515991|0|0|0|-1|-1|3
2021-04-22 22:27:01.795 +0100|142030.8418357917|-0.121917724609375|-0.200531005859375|-0.598358154296875|142030.8218757917|0.6872687064563264|0.04037900538953612|-0.1256246004592799|-4.099430561065674|0.2165945321321487|-0.7325843572616577|-0.137187197804451|-0.5844150185585022|0.1981439590454102|XArbitraryZVertical|-0.06587733344812427|-0.002173564340175853|0.3349850955436873|0.9399151904452802|0.04004991799592972|0.1252944320440292|-0.9913108944892883|0|0|0|-1|-1|3
2021-04-22 22:27:01.816 +0100|142030.8617957917|-0.1343841552734375|-0.093414306640625|-0.49871826171875|142030.8418357917|0.6749407118396157|0.04325176684689577|-0.2211301960684495|-5.342792987823486|0.2769023478031158|-0.8714181780815125|-0.1603340804576874|-0.4702315926551819|0.3386601209640503|XArbitraryZVertical|-0.1112079964316683|-0.01624524871325808|0.3267510656034796|0.9384043457774439|0.04218543693423271|0.2193324416875839|-0.9747377634048462|0|0|0|-1|-1|3
2021-04-22 22:27:01.849 +0100|142030.8817557917|-0.13104248046875|0.04986572265625|-0.344482421875|142030.8817557917|0.6473989865990012|0.04673109399997546|-0.4665016305762528|-6.840378761291504|0.312212198972702|-0.9070805311203003|-0.1699420511722565|-0.4325515329837799|0.5335148572921753|XArbitraryZVertical|-0.2263075150099516|-0.05195029170827098|0.3042583594824508|0.9238576635047653|0.04172255471348763|0.4497644901275635|-0.8921721577644348|0|0|0|-1|-1|3
2021-04-22 22:27:01.855 +0100|142030.9017157917|-0.13690185546875|0.33306884765625|-0.2324676513671875||||||||||||||||||||||||3
2021-04-22 22:27:01.875 +0100|142030.9216757917|-0.165374755859375|0.6557769775390625|-0.1066436767578125|142030.9017157917|0.6350089461682481|0.04724302308352246|-0.6090229749560137|-7.316399574279785|0.3344253897666931|-0.8263916969299316|-0.1734544187784195|-0.3230266571044922|0.5529049634933472|XArbitraryZVertical|-0.2917961870435245|-0.07217249005471903|0.291022807979216|0.9082687030719929|0.03873466327786446|0.5720663666725159|-0.8192922472953796|0|0|0|-1|-1|3
2021-04-22 22:27:01.895 +0100|142030.9416357917|-0.2132110595703125|0.9556732177734375|-0.037994384765625|142030.9216757917|0.6232659123215084|0.04524288709008534|-0.7556195312253708|-7.26154088973999|0.2463349103927612|-0.7767335176467896|-0.1893516927957535|-0.111413300037384|0.588537871837616|XArbitraryZVertical|-0.3574743413039074|-0.09306464339484184|0.2769743193138136|0.887038058802477|0.03291866183280945|0.6857396960258484|-0.7271021604537964|0|0|0|-1|-1|3
2021-04-22 22:27:01.915 +0100|142030.9615967917|-0.2334442138671875|1.2237548828125|0.04644775390625|142030.9416357917|0.6087827965219896|0.04110138476111234|-0.8967815008855631|-6.63691234588623|0.4213083982467651|-0.8212258815765381|-0.2290296405553818|0.1096087694168091|0.5747736692428589|XArbitraryZVertical|-0.4190496704279229|-0.1122361247474762|0.261528837188668|0.8622083364062958|0.02564530074596405|0.781322181224823|-0.6236008405685425|0|0|0|-1|-1|3
2021-04-22 22:27:01.935 +0100|142030.9815567917|-0.141632080078125|1.545303344726562|0.1087188720703125|142030.9615967917|0.5889690931897036|0.03529307825138437|-1.018304537478992|-5.513704299926758|0.600522518157959|-0.7741293907165527|-0.2553346753120422|0.3102192282676697|0.5468078851699829|XArbitraryZVertical|-0.4708532059800566|-0.1267107432148161|0.24516080556142|0.8379367757363005|0.01851831935346127|0.8512194752693176|-0.5244832634925842|0|0|0|-1|-1|3
2021-04-22 22:27:01.955 +0100|142031.0015167917|-0.1242218017578125|1.773895263671875|0.168701171875|142030.9815567917|0.5617322635814754|0.0265698825927009|-1.12426711083876|-5.182988166809082|0.7622551918029785|-0.8236947655677795|-0.1715982556343079|0.5736198425292969|0.5571137070655823|XArbitraryZVertical|-0.5151781988441019|-0.1369262127760151|0.2277104063403083|0.8148562012132639|0.01147252693772316|0.9019513726234436|-0.4316852688789368|0|0|0|-1|-1|3
2021-04-22 22:27:01.975 +0100|142031.0214767917|-0.0977020263671875|1.79351806640625|0.1769866943359375|142031.0015167917|0.5233634370547807|0.004753735782990372|-1.219615276260979|-4.191834449768066|0.63327556848526|-0.8293028473854065|-0.1231105476617813|0.7809430956840515|0.4964247345924377|XArbitraryZVertical|-0.5537149713960001|-0.1462804323919694|0.2107602932504236|0.7922007800145526|0.001635314198210835|0.9389670491218567|-0.3440035283565521|0|0|0|-1|-1|3
2021-04-22 22:27:01.995 +0100|142031.0414367917|-0.0103607177734375|1.353103637695312|0.085693359375|142031.0214767917|0.4651720779157554|-0.03765470746078383|-1.291862886315585|-3.164506673812866|0.6904901266098022|-0.8636323809623718|-0.1075701713562012|0.8709413409233093|0.4332480728626251|XArbitraryZVertical|-0.5821653727472745|-0.1533486496816052|0.1950536561591101|0.7742879034094752|-0.01036504004150629|0.9613496661186218|-0.275135338306427|0|0|0|-1|-1|3
2021-04-22 22:27:02.015 +0100|142031.0613967917|0.032257080078125|1.13836669921875|0.1685638427734375|142031.0414367917|0.369210012780858|-0.1155642414785237|-1.355211222978077|-3.493196725845337|0.8191781640052795|-0.954700231552124|-0.005652770400047302|0.5056318640708923|0.3412631154060364|XArbitraryZVertical|-0.6069897508876758|-0.1591129760337408|0.1783570457525386|0.7579152321345279|-0.02466649934649467|0.9768514037132263|-0.2124930024147034|0|0|0|-1|-1|3
2021-04-22 22:27:02.035 +0100|142031.0813567917|0.0330047607421875|1.193130493164062|0.1310577392578125|142031.0613967917|0.1947487824682353|-0.2715637859398391|-1.425267558408952|-4.085419654846191|0.8146209120750427|-0.7867676019668579|0.07039311528205872|0.1494564414024353|0.2785890102386475|XArbitraryZVertical|-0.6347841065742053|-0.1649181135613901|0.1609702394630464|0.7375228352091481|-0.03889904916286469|0.9894293546676636|-0.1397023051977158|0|0|0|-1|-1|3
2021-04-22 22:27:02.055 +0100|142031.1013185|0.0307159423828125|1.294265747070312|0.156646728515625|142031.0813567917|-0.2587230240102519|-0.7052051131578124|-1.48984390945605|-3.594373464584351|0.8930720686912537|-0.7318539619445801|0.08296496421098709|0.1704657077789307|0.1973980069160461|XArbitraryZVertical|-0.6636406357413347|-0.1696819926873677|0.1431555365693617|0.7143499490484062|-0.05241698399186134|0.9967251420021057|-0.06157825514674187|0|0|0|-1|-1|3
2021-04-22 22:27:02.075 +0100|142031.1212785|0.00762939453125|1.240127563476562|0.1637725830078125|142031.1013185|-1.109565772392226|-1.536507895284505|-1.506092969388525|-2.502983808517456|0.9091330766677856|-0.520566999912262|0.09895476698875427|0.2825034260749817|0.1402184367179871|XArbitraryZVertical|-0.6850856770289691|-0.1718990311833442|0.127550045642807|0.6963041568392557|-0.06462260335683823|0.9979074597358704|-0.002216676482930779|0|0|0|-1|-1|3
2021-04-22 22:27:02.095 +0100|142031.1412385|0.0347442626953125|1.14373779296875|0.2744293212890625|142031.1212785|-1.64277695851418|-2.049286300730768|-1.486537743212448|-1.829363703727722|1.019205451011658|-0.4547249376773834|0.07785193622112274|0.2780380845069885|0.09720611572265625|XArbitraryZVertical|-0.7000301742329501|-0.1712694205628001|0.1139478410389235|0.6838425106506063|-0.07470876723527908|0.9964523315429688|0.03875091671943665|0|0|0|-1|-1|3
2021-04-22 22:27:02.115 +0100|142031.1611985|0.039703369140625|1.149444580078125|0.0126495361328125|142031.1611985|-2.054923519740876|-2.418866637442568|-1.426732908083429|-1.586887240409851|0.9790670275688171|-0.4843282103538513|0.1339458227157593|0.1406082510948181|-0.02735257148742676|XArbitraryZVertical|-0.7250746694158517|-0.1676447554705913|0.08762051034867688|0.6621818436157869|-0.0949598029255867|0.9896407723426819|0.1076760813593864|0|0|0|-1|-1|3
2021-04-22 22:27:02.135 +0100|142031.1811595|0.0758514404296875|1.156219482421875|0.1280670166015625||||||||||||||||||||||||3
2021-04-22 22:27:02.155 +0100|142031.2011195|0.07855224609375|0.971038818359375|0.22613525390625|142031.1811595|-2.130351974337458|-2.474319141848833|-1.397455691680677|-1.363051891326904|0.9697417616844177|-0.4424600899219513|0.1742405295372009|0.2139147520065308|-0.05709588527679443|XArbitraryZVertical|-0.7349485589798882|-0.1661065534670485|0.07500951666539254|0.6531715285868819|-0.1067358702421188|0.9850140810012817|0.1354815363883972|0|0|0|-1|-1|3
2021-04-22 22:27:02.174 +0100|142031.2210795|0.037261962890625|0.8528594970703125|0.1066436767578125|142031.2011195|-2.168093772199578|-2.49206992493947|-1.375468875304883|-0.9312195777893066|1.018956065177917|-0.3815628588199615|0.2023623883724213|0.01695597171783447|0.06294800341129303|XArbitraryZVertical|-0.7419892828663555|-0.1635102400741831|0.06348825646822295|0.6470593510397724|-0.1173864454030991|0.9809841513633728|0.1545673906803131|0|0|0|-1|-1|3
2021-04-22 22:27:02.194 +0100|142031.2410395|0.0333251953125|0.7232513427734375|0.1312713623046875|142031.2210795|-2.183728427231879|-2.485831743367479|-1.357852521269703|-0.5539788007736206|1.119664669036865|-0.4279264211654663|0.1784267127513885|-0.0856894850730896|-0.05211555957794189|XArbitraryZVertical|-0.7470822037664205|-0.1600626014191829|0.05154027631528792|0.6431110700742356|-0.1288664191961288|0.9774129986763|0.1675037145614624|0|0|0|-1|-1|3
2021-04-22 22:27:02.214 +0100|142031.2609995|0.041168212890625|0.7548065185546875|0.1368255615234375|142031.2410395|-2.159063015840952|-2.438363698354538|-1.352154639657907|0.443033367395401|1.151814222335815|-0.3240204453468323|0.1736395359039307|-0.2441678643226624|-0.06993985176086426|XArbitraryZVertical|-0.7473705983210132|-0.1554352506181299|0.04024382326156932|0.6447151906480636|-0.1402688324451447|0.9761929512023926|0.1654458492994308|0|0|0|-1|-1|3
2021-04-22 22:27:02.234 +0100|142031.2809595|-0.0289306640625|0.731475830078125|0.0175323486328125|142031.2609995|-2.116983612889947|-2.375468924105273|-1.352999149242943|0.1661649644374847|1.09104311466217|-0.3021666407585144|0.1906817108392715|-0.2021905779838562|0.02878667414188385|XArbitraryZVertical|-0.7451055956191132|-0.1505720843246557|0.03061668249606109|0.6490058406548447|-0.1498190015554428|0.9763758182525635|0.1557085961103439|0|0|0|-1|-1|3
2021-04-22 22:27:02.254 +0100|142031.3009195|-0.110382080078125|1.102401733398438|0.1197509765625|142031.2809595|-2.084147355063968|-2.32224683475861|-1.351463632099387|0.3848012089729309|1.069551587104797|-0.2873719036579132|0.1557951867580414|-0.27638179063797|-0.07760156691074371|XArbitraryZVertical|-0.7436283237029113|-0.1459017539117946|0.02105360173848325|0.6521398607800781|-0.158984586596489|0.9760428667068481|0.1485408097505569|0|0|0|-1|-1|3
2021-04-22 22:27:02.274 +0100|142031.3208795|-0.151031494140625|0.9635772705078125|0.1072845458984375|142031.3009195|-2.019483646595404|-2.237065385139568|-1.358214682944903|1.039549469947815|1.062103033065796|-0.1495901644229889|0.07418729364871979|0.04068368673324585|-0.05389213562011719|XArbitraryZVertical|-0.7386474568874112|-0.1400014443315394|0.01268228541336042|0.659271484144193|-0.1658624410629272|0.9774894714355469|0.1304009407758713|0|0|0|-1|-1|3
2021-04-22 22:27:02.294 +0100|142031.3408395|-0.173248291015625|0.9396514892578125|0.1872711181640625|142031.3208795|-1.908654019674952|-2.108998727733924|-1.37034949602722|1.5177241563797|0.8906785845756531|-0.1499893665313721|0.02671822905540466|0.05172985792160034|-0.0270019918680191|XArbitraryZVertical|-0.7300405371945738|-0.1344298441136665|0.006288753998163418|0.6700223248942994|-0.1709599047899246|0.9799777269363403|0.1020611375570297|0|0|0|-1|-1|3
2021-04-22 22:27:02.314 +0100|142031.3607995|-0.181854248046875|0.943328857421875|0.074676513671875|142031.3408395|-1.783612010146477|-1.968169660270264|-1.375587926559077|0.5638245344161987|0.9788882732391357|-0.5258051156997681|0.004358276724815369|-0.0558972954750061|0.1352003812789917|XArbitraryZVertical|-0.7214457431961889|-0.130573621392204|-0.0008769743929219072|0.680048566335767|-0.1788581907749176|0.9810072779655457|0.07506686449050903|0|0|0|-1|-1|3
2021-04-22 22:27:02.337 +0100|142031.3807605|-0.2576446533203125|1.301544189453125|0.0907745361328125|142031.3607995|-1.763906143129673|-1.928356007871083|-1.362599411343702|-0.4182446897029877|1.071609139442444|-0.7908134460449219|0.02005422115325928|-0.06501424312591553|0.002610906958580017|XArbitraryZVertical|-0.7208787021793424|-0.1284702578230384|-0.01294640519140658|0.6809270745259371|-0.1936233341693878|0.9784051775932312|0.07234141975641251|0|0|0|-1|-1|3
2021-04-22 22:27:02.354 +0100|142031.4007205|-0.3124542236328125|1.500762939453125|0.1008758544921875|142031.3807605|-1.793852898002852|-1.935501275062913|-1.341607878264124|-0.8704595565795898|1.13160240650177|-0.9451367259025574|-0.01758238673210144|0.2420912981033325|0.03870475292205811|XArbitraryZVertical|-0.7241286662826584|-0.1270972887578908|-0.02767681882496904|0.6772873611997993|-0.2122459262609482|0.9738510847091675|0.08103208988904953|0|0|0|-1|-1|3
2021-04-22 22:27:02.374 +0100|142031.4206805|-0.29296875|1.430908203125|0.071197509765625|142031.4007205|-1.830819333832073|-1.94916998927022|-1.318235096957425|-0.8283849358558655|1.092191100120544|-0.9189568161964417|-0.07314951717853546|0.495621919631958|-0.01705242693424225|XArbitraryZVertical|-0.7281949090531096|-0.1260441888286121|-0.04307245475922334|0.6723019064597103|-0.232209786772728|0.9682756066322327|0.09230992943048477|0|0|0|-1|-1|3
2021-04-22 22:27:02.394 +0100|142031.4406405|-0.2760162353515625|1.340286254882812|-0.02252197265625|142031.4206805|-1.867089041178479|-1.963690017061757|-1.294282521315271|-0.858241081237793|0.9685666561126709|-0.9325183629989624|-0.04320782423019409|0.5123369097709656|-0.002883434295654297|XArbitraryZVertical|-0.7324630220596648|-0.1255371901252258|-0.05790807349933152|0.6666222253196082|-0.2522028088569641|0.9620130062103271|0.1045233309268951|0|0|0|-1|-1|3
2021-04-22 22:27:02.414 +0100|142031.4606005|-0.2269744873046875|1.257675170898438|-0.090911865234375|142031.4406405|-1.896958857747213|-1.974203173904969|-1.271010707278809|-0.8599017858505249|0.8430793285369873|-0.8757296800613403|-0.006389856338500977|0.4000077247619629|-0.1081137731671333|XArbitraryZVertical|-0.7363270636577203|-0.1256429487093449|-0.07164883554285233|0.6609862728933688|-0.2716104686260223|0.9553998112678528|0.1159273907542229|0|0|0|-1|-1|3
2021-04-22 22:27:02.434 +0100|142031.4805605|-0.1677703857421875|1.096923828125|-0.166259765625|142031.4606005|-1.932618821787027|-1.992975093701647|-1.247778086798647|-1.115982532501221|0.6446236968040466|-0.8021062612533569|0.04346537590026855|0.3371033072471619|-0.2063138633966446|XArbitraryZVertical|-0.7410274699182715|-0.1261415468757406|-0.0840250320368376|0.6541456240716846|-0.2895596027374268|0.9482816457748413|0.1300667971372604|0|0|0|-1|-1|3
2021-04-22 22:27:02.454 +0100|142031.5005205|-0.1482696533203125|1.032485961914062|-0.2163238525390625|142031.4805605|-1.981377271462387|-2.028965864824836|-1.223915244217418|-1.281091451644897|0.3362446427345276|-0.662753701210022|0.1259484589099884|0.1928325891494751|-0.3003473281860352|XArbitraryZVertical|-0.7476551799384388|-0.127266118691125|-0.09412387748539695|0.6449464934672833|-0.3049040734767914|0.9404376149177551|0.150369867682457|0|0|0|-1|-1|3
2021-04-22 22:27:02.474 +0100|142031.5204805|-0.1399688720703125|0.9861907958984375|-0.285003662109375|142031.5005205|-2.032769685666009|-2.073814292197526|-1.202246555780226|-1.246701002120972|0.01728851720690727|-0.4305908679962158|0.1647284328937531|0.1085613369941711|-0.3744927644729614|XArbitraryZVertical|-0.7551061374752158|-0.1290395307707526|-0.1005099810679917|0.6348712215345383|-0.3156383633613586|0.9328507781028748|0.1736729592084885|0|0|0|-1|-1|3
2021-04-22 22:27:02.494 +0100|142031.5404405|-0.1196441650390625|0.918304443359375|-0.3346099853515625|142031.5204805|-2.073856649689615|-2.114004254270008|-1.185644801080098|-0.8413785696029663|-0.2199639827013016|-0.2636553049087524|0.1793769299983978|0.08071976900100708|-0.4654784202575684|XArbitraryZVertical|-0.7615070944801193|-0.1311630986036322|-0.103301097925903|0.6262844471623182|-0.3216198682785034|0.9267415404319763|0.1941936314105988|0|0|0|-1|-1|3
2021-04-22 22:27:02.514 +0100|142031.5604005|-0.106170654296875|0.8968658447265625|-0.38262939453125|142031.5404405|-2.095802996228029|-2.139819983419379|-1.176634906616906|-0.3578174710273743|-0.3165341913700104|-0.06383060663938522|0.1999550461769104|0.005208671092987061|-0.5329245328903198|XArbitraryZVertical|-0.7652679213515529|-0.1335132616916701|-0.1029935086306257|0.6212340176471729|-0.323521226644516|0.9233189225196838|0.2069215625524521|0|0|0|-1|-1|3
2021-04-22 22:27:02.534 +0100|142031.5803615|-0.0946197509765625|0.9603271484375|-0.36767578125|142031.5604005|-2.10047024331557|-2.15055750118072|-1.176012041123589|0.1652660816907883|-0.3261494934558868|0.1024357825517654|0.2113943099975586|-0.02622932195663452|-0.5874824523925781|XArbitraryZVertical|-0.7661976610936249|-0.1352414851241235|-0.1005158239180995|0.6201189447523321|-0.3217615783214569|0.9230795502662659|0.2106982320547104|0|0|0|-1|-1|3
2021-04-22 22:27:02.554 +0100|142031.6003215|-0.0732879638671875|1.004669189453125|-0.275726318359375|142031.5803615|-2.090783321294547|-2.148244328048071|-1.183384042601996|0.5131420493125916|-0.3228574991226196|0.3116126954555511|0.2212314903736115|0.007261335849761963|-0.5800420045852661|XArbitraryZVertical|-0.764593090424477|-0.1360664407464405|-0.09620074137639301|0.6225985942631708|-0.316538393497467|0.925889790058136|0.206233337521553|0|0|0|-1|-1|3
2021-04-22 22:27:02.574 +0100|142031.6202815|-0.067352294921875|0.98321533203125|-0.2408599853515625|142031.6003215|-2.073294756968017|-2.137960832214964|-1.197653440927254|0.8450109362602234|-0.3467974960803986|0.537824273109436|0.2289750874042511|0.07302498817443848|-0.509125828742981|XArbitraryZVertical|-0.7613252245998375|-0.1353081157856846|-0.09038363999938837|0.6276197582742774|-0.3074667751789093|0.9311861991882324|0.1958487629890442|0|0|0|-1|-1|3
2021-04-22 22:27:02.594 +0100|142031.6402415|-0.0643768310546875|0.84820556640625|-0.1544189453125|142031.6202815|-2.043066484600693|-2.118471442708637|-1.218311100197284|1.202767729759216|-0.5086361169815063|0.6522853970527649|0.2287733554840088|0.06047523021697998|-0.4045093059539795|XArbitraryZVertical|-0.7561790414423422|-0.1344437024720022|-0.08196270558379669|0.6351381885705792|-0.2947376072406769|0.9385176301002502|0.1797637045383453|0|0|0|-1|-1|3
2021-04-22 22:27:02.614 +0100|142031.6602015|-0.0660858154296875|0.686309814453125|-0.052947998046875|142031.6402415|-2.007748102131235|-2.096571760217121|-1.242705893732563|1.035016894340515|-0.6341431140899658|0.8277482986450195|0.2247882485389709|-0.04530775547027588|-0.2990530729293823|XArbitraryZVertical|-0.7503907432443327|-0.1333276847396348|-0.07138344890089106|0.643460882743781|-0.2787132561206818|0.9466593861579895|0.1617250740528107|0|0|0|-1|-1|3
2021-04-22 22:27:02.634 +0100|142031.6801615|-0.0605621337890625|0.6447906494140625|0.0396575927734375|142031.6602015|-1.981683428997991|-2.085789198196429|-1.266880100578693|0.7813454866409302|-0.757839560508728|0.8613540530204773|0.1904977858066559|-0.2380770444869995|-0.210228443145752|XArbitraryZVertical|-0.7458127185113973|-0.1321376602691481|-0.05940489203591649|0.6502108807000814|-0.2604445517063141|0.9541718363761902|0.1473939418792725|0|0|0|-1|-1|3
2021-04-22 22:27:02.654 +0100|142031.7001215|-0.1579132080078125|0.7332000732421875|0.0712432861328125|142031.6801615|-1.977044302451307|-2.099110504929704|-1.287046007374491|0.2520143687725067|-1.035214066505432|0.812598705291748|0.1799443662166595|-0.3167323470115662|-0.1668462753295898|XArbitraryZVertical|-0.743738068109571|-0.1319630181486565|-0.04656941460044044|0.6536596571557559|-0.2417887002229691|0.9600122570991516|0.1411211043596268|0|0|0|-1|-1|3
2021-04-22 22:27:02.674 +0100|142031.7200815|-0.2106781005859375|0.9031219482421875|0.0170745849609375|142031.7001215|-2.014595601845285|-2.158294380712428|-1.298695203147388|-0.4844285845756531|-1.195030093193054|0.740862250328064|0.09574902057647705|-0.2656832933425903|-0.08587037026882172|XArbitraryZVertical|-0.7460563595976931|-0.1337281879034241|-0.03314329330453886|0.6514740517016619|-0.2236944139003754|0.9632083177566528|0.1489666402339935|0|0|0|-1|-1|3
2021-04-22 22:27:02.694 +0100|142031.7400415|-0.1773681640625|1.01116943359375|0.047882080078125|142031.7200815|-2.083577889171202|-2.245861681178457|-1.302303228886674|-0.6584699749946594|-0.9619189500808716|0.6458328366279602|-0.006178021430969238|-0.1032252907752991|-0.1327035576105118|XArbitraryZVertical|-0.7514021527023356|-0.1352319750198347|-0.02163721844599464|0.6454758109294686|-0.2070944458246231|0.9641717672348022|0.1657857596874237|0|0|0|-1|-1|3
2021-04-22 22:27:02.714 +0100|142031.7600015|-0.2197418212890625|0.8460693359375|0.2713165283203125|142031.7400415|-2.145647312079172|-2.326973786533861|-1.305118934445966|-0.4818781316280365|-1.248947381973267|0.6161925792694092|0.008312210440635681|0.04501861333847046|-0.1631883233785629|XArbitraryZVertical|-0.7558274043833973|-0.1371262444696112|-0.01021260841368394|0.6401697608494765|-0.1910060942173004|0.964914858341217|0.1801573485136032|0|0|0|-1|-1|3
2021-04-22 22:27:02.734 +0100|142031.7799625|-0.3271484375|1.225372314453125|0.385101318359375|142031.7600015|-2.205755476539353|-2.413999605792808|-1.30625759614673|-0.5780200362205505|-1.59537410736084|0.6203188300132751|-0.02326591312885284|-0.1099735498428345|-0.004657059907913208|XArbitraryZVertical|-0.7599524344133571|-0.141775061023883|0.003925995621059812|0.6343160102717786|-0.1738932430744171|0.9652131795883179|0.1952557414770126|0|0|0|-1|-1|3
2021-04-22 22:27:02.754 +0100|142031.7999225|-0.334808349609375|1.377883911132812|0.3599090576171875|142031.7799625|-2.272101011037541|-2.50835426839081|-1.303112705473316|-0.7484821081161499|-1.378443360328674|0.472044825553894|-0.152120053768158|0.1443479061126709|0.1551159918308258|XArbitraryZVertical|-0.76485237264885|-0.1470014461962638|0.01817614105626898|0.6269460339473195|-0.156519815325737|0.9643861651420593|0.2132171541452408|0|0|0|-1|-1|3
2021-04-22 22:27:02.773 +0100|142031.8198825|-0.32073974609375|1.32598876953125|0.556121826171875|142031.7999225|-2.322128854728232|-2.582046201302845|-1.293781033056769|-0.555640697479248|-1.249692320823669|0.1290576159954071|-0.1950735449790955|0.4316022396087646|0.1179081201553345|XArbitraryZVertical|-0.7697543834788031|-0.1528646640551573|0.02865265939630436|0.6191040018137217|-0.1451672315597534|0.9618759751319885|0.2317788302898407|0|0|0|-1|-1|3
2021-04-22 22:27:02.793 +0100|142031.8398425|-0.3521881103515625|1.423675537109375|0.6636199951171875|142031.8198825|-2.338342226739735|-2.622288843044837|-1.287953648304847|-0.2982155382633209|-1.189778685569763|-0.06358585506677628|-0.1774141192436218|0.3666839003562927|0.2566701173782349|XArbitraryZVertical|-0.7716622454851539|-0.160262645346398|0.03784643313436128|0.6143459995745806|-0.1385041028261185|0.9602659940719604|0.2422934770584106|0|0|0|-1|-1|3
2021-04-22 22:27:02.814 +0100|142031.8598025|-0.4317779541015625|1.45648193359375|0.5211334228515625|142031.8398425|-2.338111917181755|-2.644411213458807|-1.280898854542734|-0.3215499222278595|-1.046234965324402|-0.244034469127655|-0.2045130431652069|0.4297268986701965|0.4098730683326721|XArbitraryZVertical|-0.7727901030749823|-0.1685771236767036|0.0449010813941966|0.6102139471365936|-0.1363379955291748|0.95827317237854|0.2512455880641937|0|0|0|-1|-1|3
2021-04-22 22:27:02.833 +0100|142031.8797625|-0.386749267578125|1.280990600585938|0.51861572265625|142031.8598025|-2.333588261444285|-2.659691070416266|-1.274592307180364|-0.09270980954170227|-0.8815300464630127|-0.158785879611969|-0.2776975333690643|0.5140684247016907|0.3087491989135742|XArbitraryZVertical|-0.7734723685809671|-0.1762541969236681|0.05080190729928125|0.6067077065586597|-0.1352818161249161|0.956451416015625|0.2586500942707062|0|0|0|-1|-1|3
2021-04-22 22:27:02.853 +0100|142031.8997225|-0.2191314697265625|0.938262939453125|0.348663330078125|142031.8797625|-2.323853116933947|-2.664812283173303|-1.27620293069965|0.2323543876409531|-0.4873924851417542|-0.04561422765254974|-0.2803719639778137|0.3779031038284302|0.2603718936443329|XArbitraryZVertical|-0.7720983269548614|-0.1812438518191546|0.05608652545995713|0.6065222334171188|-0.1332482248544693|0.9569202661514282|0.2579703330993652|0|0|0|-1|-1|3
2021-04-22 22:27:02.873 +0100|142031.9196825|-0.0840606689453125|0.7180328369140625|0.340057373046875|142031.8997225|-2.312285559456853|-2.659432450676017|-1.279952588078512|0.2673185765743256|-0.1697695255279541|-0.05270285159349442|-0.1319384276866913|0.06709837913513184|0.1330015957355499|XArbitraryZVertical|-0.7703456733184884|-0.1833090140953959|0.05835234258224337|0.6079149121983976|-0.1329696178436279|0.9580022692680359|0.2540692985057831|0|0|0|-1|-1|3
2021-04-22 22:27:02.893 +0100|142031.9396425|-0.053375244140625|0.73541259765625|0.36572265625|142031.9196825|-2.307222885332825|-2.657349854260468|-1.28149509559473|-0.08499328047037125|-0.1214735135436058|-0.0007429812103509903|0.02523565292358398|-0.2029352188110352|0.07085132598876953|XArbitraryZVertical|-0.7695921922325173|-0.1843085989623806|0.05943358960980984|0.6084620024948455|-0.1328103095293045|0.9584434628486633|0.252483606338501|0|0|0|-1|-1|3
2021-04-22 22:27:02.913 +0100|142031.9596035|-0.0554656982421875|0.7943115234375|0.34234619140625|142031.9396425|-2.312564435659843|-2.664174340555239|-1.278843872740336|-0.2217272222042084|-0.04290802776813507|0.01625029370188713|0.07597681879997253|-0.2437861561775208|0.1150579452514648|XArbitraryZVertical|-0.7704829127866498|-0.1848682436208372|0.0598482333399085|0.6071229158675591|-0.1322514116764069|0.9576837420463562|0.2556403875350952|0|0|0|-1|-1|3
2021-04-22 22:27:02.933 +0100|142031.9795635|-0.0424346923828125|0.8120269775390625|0.2984619140625|142031.9596035|-2.321603604370077|-2.672532714361484|-1.276209523959489|-0.07785002887248993|0.08375457674264908|0.09447239339351654|0.07430365681648254|-0.174985945224762|0.0875733494758606|XArbitraryZVertical|-0.7716675029579574|-0.1844504226449623|0.05974941913594401|0.6057535005119183|-0.1312496066093445|0.956922173500061|0.2589854001998901|0|0|0|-1|-1|3
2021-04-22 22:27:02.953 +0100|142031.9995235|-0.0377044677734375|0.7980804443359375|0.2429351806640625|142031.9795635|-2.32817691424226|-2.675768032850511|-1.278534351874707|0.1851023733615875|0.2137857526540756|0.1857816278934479|0.08021737635135651|-0.1501147747039795|0.05143311619758606|XArbitraryZVertical|-0.7716413161618347|-0.1824289456693941|0.0595133817612358|0.6064220909923435|-0.1294119209051132|0.957594633102417|0.2574212849140167|0|0|0|-1|-1|3
2021-04-22 22:27:02.973 +0100|142032.0194835|-0.0583343505859375|0.7676239013671875|0.1904449462890625|142031.9995235|-2.334205535208345|-2.676393959555586|-1.28537256121361|0.3378899991512299|0.2900528311729431|0.2798267006874084|0.08932256698608398|-0.1537259221076965|0.003194689750671387|XArbitraryZVertical|-0.7705881110295474|-0.1789294626214837|0.05940778464596107|0.6088095587313257|-0.1263100653886795|0.9595423936843872|0.251643568277359|0|0|0|-1|-1|3
2021-04-22 22:27:02.993 +0100|142032.0394435|-0.0775299072265625|0.7447662353515625|0.203125|142032.0194835|-2.343335798902983|-2.678777279759885|-1.294971387076868|0.4153975248336792|0.3633246421813965|0.3666647672653198|0.07137514650821686|-0.1858795881271362|-0.03327095508575439|XArbitraryZVertical|-0.7690826493938691|-0.1742334970188945|0.05960749849512116|0.6120471026370516|-0.1215920299291611|0.9622008800506592|0.2436908632516861|0|0|0|-1|-1|3
2021-04-22 22:27:03.013 +0100|142032.0594035|-0.0762939453125|0.7982940673828125|0.2346649169921875|142032.0394435|-2.353414773912389|-2.680469693005971|-1.306162199897471|0.402405858039856|0.4272674918174744|0.3530706465244293|0.0398424044251442|-0.2229551672935486|-0.05448818206787109|XArbitraryZVertical|-0.7672484851242801|-0.1686676104183475|0.05955339751896631|0.6159013811437173|-0.1163807213306427|0.9651882648468018|0.2342379987239838|0|0|0|-1|-1|3
2021-04-22 22:27:03.033 +0100|142032.0793635|-0.0759429931640625|0.8387908935546875|0.25830078125|142032.0594035|-2.363429756425738|-2.68118938403854|-1.314842840142826|0.3323946595191956|0.4658174812793732|0.2468610554933548|0.03536693751811981|-0.1864777207374573|0.004548177123069763|XArbitraryZVertical|-0.765978354397323|-0.1633418373581225|0.05857434450335693|0.6190038241128798|-0.1124850809574127|0.9674223661422729|0.2268067896366119|0|0|0|-1|-1|3
2021-04-22 22:27:03.053 +0100|142032.0993235417|-0.090972900390625|0.8741302490234375|0.288330078125|142032.0793635|-2.366201778466216|-2.674827413700628|-1.321586793713153|0.3008638620376587|0.4191640913486481|0.1285677850246429|0.03983505815267563|-0.1284860968589783|0.04495948553085327|XArbitraryZVertical|-0.7647567228812485|-0.1589794853254542|0.05670142898037132|0.6218179763445865|-0.1109870076179504|0.9691076874732971|0.2202546447515488|0|0|0|-1|-1|3
2021-04-22 22:27:03.073 +0100|142032.1192835417|-0.0809783935546875|0.8550567626953125|0.28631591796875|142032.0993235417|-2.360516243950074|-2.660779642159436|-1.328032592276657|0.280803918838501|0.4520469009876251|0.02995030581951141|0.02051115036010742|-0.1026812195777893|0.06773781776428223|XArbitraryZVertical|-0.7631439488284687|-0.1554904234996511|0.0544749922893451|0.6248733553531921|-0.1111791208386421|0.9706773161888123|0.213131919503212|0|0|0|-1|-1|3
2021-04-22 22:27:03.093 +0100|142032.1392435417|-0.0929718017578125|0.9572601318359375|0.247894287109375|142032.1192835417|-2.350037933185614|-2.64161428105667|-1.331892183581967|0.1918078809976578|0.4285356104373932|-0.05878355726599693|0.03042300790548325|-0.1203253269195557|0.06794789433479309|XArbitraryZVertical|-0.7619175180197773|-0.1527027075238823|0.05127949920861067|0.6273230502303921|-0.1134463623166084|0.9715978503227234|0.2076728492975235|0|0|0|-1|-1|3
2021-04-22 22:27:03.113 +0100|142032.1592045417|-0.1115264892578125|1.051727294921875|0.2732391357421875|142032.1392435417|-2.334576484735697|-2.617943773723997|-1.332648436251537|0.1240279152989388|0.4390774071216583|-0.2172902971506119|0.02831657230854034|-0.04549187421798706|0.064552903175354|XArbitraryZVertical|-0.7611478161386473|-0.1509982256068463|0.04728903287071228|0.6289812697862831|-0.1179622262716293|0.97177654504776|0.2042929232120514|0|0|0|-1|-1|3
2021-04-22 22:27:03.133 +0100|142032.1791645417|-0.1573638916015625|1.105606079101562|0.2887725830078125|142032.1592045417|-2.309668930080253|-2.585309212188269|-1.331482402727552|0.06923986971378326|0.3943431675434113|-0.3618136644363403|0.02001471817493439|0.06719523668289185|0.06722830235958099|XArbitraryZVertical|-0.7602725318873882|-0.1504466747485452|0.04245481247711504|0.6305149912343406|-0.1251633167266846|0.9715008139610291|0.2012970447540283|0|0|0|-1|-1|3
2021-04-22 22:27:03.153 +0100|142032.1991245417|-0.189910888671875|1.15155029296875|0.2665863037109375|142032.1791645417|-2.277464633784671|-2.546863552670295|-1.32734729248006|0.01316937431693077|0.322858452796936|-0.4924936294555664|-0.008359402418136597|0.1148912310600281|0.09144417941570282|XArbitraryZVertical|-0.7595305522812122|-0.1514777492303341|0.03703547697285655|0.6315034005282991|-0.135058268904686|0.970512330532074|0.1996643394231796|0|0|0|-1|-1|3
2021-04-22 22:27:03.173 +0100|142032.2190845417|-0.16253662109375|1.096694946289062|0.2649993896484375|142032.1991245417|-2.244719269037348|-2.508841706317238|-1.320558742332578|-0.138737216591835|0.2943523824214935|-0.548335075378418|-0.04044759273529053|0.184725821018219|0.06915256381034851|XArbitraryZVertical|-0.7591377771359452|-0.1534810418450366|0.03128363518600125|0.6318027860540057|-0.146442323923111|0.9688535928726196|0.1996931880712509|0|0|0|-1|-1|3
2021-04-22 22:27:03.193 +0100|142032.2390445417|-0.11572265625|1.058319091796875|0.254852294921875|142032.2190845417|-2.220858787018808|-2.480596349184943|-1.310435623139385|-0.2641367316246033|0.2276451736688614|-0.5420702695846558|-0.01450972259044647|0.1459004878997803|0.06658183038234711|XArbitraryZVertical|-0.7597701305823119|-0.1560588234378106|0.02553789197341484|0.630668619396229|-0.1580369472503662|0.9662972092628479|0.2032100111246109|0|0|0|-1|-1|3
2021-04-22 22:27:03.213 +0100|142032.2590045417|-0.1276397705078125|1.049072265625|0.2132415771484375|142032.2390445417|-2.204462821159681|-2.461724241006246|-1.298606920116083|-0.3996848165988922|0.06412628293037415|-0.5274908542633057|0.04504016041755676|0.1052051186561584|0.05132651329040527|XArbitraryZVertical|-0.7610332082477125|-0.1592528541514677|0.0204798479085195|0.6285281933126459|-0.1690181344747543|0.9631845951080322|0.2090660333633423|0|0|0|-1|-1|3
2021-04-22 22:27:03.233 +0100|142032.2789645417|-0.1563262939453125|1.073348999023438|0.1865997314453125|142032.2590045417|-2.195287719784235|-2.453130400171274|-1.285793982378648|-0.42669877409935|-0.06726833432912827|-0.4786064922809601|0.05946353077888489|0.08503168821334839|0.004944056272506714|XArbitraryZVertical|-0.7628332489686926|-0.1632316342297618|0.01674311445838754|0.6254282852277395|-0.1786349564790726|0.9596610069274902|0.2171182632446289|0|0|0|-1|-1|3
2021-04-22 22:27:03.252 +0100|142032.2989245417|-0.1633453369140625|1.067855834960938|0.1508636474609375|142032.2789645417|-2.18982055340975|-2.449736199661556|-1.273628585063701|-0.4272710382938385|-0.1024027839303017|-0.4019834399223328|0.03697964549064636|0.1109994053840637|-0.02861511707305908|XArbitraryZVertical|-0.7646936678258862|-0.1672908812399443|0.01396109306836501|0.622143584262463|-0.1868059784173965|0.9561696648597717|0.2254852950572968|0|0|0|-1|-1|3
2021-04-22 22:27:03.273 +0100|142032.3188845417|-0.132904052734375|1.0330810546875|0.1187286376953125|142032.2989245417|-2.188627177419374|-2.450132685274503|-1.263283420299008|-0.3347715735435486|-0.05220779031515121|-0.2974975109100342|0.02721157670021057|0.1171771883964539|-0.08663524687290192|XArbitraryZVertical|-0.7665056457878191|-0.1704477276169388|0.01176296667879885|0.6190948471151047|-0.1930138617753983|0.9530893564224243|0.2331666648387909|0|0|0|-1|-1|3
2021-04-22 22:27:03.292 +0100|142032.3388455417|-0.12213134765625|0.9804229736328125|0.12591552734375|142032.3188845417|-2.188328059467271|-2.450362694394977|-1.256036111165418|-0.1920406669378281|-0.002692167181521654|-0.1718457490205765|0.05767905712127686|0.09260135889053345|-0.1074066460132599|XArbitraryZVertical|-0.7678079078968427|-0.1724362832668755|0.01003722056425752|0.6169570988825667|-0.1973582655191422|0.9508706331253052|0.2385265082120895|0|0|0|-1|-1|3
2021-04-22 22:27:03.312 +0100|142032.3588055417|-0.14080810546875|0.9434356689453125|0.1504669189453125|142032.3388455417|-2.184415980464287|-2.446792659094304|-1.253603785383161|0.08331673592329025|-0.01150648482143879|-0.0791197195649147|0.07732853293418884|0.04330849647521973|-0.1198446750640869|XArbitraryZVertical|-0.7679296007399514|-0.1734431425147527|0.009231845114975693|0.6165359476282271|-0.199689045548439|0.9501147866249084|0.2395967841148376|0|0|0|-1|-1|3
2021-04-22 22:27:03.332 +0100|142032.3787655417|-0.1748504638671875|0.918853759765625|0.1634063720703125|142032.3588055417|-2.176125536317812|-2.439244284494997|-1.255170158301522|0.170616939663887|-0.01317628659307957|-0.02529270946979523|0.06553512811660767|-0.0009106993675231934|-0.09114696085453033|XArbitraryZVertical|-0.7669619705289067|-0.1739031527938096|0.009308338132827302|0.6176086513558361|-0.2005299031734467|0.9506021738052368|0.2369459420442581|0|0|0|-1|-1|3
2021-04-22 22:27:03.352 +0100|142032.3987255417|-0.195526123046875|0.964752197265625|0.1733856201171875|142032.3787655417|-2.166884723965449|-2.430381001455719|-1.258451944884249|0.1527791917324066|0.01444325037300587|-0.02158559113740921|0.03392799198627472|-0.03103798627853394|-0.07355284690856934|XArbitraryZVertical|-0.7656141320453684|-0.1738746807816186|0.009645847634526418|0.6192815691830265|-0.2005847692489624|0.9516157507896423|0.2327948063611984|0|0|0|-1|-1|3
2021-04-22 22:27:03.372 +0100|142032.4186855417|-0.1900482177734375|0.986236572265625|0.2073822021484375|142032.3987255417|-2.160365648514342|-2.423151860384209|-1.262207645517432|0.06783372163772583|0.0777091383934021|-0.02003012597560883|0.009646549820899963|-0.0002181529998779297|-0.0545121431350708|XArbitraryZVertical|-0.7644180599941496|-0.173171352992765|0.009911293727673583|0.6209497797494833|-0.1999086886644363|0.9527631402015686|0.2286465764045715|0|0|0|-1|-1|3
2021-04-22 22:27:03.392 +0100|142032.4386455417|-0.1861419677734375|1.000411987304688|0.233612060546875|142032.4186855417|-2.155558198669693|-2.416691193068956|-1.265411157088514|0.03070938587188721|0.08891087770462036|-0.03016522899270058|0.007584273815155029|0.03018581867218018|-0.03400790691375732|XArbitraryZVertical|-0.7634700678494807|-0.1721792753828301|0.009803263699272979|0.6223920362580967|-0.1993570178747177|0.9537312388420105|0.2250645011663437|0|0|0|-1|-1|3
2021-04-22 22:27:03.412 +0100|142032.4586055417|-0.1763153076171875|1.014724731445312|0.2574310302734375|142032.4386455417|-2.152350219839843|-2.4117536448747|-1.267495507846856|0.03274928405880928|0.09654605388641357|-0.04490724578499794|0.01281458139419556|0.03870135545730591|0.009659916162490845|XArbitraryZVertical|-0.7628525208656054|-0.1713292569034583|0.009483635051847596|0.6233879770385323|-0.1991399675607681|0.9543558359146118|0.2225953638553619|0|0|0|-1|-1|3
2021-04-22 22:27:03.432 +0100|142032.4785655417|-0.1779022216796875|1.0035400390625|0.25067138671875|142032.4586055417|-2.147760045549334|-2.405676792122922|-1.268348080797415|-0.00543205626308918|0.0633678138256073|-0.06148001179099083|0.02176536619663239|0.06121301651000977|0.03465567529201508|XArbitraryZVertical|-0.762338676407215|-0.1709637667041218|0.008830293828858783|0.6241260147546688|-0.1999425143003464|0.9546101093292236|0.2207777351140976|0|0|0|-1|-1|3
2021-04-22 22:27:03.452 +0100|142032.4985255417|-0.178070068359375|0.9896392822265625|0.2293243408203125|142032.4785655417|-2.145143815047642|-2.402189232860823|-1.267596324473068|-0.05013173446059227|0.02895284444093704|-0.06051922962069511|0.0257948637008667|0.05757689476013184|0.03744831681251526|XArbitraryZVertical|-0.7622601749155142|-0.1710676862609944|0.008112075201528851|0.6242032166384673|-0.2011949717998505|0.9543859362602234|0.2206094563007355|0|0|0|-1|-1|3
2021-04-22 22:27:03.472 +0100|142032.5184865417|-0.1643829345703125|0.946075439453125|0.193634033203125|142032.4985255417|-2.141458544289918|-2.397927333133778|-1.267002699205435|-0.03216175362467766|0.02881451696157455|-0.08070413023233414|0.02340902388095856|0.03889435529708862|0.01689481735229492|XArbitraryZVertical|-0.7620637134929285|-0.1712962815580475|0.007475637259026373|0.6243883609856357|-0.2025169879198074|0.9542085528373718|0.2201670408248901|0|0|0|-1|-1|3
2021-04-22 22:27:03.492 +0100|142032.5384465417|-0.160675048828125|0.9351806640625|0.1851959228515625|142032.5184865417|-2.140983788284444|-2.39724774046631|-1.265372699740002|-0.1107252687215805|0.007486167829483747|-0.08032587170600891|0.03578133881092072|0.002884209156036377|-0.02360093593597412|XArbitraryZVertical|-0.7623050447748837|-0.1716900346811906|0.006917514149891092|0.6239918814008507|-0.2037198692560196|0.9537196755409241|0.2211728990077972|0|0|0|-1|-1|3
2021-04-22 22:27:03.512 +0100|142032.5584065417|-0.1545867919921875|0.97515869140625|0.1892852783203125|142032.5384465417|-2.147460328679638|-2.40363469467536|-1.262121714876546|-0.2095310539007187|-0.00452612666413188|-0.05850943177938461|0.04204955697059631|-0.02335476875305176|-0.04360887408256531|XArbitraryZVertical|-0.7633990802405616|-0.1720553874050447|0.006445184691685384|0.6225572059837621|-0.2043881416320801|0.952737033367157|0.224762424826622|0|0|0|-1|-1|3
2021-04-22 22:27:03.532 +0100|142032.5783665417|-0.1483001708984375|0.981719970703125|0.2003631591796875|142032.5584065417|-2.159315356312953|-2.415324898259369|-1.257936070311302|-0.2869716286659241|-0.01400080136954784|-0.02090639434754848|0.04629659652709961|0.02068024873733521|-0.03767082095146179|XArbitraryZVertical|-0.7651094310161606|-0.1722367969128369|0.006091089348083025|0.6204072722538354|-0.2043932229280472|0.951457142829895|0.2301159054040909|0|0|0|-1|-1|3
2021-04-22 22:27:03.552 +0100|142032.5983265417|-0.15283203125|1.005889892578125|0.193328857421875|142032.5783665417|-2.171109771789981|-2.427328140577254|-1.254669623381324|-0.1983482539653778|-0.05215708166360855|0.02105250582098961|0.05487771332263947|0.02695494890213013|-0.04349228739738464|XArbitraryZVertical|-0.7666633822652075|-0.1722704433392655|0.006155904790542299|0.6184759604118578|-0.2036512494087219|0.9504467248916626|0.2348996996879578|0|0|0|-1|-1|3
2021-04-22 22:27:03.572 +0100|142032.6182865417|-0.1547393798828125|0.978118896484375|0.17413330078125|142032.5983265417|-2.1782664929248|-2.435374284367886|-1.254445941033803|-0.03283518552780151|-0.06972648948431015|0.06477655470371246|0.0507533997297287|0.05102628469467163|-0.04325491189956665|XArbitraryZVertical|-0.7672927515209956|-0.1720687974557243|0.006970222119115537|0.6177423304380094|-0.2018919587135315|0.9503771662712097|0.2366916686296463|0|0|0|-1|-1|3
2021-04-22 22:27:03.592 +0100|142032.6382465417|-0.1562042236328125|0.912261962890625|0.15313720703125|142032.6182865417|-2.179928814551598|-2.438612001053075|-1.257311956150957|0.1226428225636482|-0.0995139479637146|0.1038443222641945|0.04227374494075775|0.04060202836990356|-0.05644667148590088|XArbitraryZVertical|-0.7669080706938241|-0.1717114745083895|0.008459543925139442|0.6183007379493475|-0.1993632763624191|0.9512648582458496|0.2352656424045563|0|0|0|-1|-1|3
2021-04-22 22:27:03.612 +0100|142032.6582065417|-0.1611175537109375|0.9101715087890625|0.177001953125|142032.6382465417|-2.179264745977636|-2.439947495638339|-1.262211028189278|0.1765362173318863|-0.1035548150539398|0.1140926107764244|0.04042923450469971|-0.02480101585388184|-0.07265135645866394|XArbitraryZVertical|-0.765958819093598|-0.1711489069175088|0.01047671326639903|0.619601213486592|-0.1960386782884598|0.9527642130851746|0.2319697290658951|0|0|0|-1|-1|3
2021-04-22 22:27:03.632 +0100|142032.6781665417|-0.1808319091796875|0.9524078369140625|0.1890411376953125|142032.6582065417|-2.179058495079306|-2.441868527370157|-1.267216151932714|0.09872785210609436|-0.09944688528776169|0.1123337745666504|0.03478832542896271|-0.0511658787727356|-0.05704702436923981|XArbitraryZVertical|-0.7650191642519879|-0.1705661781810317|0.01260369073741423|0.6208817193492059|-0.1925187110900879|0.9542723298072815|0.2286942899227142|0|0|0|-1|-1|3
2021-04-22 22:27:03.652 +0100|142032.6981275417|-0.195831298828125|1.001068115234375|0.2198944091796875|142032.6781665417|-2.179538529958847|-2.444458827466993|-1.271419032517355|0.1555423587560654|-0.103825606405735|0.07438123971223831|0.01420845091342926|-0.01579272747039795|-0.04158961772918701|XArbitraryZVertical|-0.764272625415391|-0.1701323753878301|0.01455865766857244|0.621876602917609|-0.1893491148948669|0.9555203318595886|0.226115345954895|0|0|0|-1|-1|3
2021-04-22 22:27:03.672 +0100|142032.7180875417|-0.2161712646484375|1.043472290039062|0.222900390625|142032.6981275417|-2.174559656361895|-2.441857937804205|-1.27599863036803|0.1960335075855255|-0.1136303469538689|0.03207293525338173|-0.005144938826560974|0.03441065549850464|-0.007625162601470947|XArbitraryZVertical|-0.7630277250934818|-0.1700720757430492|0.0163307368510974|0.623375864688169|-0.1871160417795181|0.9568609595298767|0.2222716361284256|0|0|0|-1|-1|3
2021-04-22 22:27:03.692 +0100|142032.7380475417|-0.231231689453125|1.05023193359375|0.20697021484375|142032.7180875417|-2.164916918302002|-2.434690414311858|-1.280216117027954|0.1900554299354553|-0.1014354676008224|-0.01999958977103233|-0.02505391836166382|0.07900089025497437|0.00335298478603363|XArbitraryZVertical|-0.7614962373011053|-0.1704433531739593|0.0177337134083826|0.6251065784474474|-0.1860822141170502|0.9580777883529663|0.217854917049408|0|0|0|-1|-1|3
2021-04-22 22:27:03.712 +0100|142032.7580075417|-0.236083984375|1.028060913085938|0.2113037109375|142032.7380475417|-2.153321857232547|-2.425317307946294|-1.283351628211794|0.1874634325504303|-0.08365210145711899|-0.04475660249590874|-0.04176276922225952|0.09182494878768921|-0.002590537071228027|XArbitraryZVertical|-0.7600230963545157|-0.1711201802577851|0.01864056229577566|0.626686144273789|-0.186142772436142|0.9589714407920837|0.2138344496488571|0|0|0|-1|-1|3
2021-04-22 22:27:03.732 +0100|142032.7779675417|-0.2284698486328125|0.9948577880859375|0.205169677734375|142032.7580075417|-2.141869649389113|-2.415792206411526|-1.285807677459129|0.1547129899263382|-0.06758035719394684|-0.04497098550200462|-0.05004191398620605|0.07962632179260254|0.000954851508140564|XArbitraryZVertical|-0.7586916941330889|-0.1718471376598847|0.01928344465973674|0.6280793909773771|-0.1866069138050079|0.9596648216247559|0.2102890461683273|0|0|0|-1|-1|3
2021-04-22 22:27:03.752 +0100|142032.7979275417|-0.2102203369140625|0.9598236083984375|0.1849365234375|142032.7779675417|-2.133105705748252|-2.408546486495725|-1.287537761789903|0.1238467544317245|-0.04849118739366531|-0.02366400882601738|-0.04551441967487335|0.04030776023864746|-0.004845753312110901|XArbitraryZVertical|-0.7577019480704299|-0.1724425988675753|0.01976443522035178|0.6290952240394763|-0.1870145350694656|0.9601498246192932|0.2076973766088486|0|0|0|-1|-1|3
2021-04-22 22:27:03.771 +0100|142032.8178875417|-0.1961669921875|0.9494171142578125|0.184326171875|142032.7979275417|-2.126250276267277|-2.402713617380994|-1.289282503067656|0.1520615369081497|-0.03298914059996605|0.007730220910161734|-0.02677281200885773|0.006496548652648926|-0.01554414629936218|XArbitraryZVertical|-0.7568627093156445|-0.1727460597987892|0.02019396989767202|0.6300080016657387|-0.1870946735143661|0.9606359601020813|0.2053647190332413|0|0|0|-1|-1|3
2021-04-22 22:27:03.792 +0100|142032.8378475417|-0.19183349609375|0.948760986328125|0.18426513671875|142032.8178875417|-2.117845419836355|-2.395272662900668|-1.292146805248988|0.181466206908226|-0.04251739755272865|0.05296241492033005|-0.01198260486125946|-0.01152265071868896|-0.0195099413394928|XArbitraryZVertical|-0.7557146634909414|-0.1728235833731031|0.0208238252939532|0.6313428361587174|-0.1867481172084808|0.9614277482032776|0.2019452899694443|0|0|0|-1|-1|3
2021-04-22 22:27:03.812 +0100|142032.8578085417|-0.1814727783203125|0.9179840087890625|0.191619873046875|142032.8378475417|-2.10894047435721|-2.3871439239597|-1.295926542627893|0.213848203420639|-0.01513956859707832|0.07879108190536499|-0.007634133100509644|-0.01548504829406738|-0.01411536335945129|XArbitraryZVertical|-0.7543806568910106|-0.1726137195446505|0.02162311798285403|0.6329666904959089|-0.1858933418989182|0.9624605774879456|0.1977713406085968|0|0|0|-1|-1|3
2021-04-22 22:27:03.831 +0100|142032.8777685417|-0.1766357421875|0.8950042724609375|0.1991119384765625|142032.8578085417|-2.100690707607173|-2.37917740292322|-1.299544179356753|0.1662862598896027|-0.00204768218100071|0.07924675196409225|1.333653926849365e-05|-0.03962349891662598|-0.007286101579666138|XArbitraryZVertical|-0.7531391599428118|-0.1722319577574425|0.02224967503508412|0.6345254598923755|-0.1850569248199463|0.9634361267089844|0.1937648802995682|0|0|0|-1|-1|3
2021-04-22 22:27:03.851 +0100|142032.8977285417|-0.185882568359375|0.9224090576171875|0.21478271484375|142032.8777685417|-2.097582323319372|-2.376078713919977|-1.301561363536284|0.03843734785914421|0.00484969187527895|0.05199160054326057|0.007505819201469421|-0.06686484813690186|0.006454214453697205|XArbitraryZVertical|-0.7525642208242174|-0.1718768072944989|0.02263825620223132|0.6352897631858617|-0.1843096762895584|0.96397465467453|0.1917890906333923|0|0|0|-1|-1|3
2021-04-22 22:27:03.871 +0100|142032.9176885417|-0.20086669921875|0.937652587890625|0.205352783203125|142032.8977285417|-2.096906482680611|-2.375139306314846|-1.302189999339081|0.0196984801441431|0.01104574929922819|0.02689077705144882|0.0005822926759719849|-0.050811767578125|0.01708899438381195|XArbitraryZVertical|-0.7524103258589656|-0.1716635687422081|0.02267687151878693|0.6355283003798359|-0.1840694844722748|0.9641416668891907|0.1911793649196625|0|0|0|-1|-1|3
2021-04-22 22:27:03.891 +0100|142032.9376485417|-0.1914215087890625|0.9050750732421875|0.193634033203125|142032.9176885417|-2.094330218277372|-2.371992137413363|-1.303144804057106|0.0994299128651619|0.04283616691827774|0.01380435843020678|-0.01648649573326111|-0.02361416816711426|0.01938343048095703|XArbitraryZVertical|-0.7520635517897838|-0.1713748224148899|0.02258189908926101|0.6360198619994691|-0.1840295344591141|0.9643946290016174|0.1899378299713135|0|0|0|-1|-1|3
2021-04-22 22:27:03.911 +0100|142032.9576085417|-0.1829071044921875|0.89501953125|0.172576904296875|142032.9376485417|-2.088446430693446|-2.365043538487145|-1.304389420941288|0.08846142143011093|0.07803250849246979|-0.01840577460825443|-0.01064179837703705|-0.05059987306594849|0.008965566754341125|XArbitraryZVertical|-0.7514284710468908|-0.1710382976409731|0.02219545393972143|0.6368740044733042|-0.1845030933618546|0.9647230505943298|0.1877976953983307|0|0|0|-1|-1|3
2021-04-22 22:27:03.931 +0100|142032.9775685417|-0.1840362548828125|0.9347076416015625|0.175201416015625|142032.9576085417|-2.082925362328488|-2.358074291162174|-1.30472192107569|0.08628489822149277|0.09479934722185135|-0.04642293974757195|0.001453191041946411|-0.07439941167831421|-0.005035176873207092|XArbitraryZVertical|-0.7509773877169736|-0.170801375900695|0.02143138835920797|0.6374955767750796|-0.1855812668800354|0.9648105502128601|0.1862802952528|0|0|0|-1|-1|3
2021-04-22 22:27:03.951 +0100|142032.9975285417|-0.18719482421875|0.9526824951171875|0.1747894287109375|142032.9775685417|-2.076100761335169|-2.349653570841827|-1.304695821268198|0.09437926113605499|0.08574464172124863|-0.07545202225446701|0.0004846751689910889|-0.03833609819412231|-0.01909306645393372|XArbitraryZVertical|-0.7504871417585864|-0.1706846909976771|0.02043955708981369|0.6381363461526328|-0.1871609538793564|0.9648036956787109|0.1847284287214279|0|0|0|-1|-1|3
2021-04-22 22:27:03.971 +0100|142033.0174885417|-0.18743896484375|0.956146240234375|0.1852569580078125|142032.9975285417|-2.070045854162393|-2.342156786053628|-1.303800836976574|0.02527409046888351|0.09123682975769043|-0.08801618963479996|0.003811106085777283|-0.01452541351318359|-0.005240693688392639|XArbitraryZVertical|-0.7501900696221753|-0.1708098854756023|0.01930183978057517|0.6384875587991118|-0.1891598701477051|0.9645679593086243|0.1839223206043243|0|0|0|-1|-1|3
2021-04-22 22:27:03.991 +0100|142033.0374495417|-0.186309814453125|0.9874420166015625|0.1959991455078125|142033.0174885417|-2.065020164875321|-2.335627704095157|-1.301896899456022|-0.007829466834664345|0.08416549861431122|-0.1075495854020119|0.003678008913993835|-0.01261734962463379|-0.003259286284446716|XArbitraryZVertical|-0.7501265243850519|-0.1711366674140022|0.01790695573304039|0.63851548062179|-0.1916818618774414|0.9640638828277588|0.183955118060112|0|0|0|-1|-1|3
2021-04-22 22:27:04.011 +0100|142033.0574095417|-0.172698974609375|0.99066162109375|0.192138671875|142033.0374495417|-2.060359822773361|-2.329344920434422|-1.299682673080979|0.0009688681457191706|0.09781457483768463|-0.1329620033502579|0.006073564291000366|0.01635450124740601|0.01257894933223724|XArbitraryZVertical|-0.7501317622699427|-0.1714928805053983|0.0163959005004474|0.6384542956939783|-0.1943825632333755|0.9634732604026794|0.1842149347066879|0|0|0|-1|-1|3
2021-04-22 22:27:04.031 +0100|142033.0773695417|-0.168731689453125|0.997100830078125|0.184051513671875|142033.0574095417|-2.051994174663276|-2.319546017037302|-1.297845835321292|0.02500614523887634|0.07236631214618683|-0.1546982824802399|0.02204418182373047|0.03256481885910034|0.01371495425701141|XArbitraryZVertical|-0.7497763294295684|-0.1720132379615177|0.01485696518339417|0.6387695147893822|-0.1974748224020004|0.9629797339439392|0.183506190776825|0|0|0|-1|-1|3
2021-04-22 22:27:04.051 +0100|142033.097328875|-0.1700286865234375|0.9913787841796875|0.1761627197265625|142033.0773695417|-2.043136575199239|-2.309830107105112|-1.296104985828993|0.0212311465293169|0.04794059693813324|-0.1577323228120804|0.03199899196624756|0.03065508604049683|0.002428546547889709|XArbitraryZVertical|-0.7493480562381089|-0.1727172805433763|0.01353462260617171|0.6391113133634857|-0.2004868537187576|0.9625089764595032|0.1827075332403183|0|0|0|-1|-1|3
2021-04-22 22:27:04.071 +0100|142033.117288875|-0.17669677734375|1.016571044921875|0.1780853271484375|142033.097328875|-2.035495227091497|-2.30200477425194|-1.293892532526767|-0.01692098379135132|0.009539253078401089|-0.1553522646427155|0.03459502756595612|0.03176099061965942|-7.343292236328125e-05|XArbitraryZVertical|-0.7490690275756849|-0.1737032558354248|0.01239231655997825|0.6391943049280131|-0.2034948617219925|0.9619064927101135|0.1825544536113739|0|0|0|-1|-1|3
2021-04-22 22:27:04.091 +0100|142033.137248875|-0.1805877685546875|1.011245727539062|0.1581878662109375|142033.117288875|-2.031864801624827|-2.298527705066479|-1.291273239394884|-0.07540583610534668|-0.0009737894870340824|-0.1420522630214691|0.02958641946315765|0.04711353778839111|-0.007479190826416016|XArbitraryZVertical|-0.7491612164277203|-0.174693887219411|0.01147397562898449|0.6388332969623897|-0.2060088217258453|0.9611871242523193|0.1835209578275681|0|0|0|-1|-1|3
2021-04-22 22:27:04.111 +0100|142033.157208875|-0.1754913330078125|1.022354125976562|0.172515869140625|142033.137248875|-2.031288601671638|-2.298037919387315|-1.288804754791794|-0.03004028089344501|0.01063061505556107|-0.1130544245243073|0.02810639142990112|0.05097126960754395|-0.02546502649784088|XArbitraryZVertical|-0.7494762118743772|-0.1754532120132098|0.0107421419165035|0.6382681990387506|-0.2078704535961151|0.9605031609535217|0.1849968433380127|0|0|0|-1|-1|3
2021-04-22 22:27:04.131 +0100|142033.177168875|-0.1809234619140625|1.00592041015625|0.172027587890625|142033.157208875|-2.029845855207677|-2.296722829749261|-1.287542488536815|-0.009520174935460091|-0.00551889929920435|-0.09410852938890457|0.03175890445709229|0.06238609552383423|-0.01667343080043793|XArbitraryZVertical|-0.7495411714864867|-0.1759324496843621|0.01033481404113584|0.6380668026218511|-0.2090205699205399|0.9601511359214783|0.1855283826589584|0|0|0|-1|-1|3
2021-04-22 22:27:04.151 +0100|142033.197129875|-0.1920318603515625|1.00799560546875|0.168701171875|142033.177168875|-2.027961776298517|-2.295479289705577|-1.286990455638438|0.01816488243639469|-0.02832162939012051|-0.06719622015953064|0.03198949992656708|0.04999774694442749|-0.01070688664913177|XArbitraryZVertical|-0.7494620671024762|-0.1763984671108533|0.01030583550184241|0.6380315171359494|-0.2096478939056396|0.9599967002868652|0.1856196224689484|0|0|0|-1|-1|3
2021-04-22 22:27:04.171 +0100|142033.217089875|-0.1833648681640625|0.9821929931640625|0.164276123046875|142033.197129875|-2.025744775340916|-2.293968904503131|-1.287318464018099|0.02855846844613552|-0.01984340324997902|-0.04524537920951843|0.01772074401378632|0.05246949195861816|-0.01987098157405853|XArbitraryZVertical|-0.7492266239736294|-0.1766539727403328|0.01054490731249985|0.6382333935115766|-0.2096918821334839|0.9600884914398193|0.1850943267345428|0|0|0|-1|-1|3
2021-04-22 22:27:04.191 +0100|142033.237049875|-0.1897735595703125|0.9943389892578125|0.1672515869140625|142033.217089875|-2.022426384762236|-2.291345700882929|-1.288127395719599|0.04613910987973213|-0.03010046295821667|-0.02994072623550892|0.02555614709854126|0.02608978748321533|-0.01709844172000885|XArbitraryZVertical|-0.7488303691771481|-0.1768289643087693|0.01086294535442173|0.638644421176939|-0.2095926553010941|0.9603144526481628|0.1840308159589767|0|0|0|-1|-1|3
2021-04-22 22:27:04.211 +0100|142033.257009875|-0.197967529296875|0.984283447265625|0.16607666015625|142033.237049875|-2.019815715710591|-2.289536337432511|-1.289327304544229|0.04152456670999527|-0.03425179794430733|-0.01511863525956869|0.02067293226718903|0.02880764007568359|-0.01699793338775635|XArbitraryZVertical|-0.7484367989289017|-0.1768861919565891|0.01137767824056935|0.6390808962648005|-0.2090582251548767|0.9606484174728394|0.1828927397727966|0|0|0|-1|-1|3
2021-04-22 22:27:04.230 +0100|142033.276969875|-0.202606201171875|0.991729736328125|0.1677093505859375|142033.257009875|-2.017364996988662|-2.288071469332363|-1.290553999451068|0.06812772899866104|-0.04628454148769379|-0.01804083399474621|0.01185858249664307|0.02833038568496704|-0.01692400872707367|XArbitraryZVertical|-0.7480523474109212|-0.1769845618406191|0.01197963462109335|0.6394926933294797|-0.2084378749132156|0.960988461971283|0.1818117052316666|0|0|0|-1|-1|3
2021-04-22 22:27:04.250 +0100|142033.296929875|-0.2044525146484375|0.9876861572265625|0.1653900146484375|142033.276969875|-2.012775488174176|-2.284527940142675|-1.292203851503328|0.07391596585512161|-0.04153799265623093|0.003547904081642628|0.007380962371826172|0.02392327785491943|-0.01271963119506836|XArbitraryZVertical|-0.7474318017953729|-0.1770944607285669|0.01261734883941586|0.640175154525476|-0.2078817337751389|0.9614434838294983|0.1800334900617599|0|0|0|-1|-1|3
2021-04-22 22:27:04.271 +0100|142033.316889875|-0.2048797607421875|0.9762725830078125|0.156280517578125|142033.296929875|-2.008805775561271|-2.281582189061382|-1.294151471058576|0.1164997741580009|-0.04744760319590569|0.01711892895400524|0.001943856477737427|0.02929472923278809|-0.01405845582485199|XArbitraryZVertical|-0.7468223451803785|-0.1770750772953389|0.01337305633980506|0.6408760909174316|-0.2069917768239975|0.9619772434234619|0.1781983971595764|0|0|0|-1|-1|3
2021-04-22 22:27:04.291 +0100|142033.336849875|-0.2097625732421875|0.9864501953125|0.1555328369140625|142033.316889875|-2.003572604241657|-2.277561786224281|-1.296800287485678|0.1554358452558517|-0.04528617858886719|0.03367429226636887|0.001605048775672913|0.01082855463027954|-0.01755082607269287|XArbitraryZVertical|-0.7460120822124743|-0.1769764157696556|0.01434824507113201|0.6418252169524388|-0.2057679295539856|0.9626973271369934|0.1757093518972397|0|0|0|-1|-1|3
2021-04-22 22:27:04.310 +0100|142033.356810875|-0.217376708984375|0.9765777587890625|0.1635894775390625|142033.336849875|-1.997305330985216|-2.272427542136037|-1.299426593379838|0.124598816037178|-0.04861747473478317|0.02226557582616806|-0.004249662160873413|0.02740925550460815|-0.01252439618110657|XArbitraryZVertical|-0.745126478460279|-0.176904813362759|0.0152405886013404|0.6428521882857138|-0.2047349661588669|0.963404655456543|0.1730175614356995|0|0|0|-1|-1|3
2021-04-22 22:27:04.330 +0100|142033.376770875|-0.229034423828125|1.013259887695312|0.1829376220703125|142033.356810875|-1.991371995786755|-2.267766929928031|-1.301362670916512|0.08667062222957611|-0.04921966791152954|0.01058868039399385|-0.01038424670696259|0.01230484247207642|-0.01511646807193756|XArbitraryZVertical|-0.7443681858439003|-0.1770539145311553|0.01600016720694319|0.6436707245996129|-0.2041088193655014|0.9639217853546143|0.1708641648292542|0|0|0|-1|-1|3
2021-04-22 22:27:04.350 +0100|142033.396730875|-0.23370361328125|1.01165771484375|0.1858978271484375|142033.376770875|-1.987785610218334|-2.265015977418049|-1.302287530765599|0.04070438072085381|-0.02964820340275764|-0.007547268643975258|-0.02295936644077301|0.03981500864028931|0.0124896913766861|XArbitraryZVertical|-0.7439449896839835|-0.1772339421328718|0.01641211273633271|0.6441000490921954|-0.2038933634757996|0.964167594909668|0.1697320342063904|0|0|0|-1|-1|3
2021-04-22 22:27:04.370 +0100|142033.416690875|-0.2244415283203125|0.980682373046875|0.1931304931640625|142033.396730875|-1.982918873189974|-2.260867128031691|-1.30320589571184|0.1094955801963806|-0.02617677301168442|-0.00757132563740015|-0.02947144210338593|0.05028313398361206|0.01454231142997742|XArbitraryZVertical|-0.7434215380491018|-0.1774387634166082|0.01671742026746646|0.6446397634929609|-0.2039119899272919|0.9644107818603516|0.1683201938867569|0|0|0|-1|-1|3
2021-04-22 22:27:04.390 +0100|142033.436650875|-0.209991455078125|0.9463043212890625|0.1898193359375|142033.416690875|-1.975056054596923|-2.253654709351586|-1.304463226340437|0.1064575389027596|-0.02021976187825203|-0.02749194763600826|-0.02279457449913025|0.02669715881347656|0.02734147012233734|XArbitraryZVertical|-0.7426135931330359|-0.1776657522629025|0.01695829216597246|0.6455017019994423|-0.2041801810264587|0.9647424817085266|0.1660801321268082|0|0|0|-1|-1|3
2021-04-22 22:27:04.410 +0100|142033.456610875|-0.214385986328125|0.9576263427734375|0.1831207275390625|142033.436650875|-1.967989308268458|-2.24729637756173|-1.30476204895074|0.03306170552968979|-0.03452908620238304|-0.05121343582868576|-0.007013246417045593|-0.0125352144241333|0.02400128543376923|XArbitraryZVertical|-0.7419990601773023|-0.1781479868766105|0.01697171653777595|0.6460750390187393|-0.205007940530777|0.9648211002349854|0.1645986139774323|0|0|0|-1|-1|3
2021-04-22 22:27:04.430 +0100|142033.476570875|-0.20880126953125|0.96087646484375|0.174163818359375|142033.456610875|-1.964895652832664|-2.245013021425721|-1.303555055741469|-0.0192436408251524|-0.03395000845193863|-0.06823857873678207|-0.008734554052352905|-0.009745359420776367|0.0219578891992569|XArbitraryZVertical|-0.7419017705096718|-0.1789138452139248|0.01675235696711811|0.6459808081321935|-0.2062926143407822|0.9645030498504639|0.164856806397438|0|0|0|-1|-1|3
2021-04-22 22:27:04.450 +0100|142033.496531875|-0.2040557861328125|0.9642333984375|0.16162109375|142033.476570875|-1.963025357450541|-2.243794379899418|-1.301805860950863|-0.02329722233116627|-0.0281386710703373|-0.07117541879415512|-0.00262199342250824|-0.001149117946624756|0.01235365867614746|XArbitraryZVertical|-0.7419739357372165|-0.1797303260912312|0.01636493810195943|0.6456811231670406|-0.2078122496604919|0.96403968334198|0.1656566262245178|0|0|0|-1|-1|3
2021-04-22 22:27:04.470 +0100|142033.516491875|-0.2054290771484375|0.9567718505859375|0.1629638671875|142033.496531875|-1.961486884817424|-2.242992823439709|-1.300233644787668|0.004165144637227058|-0.03514464944601059|-0.05426772683858871|0.005334034562110901|0.00142139196395874|0.0004835128784179688|XArbitraryZVertical|-0.7420472938642741|-0.180506618510025|0.01607895713158912|0.645387396720689|-0.2091307044029236|0.963620662689209|0.166433647274971|0|0|0|-1|-1|3
2021-04-22 22:27:04.490 +0100|142033.536451875|-0.207183837890625|0.9408416748046875|0.1587066650390625|142033.516491875|-1.9581361565139|-2.240726161276291|-1.299887192455977|0.08645274490118027|-0.04588741809129715|-0.02515360526740551|0.005666598677635193|-0.008144915103912354|-0.001934424042701721|XArbitraryZVertical|-0.741807552214431|-0.1811202288099699|0.01621261726294098|0.6454875895002354|-0.2097684293985367|0.9635279774665833|0.1661659628152847|0|0|0|-1|-1|3
2021-04-22 22:27:04.510 +0100|142033.556411875|-0.207000732421875|0.9233551025390625|0.156524658203125|142033.536451875|-1.95192885118978|-2.235565877203309|-1.300916677024081|0.1586330235004425|-0.02545713447034359|0.004206237383186817|0.001269981265068054|-0.01806336641311646|-0.00531923770904541|XArbitraryZVertical|-0.7411548753631437|-0.1814503812563737|0.01662261320007247|0.6461339346254014|-0.209842637181282|0.9638029932975769|0.1644695848226547|0|0|0|-1|-1|3
2021-04-22 22:27:04.530 +0100|142033.576371875|-0.207733154296875|0.897552490234375|0.160125732421875|142033.556411875|-1.943555990701381|-2.227960003614229|-1.302910343546156|0.1474003344774246|-0.01291721500456333|0.01764259487390518|0.002320483326911926|-0.03679674863815308|-0.004054799675941467|XArbitraryZVertical|-0.7402063863008042|-0.1814987321845936|0.01713302481097411|0.6471933978565788|-0.2095656096935272|0.964332640171051|0.1616945713758469|0|0|0|-1|-1|3
2021-04-22 22:27:04.550 +0100|142033.596331875|-0.209625244140625|0.9082183837890625|0.1740875244140625|142033.576371875|-1.937285727606729|-2.222193079712067|-1.304792489031937|0.1055958941578865|-0.005328430328518152|0.01455208566039801|0.001943066716194153|-0.0633704662322998|-0.002627849578857422|XArbitraryZVertical|-0.7394522113624578|-0.1813883745439202|0.01761768919856822|0.6480728554957564|-0.2090508788824081|0.9648290872573853|0.159382626414299|0|0|0|-1|-1|3
2021-04-22 22:27:04.570 +0100|142033.616291875|-0.21240234375|0.921905517578125|0.1747283935546875|142033.596331875|-1.933907168713328|-2.218971312911767|-1.305802983708927|0.04516282677650452|0.001279990654438734|0.001882984535768628|-0.00094623863697052|-0.06032443046569824|0.01464152336120605|XArbitraryZVertical|-0.739049226518979|-0.1812900638318575|0.0178382245687965|0.6485538609797614|-0.2087860852479935|0.965094268321991|0.1581196933984756|0|0|0|-1|-1|3
2021-04-22 22:27:04.590 +0100|142033.636251875|-0.2123870849609375|0.9267120361328125|0.169586181640625|142033.616291875|-1.932028648664881|-2.217150855033718|-1.306187812140298|0.04050527513027191|0.01037702895700932|0.003039950272068381|-0.001824721693992615|-0.0461428165435791|0.02354623377323151|XArbitraryZVertical|-0.738847822763235|-0.1812783178682132|0.01789539180074555|0.6487850664103266|-0.2087773829698563|0.9651949405670166|0.1575158685445786|0|0|0|-1|-1|3
2021-04-22 22:27:04.610 +0100|142033.656212875|-0.2117767333984375|0.9312744140625|0.1805877685546875|142033.636251875|-1.929416919425508|-2.214387204171299|-1.306601346883142|0.0478183813393116|0.01678571291267872|0.001477473648265004|-0.005280598998069763|-0.03830128908157349|0.01111911237239838|XArbitraryZVertical|-0.7385850270966826|-0.181221718293822|0.0178519889952533|0.6491010912384862|-0.2088920027017593|0.9653030037879944|0.1566983014345169|0|0|0|-1|-1|3
2021-04-22 22:27:04.630 +0100|142033.676172875|-0.2178955078125|0.926910400390625|0.170867919921875|142033.676172875|-1.924728789450894|-2.209104201298191|-1.306468872908424|0.02237527258694172|0.02605745382606983|-0.033594761043787|-0.00481027364730835|-0.03478753566741943|0.01742780208587646|XArbitraryZVertical|-0.7382228682361028|-0.1812775612036077|0.01738169770859114|0.6495102267794262|-0.2098201215267181|0.9652684330940247|0.1556691080331802|0|0|0|-1|-1|3
2021-04-22 22:27:04.650 +0100|142033.696132875|-0.2251739501953125|0.938629150390625|0.1743316650390625||||||||||||||||||||||||3
2021-04-22 22:27:04.670 +0100|142033.716092875|-0.225616455078125|0.949798583984375|0.1668701171875|142033.696132875|-1.923518945213892|-2.207316003963538|-1.305433368826433|0.007592249661684036|0.05432078614830971|-0.05483453348278999|-0.01375362277030945|-0.03042703866958618|0.01740755140781403|XArbitraryZVertical|-0.7382530841544462|-0.1814558693590232|0.01678840668815635|0.6494416928135066|-0.2109018266201019|0.9649973511695862|0.1558876931667328|0|0|0|-1|-1|3
2021-04-22 22:27:04.692 +0100|142033.736052875|-0.2239227294921875|0.964263916015625|0.17431640625|142033.716092875|-1.920908692325561|-2.203629289197308|-1.304019942978489|0.01069804467260838|0.06089527532458305|-0.07800590246915817|-0.01349952816963196|-0.01537638902664185|0.008636131882667542|XArbitraryZVertical|-0.7382150523952182|-0.181649271273348|0.01582942971255804|0.649455003113444|-0.2125750035047531|0.9646257162094116|0.155915841460228|0|0|0|-1|-1|3
2021-04-22 22:27:04.710 +0100|142033.756012875|-0.2342529296875|0.969482421875|0.1712493896484375|142033.736052875|-1.918498565871986|-2.200236425156179|-1.302588797779728|0.00549108162522316|0.04906535521149635|-0.06823396682739258|-0.009597942233085632|-0.006071865558624268|0.01583957672119141|XArbitraryZVertical|-0.7381912656186791|-0.1818699574652683|0.01490788395855048|0.6494420270266223|-0.2142182439565659|0.964247465133667|0.1560060530900955|0|0|0|-1|-1|3
2021-04-22 22:27:04.730 +0100|142033.775972875|-0.2322998046875|0.95367431640625|0.172943115234375|142033.756012875|-1.916442168072024|-2.197381138436558|-1.301330724348164|0.01560608390718699|0.05058277398347855|-0.06613263487815857|-0.01624298095703125|0.007583141326904297|0.01542043685913086|XArbitraryZVertical|-0.7381722473996302|-0.1820828354721005|0.01412399685297754|0.6494214784937686|-0.2156451195478439|0.9639133214950562|0.1561048477888107|0|0|0|-1|-1|3
2021-04-22 22:27:04.751 +0100|142033.795932875|-0.2325439453125|0.94964599609375|0.16461181640625|142033.775972875|-1.914485798157775|-2.194617194449185|-1.299773016515559|-0.02991106733679771|0.04994457215070724|-0.07099912315607071|-0.01628768444061279|-0.006359517574310303|0.01753579080104828|XArbitraryZVertical|-0.7381938182633793|-0.1823798909533422|0.01324591075114198|0.6493320883654052|-0.2172941267490387|0.9634974598884583|0.1563850790262222|0|0|0|-1|-1|3
2021-04-22 22:27:04.770 +0100|142033.815893875|-0.23223876953125|0.962005615234375|0.1700592041015625|142033.795932875|-1.914935321865817|-2.193986522199516|-1.297596272147404|-0.0636284351348877|0.05493411049246788|-0.08214028179645538|-0.01087053120136261|-0.01552492380142212|0.008987888693809509|XArbitraryZVertical|-0.7384900472912076|-0.1826695756622733|0.01217772915407926|0.6489345457391033|-0.2190949320793152|0.962912380695343|0.1574714481830597|0|0|0|-1|-1|3
2021-04-22 22:27:04.790 +0100|142033.835853875|-0.2311248779296875|0.946380615234375|0.161163330078125|142033.815893875|-1.916391552129979|-2.194374434395734|-1.295104566168051|-0.08153289556503296|0.0556306354701519|-0.09162965416908264|-0.01115135848522186|0.0004854202270507812|0.01073728501796722|XArbitraryZVertical|-0.7389077494655044|-0.1830131751000364|0.01105960238269539|0.6483820319154993|-0.2209808528423309|0.9622371196746826|0.1589569747447968|0|0|0|-1|-1|3
2021-04-22 22:27:04.809 +0100|142033.855813875|-0.2279052734375|0.9597625732421875|0.163848876953125|142033.835853875|-1.917027726677274|-2.193903058002347|-1.292445932081353|-0.05122361332178116|0.05476190894842148|-0.1038678586483002|-0.008755788207054138|-0.010567307472229|0.001841872930526733|XArbitraryZVertical|-0.7392736537550851|-0.1834310707936694|0.009837592918193928|0.6478662961682926|-0.2231322675943375|0.9615100026130676|0.1603449881076813|0|0|0|-1|-1|3
2021-04-22 22:27:04.829 +0100|142033.875773875|-0.2283782958984375|0.9631195068359375|0.15533447265625|142033.855813875|-1.916659165038395|-2.192493890493211|-1.28975323184659|-0.06944579631090164|0.05146662145853043|-0.112367071211338|-0.003831759095191956|-0.004071176052093506|0.003563284873962402|XArbitraryZVertical|-0.7395537854695543|-0.1839273002787094|0.00858317396683197|0.647423695969778|-0.2254623472690582|0.9607666730880737|0.1615381091833115|0|0|0|-1|-1|3
2021-04-22 22:27:04.849 +0100|142033.895733875|-0.234375|0.97442626953125|0.156524658203125|142033.875773875|-1.916564211291507|-2.191600998271475|-1.286948891660657|-0.0741625502705574|0.03504237532615662|-0.100249245762825|0.001783072948455811|0.0003874897956848145|-0.0006244629621505737|XArbitraryZVertical|-0.7398666382004631|-0.1845231148106504|0.007395644553516892|0.6469109993700916|-0.2277964800596237|0.959985077381134|0.1629028469324112|0|0|0|-1|-1|3
2021-04-22 22:27:04.869 +0100|142033.915693875|-0.233428955078125|0.9595489501953125|0.15313720703125|142033.895733875|-1.917429174093755|-2.191776928661547|-1.284433656945705|-0.08631253987550735|0.03134297579526901|-0.09167022258043289|-0.005086451768875122|0.01687270402908325|-0.0121704488992691|XArbitraryZVertical|-0.7402300971779934|-0.185022147175746|0.00638432577064604|0.6463633114451054|-0.2297313213348389|0.9592776298522949|0.1643475890159607|0|0|0|-1|-1|3
2021-04-22 22:27:04.889 +0100|142033.935653875|-0.2339935302734375|0.9686126708984375|0.1519012451171875|142033.915693875|-1.919090218175111|-2.192830667756462|-1.282005121594337|-0.09590110182762146|0.02315003052353859|-0.0743672251701355|-0.001078426837921143|0.0005173683166503906|-0.01509681344032288|XArbitraryZVertical|-0.7406547112648293|-0.1854826909548458|0.00546914431732428|0.6457529771609394|-0.2314504981040955|0.9585888385772705|0.1659464538097382|0|0|0|-1|-1|3
2021-04-22 22:27:04.909 +0100|142033.955614875|-0.229248046875|0.95703125|0.1561126708984375|142033.935653875|-1.921497244023799|-2.194579206359677|-1.279853293493513|-0.07415684312582016|0.02912403084337711|-0.06196088716387749|-0.000961601734161377|0.008929729461669922|-0.01432551443576813|XArbitraryZVertical|-0.7411166405364048|-0.1858059658946877|0.004659494090532019|0.6451361439548642|-0.2328338325023651|0.9579737782478333|0.1675554662942886|0|0|0|-1|-1|3
2021-04-22 22:27:04.929 +0100|142033.975574875|-0.23284912109375|0.9574127197265625|0.15643310546875|142033.955614875|-1.922029772223027|-2.194680235696893|-1.278468449950096|-0.02917192317545414|0.01132261101156473|-0.05274839326739311|0.004050090909004211|0.004612982273101807|-0.01484930515289307|XArbitraryZVertical|-0.7413223309813726|-0.1860595729313849|0.004087475481268854|0.6448305617842435|-0.2338935285806656|0.9575756192207336|0.1683539301156998|0|0|0|-1|-1|3
2021-04-22 22:27:04.949 +0100|142033.995534875|-0.2399139404296875|0.9608612060546875|0.1501617431640625|142033.975574875|-1.920883132401149|-2.193296247133205|-1.2776386018104|-0.02510973811149597|0.008253477513790131|-0.03769531473517418|0.002914339303970337|-0.002685368061065674|-0.01102149486541748|XArbitraryZVertical|-0.7413117167869849|-0.1862891402122198|0.003681796742558694|0.6447789519247016|-0.2347719222307205|0.9573361277580261|0.1684934049844742|0|0|0|-1|-1|3
2021-04-22 22:27:04.969 +0100|142034.015494875|-0.2387237548828125|0.947265625|0.1566009521484375|142033.995534875|-1.919516043309101|-2.191778578171814|-1.277135212620181|-0.0005304582882672548|0.00809043925255537|-0.02631811425089836|-0.002343446016311646|0.006569743156433105|-0.01624011993408203|XArbitraryZVertical|-0.7412434065238726|-0.18645872916543|0.003400788297410788|0.6448100113528505|-0.235419288277626|0.9571905732154846|0.168417289853096|0|0|0|-1|-1|3
2021-04-22 22:27:04.989 +0100|142034.035454875|-0.2389678955078125|0.9335174560546875|0.1586761474609375|142034.015494875|-1.91781991642137|-2.189951472558131|-1.276903804870438|-0.01359512750059366|0.009065795689821243|-0.0257161520421505|-0.004266902804374695|-0.004654884338378906|-0.0142291933298111|XArbitraryZVertical|-0.7411140027211156|-0.1865680715283117|0.003197395619819634|0.644928092117479|-0.2359067052602768|0.9571235179901123|0.1681152135133743|0|0|0|-1|-1|3
2021-04-22 22:27:05.009 +0100|142034.055414875|-0.2467498779296875|0.964691162109375|0.16668701171875|142034.035454875|-1.917817149677854|-2.189727708544032|-1.276252848422763|-0.0453326478600502|0.006733505986630917|-0.03985451906919479|-0.0009442567825317383|-0.02157104015350342|-0.01278339326381683|XArbitraryZVertical|-0.7411864794032783|-0.1866942262710813|0.002908999077297953|0.644809782382412|-0.2364523112773895|0.9569347500801086|0.1684242635965347|0|0|0|-1|-1|3
2021-04-22 22:27:05.029 +0100|142034.075374875|-0.246002197265625|0.97467041015625|0.1658477783203125|142034.055414875|-1.919228108454222|-2.190805359816278|-1.275131533703098|-0.06028809770941734|0.02171048521995544|-0.044309101998806|-0.006677284836769104|-0.001683354377746582|0.001506194472312927|XArbitraryZVertical|-0.7414412858492753|-0.1868575927298108|0.00249879917492493|0.6444709973024713|-0.2371431738138199|0.9566086530685425|0.1693018823862076|0|0|0|-1|-1|3
2021-04-22 22:27:05.049 +0100|142034.09533525|-0.244598388671875|0.9704132080078125|0.1650238037109375|142034.075374875|-1.919049733100796|-2.190077341320081|-1.273893981237022|-0.03306388482451439|0.0202983170747757|-0.05664220079779625|-0.00925174355506897|0.02161210775375366|-0.006927967071533203|XArbitraryZVertical|-0.7415628750924095|-0.1870637528893208|0.001894372273954068|0.6442734790392947|-0.2382308393716812|0.9562473297119141|0.1698166877031326|0|0|0|-1|-1|3
2021-04-22 22:27:05.069 +0100|142034.11529625|-0.248260498046875|0.97216796875|0.16973876953125|142034.09533525|-1.917473625328445|-2.188099237516533|-1.272793426203865|-0.02353837341070175|0.02415803447365761|-0.04946871101856232|-0.003618374466896057|0.01311498880386353|-0.0004122406244277954|XArbitraryZVertical|-0.7415384315984953|-0.1873437902205762|0.001320180038916778|0.6442215743997051|-0.2394239008426666|0.9559247493743896|0.1699538826942444|0|0|0|-1|-1|3
2021-04-22 22:27:05.089 +0100|142034.13525625|-0.249847412109375|0.9660186767578125|0.158660888671875|142034.11529625|-1.915126557193692|-2.18525901986709|-1.271877677513068|0.007995635271072388|0.02392191998660564|-0.05865182355046272|-0.007212817668914795|0.01628339290618896|-0.002219691872596741|XArbitraryZVertical|-0.741420230961306|-0.1875763804827892|0.0007329156556719592|0.6442908463219669|-0.2406206876039505|0.9556555151939392|0.1697777211666107|0|0|0|-1|-1|3
2021-04-22 22:27:05.109 +0100|142034.15521625|-0.2510223388671875|0.958831787109375|0.157135009765625|142034.13525625|-1.911947650548007|-2.181630522019122|-1.271191324778894|0.02571114897727966|0.03148433566093445|-0.04576016589999199|-0.007037535309791565|0.01050436496734619|-0.004407405853271484|XArbitraryZVertical|-0.7411972457154983|-0.1877938738578647|0.0001942077332675641|0.6444844526598478|-0.2417725771665573|0.9554531574249268|0.1692797988653183|0|0|0|-1|-1|3
2021-04-22 22:27:05.129 +0100|142034.17517625|-0.2520751953125|0.9534759521484375|0.165313720703125|142034.15521625|-1.90802929833078|-2.177217232402068|-1.270709196613394|0.01198651548475027|0.02940382435917854|-0.05536636710166931|-0.01001898944377899|0.0057334303855896|-0.01470960676670074|XArbitraryZVertical|-0.7408806820345307|-0.1879697316074767|-0.0003314083518562553|0.6447970296811348|-0.2428957223892212|0.9553107619285583|0.1684736162424088|0|0|0|-1|-1|3
2021-04-22 22:27:05.149 +0100|142034.19513625|-0.259307861328125|0.9803924560546875|0.1693267822265625|142034.17517625|-1.906776179559799|-2.175519865223584|-1.269847792672187|-0.03508468717336655|0.02880035154521465|-0.03945371508598328|-0.00603562593460083|-0.00606614351272583|-0.003747716546058655|XArbitraryZVertical|-0.7408537967340747|-0.1881487538851191|-0.0008304830924449877|0.644775164365074|-0.243857815861702|0.9550557732582092|0.1685286015272141|0|0|0|-1|-1|3
2021-04-22 22:27:05.169 +0100|142034.21509625|-0.256500244140625|0.962860107421875|0.1689453125|142034.19513625|-1.907558128332727|-2.17559654814023|-1.268785500296776|-0.03589207679033279|0.03032868728041649|-0.0417688861489296|-0.01369747519493103|0.02519428730010986|0.0006917715072631836|XArbitraryZVertical|-0.7410399406526084|-0.1882074235560858|-0.001392799129732096|0.6445432534174712|-0.2446798831224442|0.9547403454780579|0.1691244542598724|0|0|0|-1|-1|3
2021-04-22 22:27:05.189 +0100|142034.23505625|-0.256072998046875|0.96588134765625|0.15155029296875|142034.21509625|-1.907264607819936|-2.174767101288872|-1.268022583762383|-0.02417341992259026|0.02536125108599663|-0.02341198734939098|-0.01149292290210724|0.01237529516220093|-0.002952083945274353|XArbitraryZVertical|-0.7410922719441428|-0.1882811855138938|-0.001848679996751699|0.6444604117037691|-0.2454196214675903|0.9545131325721741|0.1693351268768311|0|0|0|-1|-1|3
2021-04-22 22:27:05.209 +0100|142034.25501725|-0.2494049072265625|0.95135498046875|0.1544036865234375|142034.23505625|-1.906920642282449|-2.173663288353684|-1.267426893870405|-0.01638460531830788|0.03578976541757584|-0.02457605302333832|-0.01253165304660797|0.01215624809265137|-0.01577496528625488|XArbitraryZVertical|-0.7411214789791496|-0.1882343221497205|-0.002336700723986335|0.6444389038387899|-0.2460746020078659|0.9543353319168091|0.1693864166736603|0|0|0|-1|-1|3
2021-04-22 22:27:05.229 +0100|142034.27497725|-0.2494964599609375|0.9501190185546875|0.162261962890625|142034.25501725|-1.905918901886077|-2.171863657250357|-1.26689530664788|-0.005062026437371969|0.04247999936342239|-0.02423250675201416|-0.003706365823745728|0.003434598445892334|-0.01406240463256836|XArbitraryZVertical|-0.741080650579868|-0.1881876064808254|-0.002850293541392682|0.6444974455442631|-0.2467974573373795|0.9541763663291931|0.1692302078008652|0|0|0|-1|-1|3
2021-04-22 22:27:05.249 +0100|142034.29493725|-0.252197265625|0.9578857421875|0.171142578125|142034.27497725|-1.904696250533006|-2.169806136000637|-1.266517049293765|0.0139947384595871|0.03938918560743332|-0.02443863451480865|-0.001077041029930115|-0.006019413471221924|-0.01664149761199951|XArbitraryZVertical|-0.7410019145848812|-0.1880928487378257|-0.003339300211152054|0.6446132668747937|-0.2474431544542313|0.9540631175041199|0.1689255088567734|0|0|0|-1|-1|3
2021-04-22 22:27:05.269 +0100|142034.31489725|-0.2542266845703125|0.9541168212890625|0.1595306396484375|142034.29493725|-1.90234439467911|-2.166804166969768|-1.266268451083894|0.02199986763298512|0.03339877724647522|-0.02404084615409374|-0.002648293972015381|0.002920448780059814|0.002538681030273438|XArbitraryZVertical|-0.7408011665147848|-0.1880722666334095|-0.003772642397943377|0.6448475812114584|-0.2481454461812973|0.9539886116981506|0.1683150976896286|0|0|0|-1|-1|3
2021-04-22 22:27:05.288 +0100|142034.33485725|-0.2503662109375|0.9508209228515625|0.1561279296875|142034.31489725|-1.899334385825454|-2.163044309279319|-1.265930031276354|0.01022205501794815|0.04472061991691589|-0.03982007876038551|-0.006448790431022644|0.003144145011901855|-0.005557522177696228|XArbitraryZVertical|-0.7405452836349051|-0.1880780436830635|-0.004302690416645221|0.6451364952911653|-0.2490447014570236|0.9538871049880981|0.167561337351799|0|0|0|-1|-1|3
2021-04-22 22:27:05.308 +0100|142034.35481725|-0.253997802734375|0.958892822265625|0.1632843017578125|142034.33485725|-1.89687704368094|-2.159580485777386|-1.265423951998055|-0.01224986556917429|0.05931703001260757|-0.03063598647713661|-0.0006014108657836914|-0.005355715751647949|-0.01059211790561676|XArbitraryZVertical|-0.7403575299384237|-0.1880250519036057|-0.004954230500139274|0.6453625883982743|-0.2500244677066803|0.9537350535392761|0.1669653803110123|0|0|0|-1|-1|3
2021-04-22 22:27:05.328 +0100|142034.37477725|-0.251007080078125|0.9493408203125|0.1658477783203125|142034.35481725|-1.895037805087047|-2.156578009491247|-1.264890461877127|0.007778837811201811|0.06457927823066711|-0.03741080313920975|-0.001599341630935669|0.004463851451873779|-0.004919037222862244|XArbitraryZVertical|-0.740230455116653|-0.1879007145338539|-0.005643315536550626|0.6455390315479292|-0.2509492039680481|0.953574538230896|0.166495606303215|0|0|0|-1|-1|3
2021-04-22 22:27:05.348 +0100|142034.39473825|-0.2511138916015625|0.9573974609375|0.1733856201171875|142034.37477725|-1.892651486446057|-2.152997730723015|-1.264484761698337|0.03754475712776184|0.06611113250255585|-0.04154953360557556|0.0007065534591674805|-0.001853287220001221|-0.004201531410217285|XArbitraryZVertical|-0.7400360275441866|-0.1877524446194628|-0.006328058998067528|0.6457986231381978|-0.2518665194511414|0.9534522891044617|0.1658086031675339|0|0|0|-1|-1|3
2021-04-22 22:27:05.368 +0100|142034.41469825|-0.251953125|0.9601898193359375|0.16253662109375|142034.39473825|-1.889176482658722|-2.148435066781495|-1.264308429942943|0.03065978363156319|0.06423445045948029|-0.03071383945643902|0.004363089799880981|0.0001225471496582031|0.01179599761962891|XArbitraryZVertical|-0.7397121384848487|-0.1876184624326407|-0.006950226866569389|0.6462020992021175|-0.2527612149715424|0.9533990621566772|0.1647494733333588|0|0|0|-1|-1|3
2021-04-22 22:27:05.388 +0100|142034.43465825|-0.2495880126953125|0.9573211669921875|0.17041015625|142034.41469825|-1.885918722630343|-2.143969099522101|-1.264034127820043|0.02548949047923088|0.05969829112291336|-0.04037055373191833|-0.000101238489151001|0.01102370023727417|0.001691803336143494|XArbitraryZVertical|-0.7394169792273618|-0.1874641109340838|-0.007636998832668044|0.6465767278540997|-0.2537137269973755|0.9533162713050842|0.1637605279684067|0|0|0|-1|-1|3
2021-04-22 22:27:05.408 +0100|142034.45461825|-0.2530059814453125|0.9541778564453125|0.16961669921875|142034.43465825|-1.883863153567501|-2.140826552422194|-1.263712384306852|-0.005558506585657597|0.05348524451255798|-0.03509252145886421|0.004881560802459717|0.002575874328613281|0.005284622311592102|XArbitraryZVertical|-0.7392428174170909|-0.1873070943818806|-0.008237757923277826|0.6468139064689731|-0.2544850707054138|0.9532191157341003|0.1631277799606323|0|0|0|-1|-1|3
2021-04-22 22:27:05.428 +0100|142034.47457825|-0.246826171875|0.957550048828125|0.175201416015625|142034.45461825|-1.883572679753614|-2.139427793632002|-1.263077851533895|-0.02039647474884987|0.06139381974935532|-0.02671865560114384|0.002811521291732788|0.00275266170501709|0.006123751401901245|XArbitraryZVertical|-0.7392702382538476|-0.1871581878981251|-0.008865712470693968|0.6468173756807833|-0.2552226483821869|0.953027069568634|0.1630973517894745|0|0|0|-1|-1|3
2021-04-22 22:27:05.448 +0100|142034.49453825|-0.2446746826171875|0.9635162353515625|0.1774444580078125|142034.47457825|-1.884804829102998|-2.139484032483716|-1.262507463490902|-0.01600400544703007|0.05627037957310677|-0.0140348169952631|0.006877243518829346|0.0023612380027771|0.01254548132419586|XArbitraryZVertical|-0.7394401759204431|-0.1868974210704848|-0.009427730116029209|0.6466907266348808|-0.2556721568107605|0.9528541564941406|0.1634048372507095|0|0|0|-1|-1|3
2021-04-22 22:27:05.468 +0100|142034.51449825|-0.2415771484375|0.9558563232421875|0.1713714599609375|142034.49453825|-1.885345154147674|-2.139045909129526|-1.262353486084306|0.005631513893604279|0.04419709742069244|-0.003291182685643435|0.01076492667198181|0.01086121797561646|0.01199887692928314|XArbitraryZVertical|-0.7395031836001236|-0.1866034672450728|-0.00981406139664732|0.6466977674881879|-0.2558671534061432|0.9528074264526367|0.1633716225624084|0|0|0|-1|-1|3
2021-04-22 22:27:05.488 +0100|142034.53445825|-0.2403106689453125|0.95452880859375|0.1662139892578125|142034.51449825|-1.885130082425591|-2.138116435672473|-1.262512123235316|0.006764972116798162|0.03098403848707676|0.005669821985065937|0.01431423425674438|0.005945563316345215|0.005420923233032227|XArbitraryZVertical|-0.7394634325019446|-0.1863335022620282|-0.01003706161376807|0.6468176964385148|-0.2558916807174683|0.9528555870056152|0.1630526781082153|0|0|0|-1|-1|3
2021-04-22 22:27:05.508 +0100|142034.55441925|-0.23468017578125|0.9563446044921875|0.1667938232421875|142034.53445825|-1.886173516150091|-2.138585649362157|-1.26259885223064|-0.01701584085822105|0.02781514078378677|0.006804772187024355|0.01451906561851501|0.002882838249206543|0.002506986260414124|XArbitraryZVertical|-0.7395546921980076|-0.1860726741346605|-0.0101730606203249|0.6467863470459893|-0.2557455897331238|0.9528818726539612|0.1631283611059189|0|0|0|-1|-1|3
2021-04-22 22:27:05.528 +0100|142034.57437925|-0.240936279296875|0.965179443359375|0.16741943359375|142034.55441925|-1.888625315520283|-2.140509848033487|-1.262524330493625|-0.02360626682639122|0.01871437393128872|0.01715976372361183|0.02045905590057373|0.002050817012786865|0.004830583930015564|XArbitraryZVertical|-0.7397995530183056|-0.1858108654296757|-0.01027804162497574|0.6465797593136607|-0.2554904818534851|0.9528592824935913|0.1636581122875214|0|0|0|-1|-1|3
2021-04-22 22:27:05.548 +0100|142034.59433925|-0.2441253662109375|0.956512451171875|0.1658172607421875|142034.57437925|-1.890844873597083|-2.142591868796521|-1.26289761286605|-0.0002592983655631542|-0.001707117073237896|0.02948318608105183|0.01589685678482056|0.01165729761123657|0.004934147000312805|XArbitraryZVertical|-0.7399801601728102|-0.1855474758507249|-0.01010493561387544|0.6464513675476341|-0.2548497319221497|0.9529724717140198|0.163997009396553|0|0|0|-1|-1|3
2021-04-22 22:27:05.568 +0100|142034.61429925|-0.2470855712890625|0.9574737548828125|0.1599578857421875|142034.59433925|-1.892178922458737|-2.144031106470577|-1.26376290097053|0.01217035669833422|-0.006111026741564274|0.04206857457756996|0.01130631566047668|0.003751099109649658|0.005929842591285706|XArbitraryZVertical|-0.7400269556338815|-0.1852526421855566|-0.00972534191561826|0.6464883747723151|-0.2539213895797729|0.9532343745231628|0.1639168709516525|0|0|0|-1|-1|3
2021-04-22 22:27:05.588 +0100|142034.63425925|-0.2529754638671875|0.9594573974609375|0.1574554443359375|142034.61429925|-1.894018324421064|-2.146072690081339|-1.264742208426162|0.00515462551265955|-0.01741236448287964|0.04564262554049492|0.006815075874328613|0.004691362380981445|-0.006119027733802795|XArbitraryZVertical|-0.7401109449433921|-0.1849299887122372|-0.009249284358857897|0.6464914650808383|-0.252802312374115|0.9535298943519592|0.1639266163110733|0|0|0|-1|-1|3
2021-04-22 22:27:05.608 +0100|142034.65421925|-0.252716064453125|0.963897705078125|0.1659698486328125|142034.63425925|-1.896989795590101|-2.14934273955801|-1.265644033495587|-0.01349089853465557|-0.01832231134176254|0.05022912099957466|0.000232696533203125|0.005778253078460693|-0.00539146363735199|XArbitraryZVertical|-0.7403110440157625|-0.1846097961028549|-0.008709833337486615|0.6463614569288771|-0.2515452802181244|0.9538012146949768|0.1642824411392212|0|0|0|-1|-1|3
2021-04-22 22:27:05.628 +0100|142034.67417925|-0.2515869140625|0.9650726318359375|0.1623382568359375|142034.65421925|-1.899995158026153|-2.15264664379717|-1.266596715539015|-0.005513432435691357|-0.01693299412727356|0.0513908825814724|-0.001711934804916382|0.006880819797515869|-0.002105608582496643|XArbitraryZVertical|-0.7405067922995578|-0.18427191572382|-0.008152123562475442|0.6462408063616327|-0.2502414584159851|0.9540870189666748|0.164612889289856|0|0|0|-1|-1|3
2021-04-22 22:27:05.648 +0100|142034.69414025|-0.254913330078125|0.965789794921875|0.1659088134765625|142034.67417925|-1.902344370646466|-2.155302599539155|-1.267411213118006|0.004669147543609142|-0.02234901115298271|0.04239765554666519|-0.00414043664932251|0.01380902528762817|-0.004263743758201599|XArbitraryZVertical|-0.7406513387128207|-0.1840104326606623|-0.007666906273130737|0.6461557411713972|-0.2491558045148849|0.9543306231498718|0.1648484915494919|0|0|0|-1|-1|3
2021-04-22 22:27:05.668 +0100|142034.71410025|-0.253509521484375|0.9746246337890625|0.1680908203125|142034.69414025|-1.903698886822067|-2.157047272416085|-1.268314446788917|0.01279140636324883|-0.02061859704554081|0.04073965921998024|-0.004353299736976624|0.009282231330871582|-0.001215219497680664|XArbitraryZVertical|-0.7406903244506858|-0.1837954392115032|-0.007169224835186015|0.6461779045418639|-0.2481494545936584|0.9546000957489014|0.1648058444261551|0|0|0|-1|-1|3
2021-04-22 22:27:05.688 +0100|142034.73406025|-0.2522125244140625|0.9677886962890625|0.1678009033203125|142034.71410025|-1.903908998310778|-2.157612670702465|-1.269180252790989|0.02308435551822186|-0.02317235432565212|0.03793508559465408|-0.00746956467628479|0.01929384469985962|0.003695249557495117|XArbitraryZVertical|-0.7406229744725547|-0.1836348926253216|-0.006750672072610384|0.6463052120753328|-0.2473677843809128|0.9548576474189758|0.1644883304834366|0|0|0|-1|-1|3
2021-04-22 22:27:05.708 +0100|142034.75402025|-0.24932861328125|0.957305908203125|0.15289306640625|142034.73406025|-1.903304545291956|-2.157501368767077|-1.269921144119796|0.02898094430565834|-0.02426473051309586|0.02815728820860386|-0.006804466247558594|0.01695311069488525|0.006204858422279358|XArbitraryZVertical|-0.7404911895396173|-0.1835956551820797|-0.006359487263802007|0.6464713227601361|-0.2467969357967377|0.9550774693489075|0.1640691310167313|0|0|0|-1|-1|3
2021-04-22 22:27:05.728 +0100|142034.77398025|-0.2452545166015625|0.948699951171875|0.16156005859375|142034.75402025|-1.902461786808845|-2.156967746220248|-1.270553218805407|0.01950348727405071|-0.01290459092706442|0.0145511981099844|-0.006732001900672913|0.005855739116668701|-0.00956454873085022|XArbitraryZVertical|-0.740347364738284|-0.1835411438744536|-0.006082147949072919|0.6466540653482058|-0.2463810592889786|0.9552646279335022|0.1636031419038773|0|0|0|-1|-1|3
2021-04-22 22:27:05.749 +0100|142034.79394025|-0.250274658203125|0.9638214111328125|0.1591644287109375|142034.77398025|-1.901926334933172|-2.156731897511316|-1.270808907690411|0.00650101900100708|-0.01505445502698421|0.01513602863997221|0.002609506249427795|-0.007510185241699219|0.0008672326803207397|XArbitraryZVertical|-0.7402713680529008|-0.1835847580514468|-0.005914531644012252|0.6467302964850894|-0.2462163716554642|0.9553402066230774|0.1634101271629333|0|0|0|-1|-1|3
2021-04-22 22:27:05.768 +0100|142034.81390025|-0.249298095703125|0.9598541259765625|0.156036376953125|142034.79394025|-1.901014261604056|-2.156088892472167|-1.271322724799342|0.04889275133609772|-0.005825109779834747|0.02700342983007431|-0.0043020099401474|0.006162464618682861|-0.001083403825759888|XArbitraryZVertical|-0.7401332051626417|-0.183556577229301|-0.005692884299196309|0.6468983177890866|-0.2459118664264679|0.9554919004440308|0.1629803627729416|0|0|0|-1|-1|3
2021-04-22 22:27:05.788 +0100|142034.83386125|-0.2547149658203125|0.93975830078125|0.148712158203125|142034.81390025|-1.899070547668018|-2.154450519014637|-1.272413638011676|0.06508295983076096|-0.01482504978775978|0.03852914646267891|-0.005210265517234802|0.01044940948486328|-0.003523841500282288|XArbitraryZVertical|-0.7398391189238407|-0.1834107636119664|-0.005320667792383219|0.6472791844978594|-0.2453088164329529|0.9558131694793701|0.1620028614997864|0|0|0|-1|-1|3
2021-04-22 22:27:05.807 +0100|142034.85382125|-0.251861572265625|0.926605224609375|0.161224365234375|142034.83386125|-1.897021741841188|-2.152836313065283|-1.273755819902777|0.05717193707823753|-0.01855150423943996|0.04393704980611801|-0.009057104587554932|-0.01222199201583862|-0.01356148719787598|XArbitraryZVertical|-0.7395108202816321|-0.1832334780338945|-0.004823978621961521|0.6477083882010578|-0.2444984912872314|0.9562069177627563|0.1609015166759491|0|0|0|-1|-1|3
2021-04-22 22:27:05.828 +0100|142034.87378125|-0.24462890625|0.93035888671875|0.1554412841796875|142034.85382125|-1.89687727575514|-2.153037895302534|-1.274755881025808|0.01491659134626389|-0.01134765334427357|0.04550742357969284|-0.007706448435783386|-0.02705585956573486|0.002158761024475098|XArbitraryZVertical|-0.7393964428177269|-0.1830445736341457|-0.004381717423053069|0.6478954787706276|-0.2436671555042267|0.9564990997314453|0.1604248285293579|0|0|0|-1|-1|3
2021-04-22 22:27:05.847 +0100|142034.89374125|-0.2407989501953125|0.9274749755859375|0.1548614501953125|142034.87378125|-1.898120318105141|-2.154406662198495|-1.275393392035301|0.003925776109099388|-0.01647977903485298|0.03472952544689178|-0.003903046250343323|-0.02518171072006226|-0.009114861488342285|XArbitraryZVertical|-0.7394480646227646|-0.1828324862409642|-0.004073912553704387|0.6478985127047087|-0.2429386824369431|0.9566848874092102|0.1604223102331161|0|0|0|-1|-1|3
2021-04-22 22:27:05.867 +0100|142034.91370125|-0.245025634765625|0.9300384521484375|0.15081787109375|142034.89374125|-1.898979884060775|-2.15566812127749|-1.275979745075168|-0.001790566137060523|-0.02938577719032764|0.04086553677916527|0.002476006746292114|-0.03055542707443237|-0.002946957945823669|XArbitraryZVertical|-0.7394689876866234|-0.182743064590791|-0.003697923613478315|0.6479020817456576|-0.2422682195901871|0.9568554759025574|0.1604188233613968|0|0|0|-1|-1|3
2021-04-22 22:27:05.887 +0100|142034.93366125|-0.2482147216796875|0.9286956787109375|0.1480865478515625|142034.91370125|-1.899189323946348|-2.156423383912457|-1.276461881313441|0.007533693686127663|-0.03833293169736862|0.02484742179512978|-0.003080278635025024|-0.02688080072402954|-0.009909152984619141|XArbitraryZVertical|-0.7394399003656162|-0.1827621969551168|-0.003332011710799484|0.647931877020109|-0.2417625486850739|0.95699542760849|0.1603467762470245|0|0|0|-1|-1|3
2021-04-22 22:27:05.907 +0100|142034.95362125|-0.25372314453125|0.95208740234375|0.141632080078125|142034.93366125|-1.898825682156952|-2.156880440914319|-1.276667385600665|0.0156378261744976|-0.04027299210429192|0.02090372517704964|-0.005392849445343018|-0.03048044443130493|-0.0110093355178833|XArbitraryZVertical|-0.739386192445776|-0.1829814961553845|-0.002979297567041511|0.6479329430640262|-0.2415251880884171|0.9570550322532654|0.1603483408689499|0|0|0|-1|-1|3
2021-04-22 22:27:05.928 +0100|142034.97358225|-0.2502899169921875|0.938995361328125|0.1539459228515625|142034.95362125|-1.897438545500086|-2.156165745082407|-1.276916227872452|0.03037822246551514|-0.03665130585432053|0.001612851163372397|-0.01223661005496979|-0.00638270378112793|-0.02216435968875885|XArbitraryZVertical|-0.7392325874478916|-0.1831861754633055|-0.002714232566366516|0.6480514916139275|-0.2414410412311554|0.9571271538734436|0.1600439846515656|0|0|0|-1|-1|3
2021-04-22 22:27:05.947 +0100|142034.99354225|-0.2613525390625|0.956329345703125|0.156158447265625|142034.97358225|-1.894737470282111|-2.1544863657032|-1.277093144843539|0.04363781586289406|-0.0551208071410656|-0.009719432331621647|-0.007608145475387573|-0.01499414443969727|-0.005948677659034729|XArbitraryZVertical|-0.738964657023502|-0.1835857001623306|-0.002402721163168042|0.6482452007304461|-0.2415681481361389|0.9571783542633057|0.1595449447631836|0|0|0|-1|-1|3
2021-04-22 22:27:05.967 +0100|142035.01350225|-0.2577362060546875|0.9584503173828125|0.163848876953125|142034.99354225|-1.890470095554674|-2.151344909739382|-1.277342680666754|0.0528218112885952|-0.04128105193376541|-0.02507619559764862|-0.01914846897125244|-0.008276104927062988|-0.003883242607116699|XArbitraryZVertical|-0.7385436007530377|-0.1840667462123849|-0.002099473422752628|0.6485896502142773|-0.2418686747550964|0.9572505950927734|0.1586544364690781|0|0|0|-1|-1|3
2021-04-22 22:27:05.987 +0100|142035.03346225|-0.2701263427734375|0.9746856689453125|0.1648712158203125|142035.01350225|-1.885773797714576|-2.147879424826367|-1.277090677587379|0.02997741848230362|-0.07148918509483337|-0.03963232412934303|-0.01526965200901031|0.002218723297119141|0.00382782518863678|XArbitraryZVertical|-0.7381323751935088|-0.1847542481024925|-0.001936739799147309|0.6488628151859024|-0.2426194697618484|0.9571776390075684|0.1579470783472061|0|0|0|-1|-1|3
2021-04-22 22:27:06.007 +0100|142035.05342225|-0.267791748046875|0.972869873046875|0.1540069580078125|142035.03346225|-1.882526052020587|-2.146255860545541|-1.276549308002978|-0.003953102976083755|-0.07770936191082001|-0.0393754169344902|-0.02394796907901764|0.01230895519256592|0.007251262664794922|XArbitraryZVertical|-0.7378838673301188|-0.185593059412656|-0.001656641798015908|0.6489067978976463|-0.2433100193738937|0.9570208191871643|0.1578347682952881|0|0|0|-1|-1|3
2021-04-22 22:27:06.027 +0100|142035.07338225|-0.251708984375|0.9687957763671875|0.148284912109375|142035.05342225|-1.880594811278231|-2.145777695191882|-1.275567815988032|-0.01124795060604811|-0.06890160590410233|-0.04959458485245705|-0.02782952785491943|0.01979631185531616|-0.0009100288152694702|XArbitraryZVertical|-0.7378005233882758|-0.1864539574469462|-0.001523470970581832|0.6487551609002742|-0.2441739737987518|0.9567356705665588|0.1582293808460236|0|0|0|-1|-1|3
2021-04-22 22:27:06.047 +0100|142035.0933417917|-0.2486114501953125|0.9887847900390625|0.137847900390625|142035.07338225|-1.878943279324001|-2.145582483598021|-1.274232082657986|-0.02940013818442822|-0.07834037393331528|-0.06087041273713112|-0.01004889607429504|0.01101511716842651|-0.007217645645141602|XArbitraryZVertical|-0.7377767225289464|-0.1874126678798647|-0.001491151316262806|0.6485058933773351|-0.2452767193317413|0.9563461542129517|0.1588760018348694|0|0|0|-1|-1|3
2021-04-22 22:27:06.067 +0100|142035.1133027917|-0.2396697998046875|0.9901275634765625|0.140716552734375|142035.0933417917|-1.879561795469174|-2.148097918101131|-1.272616822896125|-0.07861841470003128|-0.1186881139874458|-0.03220831602811813|-0.001556545495986938|0.02728116512298584|-0.02050234377384186|XArbitraryZVertical|-0.7379944371478097|-0.1884988175405003|-0.001285223685024953|0.6479435191326556|-0.2461701482534409|0.9558728933334351|0.1603351831436157|0|0|0|-1|-1|3
2021-04-22 22:27:06.087 +0100|142035.1332627917|-0.2225494384765625|0.981170654296875|0.1192626953125|142035.1133027917|-1.886816400920418|-2.157651605554143|-1.270477829836829|-0.2657472491264343|-0.1626097112894058|-0.002401686972007155|0.00177648663520813|0.04162949323654175|-0.02405524253845215|XArbitraryZVertical|-0.7388968303382941|-0.1895713901944633|-0.0007951375103967317|0.646601629482233|-0.2463293820619583|0.9552423357963562|0.163811668753624|0|0|0|-1|-1|3
2021-04-22 22:27:06.107 +0100|142035.1532227917|-0.2570343017578125|1.09930419921875|0.0191802978515625|142035.1332627917|-1.902685383903292|-2.175849600961314|-1.266940232529802|-0.3411546945571899|-0.1827960461378098|0.006998650729656219|0.0206369012594223|0.008822739124298096|-0.05628013610839844|XArbitraryZVertical|-0.7407728646955923|-0.1906559618549766|-0.0003176377156334015|0.6441319600405714|-0.2460857927799225|0.9541898369789124|0.1701882630586624|0|0|0|-1|-1|3
2021-04-22 22:27:06.127 +0100|142035.1731827917|-0.268157958984375|1.184402465820312|0.1339263916015625|142035.1532227917|-1.921789779568668|-2.196959193452061|-1.262626071056594|-0.3718897104263306|-0.132063627243042|-0.02050487883388996|-0.0003681778907775879|0.1191921830177307|-0.1342207342386246|XArbitraryZVertical|-0.7430644043744642|-0.1916584360683749|4.499085072734595e-06|0.6411883172508325|-0.2457716166973114|0.952890157699585|0.1777553260326385|0|0|0|-1|-1|3
2021-04-22 22:27:06.147 +0100|142035.1931427917|-0.3124847412109375|1.23138427734375|0.3711700439453125|142035.1731827917|-1.939366819863144|-2.216678340110519|-1.256220348573297|-0.5760679244995117|-0.1761195063591003|-0.1871407330036163|-0.02822625637054443|0.2251433730125427|-0.1206841468811035|XArbitraryZVertical|-0.7454784181489021|-0.1933403462307318|-0.0002919770095991843|0.6378726339261737|-0.2470883578062057|0.9509276747703552|0.1862371265888214|0|0|0|-1|-1|3
2021-04-22 22:27:06.167 +0100|142035.2131027917|-0.4337158203125|1.059402465820312|0.5848388671875|142035.1931427917|-1.974281907159776|-2.252825660189622|-1.240775806505165|-1.237130284309387|-0.1603765487670898|-0.3922651410102844|-0.03337469696998596|0.2909635305404663|0.1650151908397675|XArbitraryZVertical|-0.7507401960459372|-0.1962874646201398|-0.002630120823965892|0.6307562978223628|-0.2515681982040405|0.9460356831550598|0.2042792141437531|0|0|0|-1|-1|3
2021-04-22 22:27:06.187 +0100|142035.2330637917|-0.6557464599609375|0.9497528076171875|0.8253631591796875|142035.2131027917|-1.996738354763616|-2.279576460906166|-1.219409425695812|-0.5901645421981812|-0.4589431881904602|-0.7732234001159668|-0.1392562687397003|0.1597516536712646|0.2657498121261597|XArbitraryZVertical|-0.7556924455705863|-0.2023624803288415|-0.006100212818920621|0.6228493867615101|-0.2613024711608887|0.9388962388038635|0.2240432947874069|0|0|0|-1|-1|3
2021-04-22 22:27:06.207 +0100|142035.2530237917|-0.830657958984375|0.9382476806640625|0.638427734375|142035.2330637917|-1.965704906184179|-2.265339816025213|-1.201801178602998|0.5444456338882446|-1.015158414840698|-1.310007214546204|-0.3106121718883514|0.04318541288375854|0.6056867837905884|XArbitraryZVertical|-0.7545389752756094|-0.2146960902290731|-0.007196251272635065|0.6201006770065928|-0.2771260738372803|0.9326902627944946|0.230846956372261|0|0|0|-1|-1|3
2021-04-22 22:27:06.227 +0100|142035.2729837917|-0.5381927490234375|0.3837738037109375|0.1132049560546875|142035.2530237917|-1.869015274499003|-2.195266478375403|-1.19035986022815|1.323409080505371|-0.908747136592865|-1.798360705375671|-0.5135571956634521|0.05336976051330566|0.5421454906463623|XArbitraryZVertical|-0.7446495083371301|-0.2324830457445497|-0.006952913012870345|0.6256201817750541|-0.3012471497058868|0.9285026788711548|0.217102512717247|0|0|0|-1|-1|3
2021-04-22 22:27:06.247 +0100|142035.2929437917|-0.13165283203125|-0.096710205078125|-0.225616455078125|142035.2729837917|-1.749232187468972|-2.100807915103545|-1.172740424254809|1.328093528747559|-0.8238776922225952|-2.044486999511719|-0.3129851222038269|-0.3826776742935181|0.04605841636657715|XArbitraryZVertical|-0.7309596093594637|-0.2523475844250583|-0.009906683486551479|0.6339722219822317|-0.3344454765319824|0.921816349029541|0.1959625035524368|0|0|0|-1|-1|3
2021-04-22 22:27:06.267 +0100|142035.3129037917|0.060333251953125|-0.1406707763671875|-0.0992584228515625|142035.2929437917|-1.658358345142675|-2.038252713320251|-1.146981526147208|0.6330403685569763|-1.289996147155762|-1.978619337081909|0.1493941843509674|-0.9135563969612122|-0.3700491189956665|XArbitraryZVertical|-0.7196005820061646|-0.2735527348836919|-0.01251193649890129|0.6381124106597188|-0.3671219944953918|0.9115267992019653|0.1853121966123581|0|0|0|-1|-1|3
2021-04-22 22:27:06.286 +0100|142035.3328637917|0.0371856689453125|0.2148895263671875|0.0467987060546875|142035.3129037917|-1.594546899427908|-2.011267295593353|-1.111341472957288|0.1860048621892929|-1.873303651809692|-2.515261173248291|0.4340603053569794|-1.08046817779541|-0.3515045940876007|XArbitraryZVertical|-0.7106771523099346|-0.2991253119839048|-0.01427238170350078|0.6365990796894144|-0.4011318981647491|0.8962943553924561|0.1890759319067001|0|0|0|-1|-1|3
2021-04-22 22:27:06.306 +0100|142035.3528237917|-0.0579376220703125|0.9229736328125|-0.026763916015625|142035.3328637917|-1.5425918793188|-2.013942671896485|-1.062254592014778|0.1611939668655396|-2.933372497558594|-2.906538724899292|0.5049669146537781|-0.7736325263977051|-0.1801806390285492|XArbitraryZVertical|-0.7020907270244839|-0.3338518557639019|-0.01425080368797758|0.6288153025384255|-0.4398730397224426|0.8734554648399353|0.2087769061326981|0|0|0|-1|-1|3
2021-04-22 22:27:06.326 +0100|142035.3727847917|0.0174713134765625|1.829010009765625|-0.38751220703125|142035.3528237917|-1.469358557597849|-2.013879173295578|-1.014602978782183|1.112908482551575|-3.215419292449951|-2.925220966339111|0.4241796135902405|-0.1449559330940247|-0.2029411792755127|XArbitraryZVertical|-0.6878931937175157|-0.3741359454628417|-0.008451954315202346|0.6218955036680883|-0.4769749939441681|0.8492709994316101|0.2263495028018951|0|0|0|-1|-1|3
2021-04-22 22:27:06.346 +0100|142035.3927447917|-0.18096923828125|2.370468139648438|-0.6066131591796875|142035.3727847917|-1.365877513984839|-1.993800749233647|-0.9763221673741167|2.552883863449097|-3.567193508148193|-2.893675088882446|0.5036590695381165|0.7948935627937317|-0.505926251411438|XArbitraryZVertical|-0.6655879970941244|-0.4146664322677794|0.002931994796562983|0.6205126343488678|-0.5107085108757019|0.8284431099891663|0.2299112677574158|0|0|0|-1|-1|3
