loggingTime(txt)|accelerometerTimestamp_sinceReboot(s)|accelerometerAccelerationX(G)|accelerometerAccelerationY(G)|accelerometerAccelerationZ(G)|motionTimestamp_sinceReboot(s)|motionYaw(rad)|motionRoll(rad)|motionPitch(rad)|motionRotationRateX(rad/s)|motionRotationRateY(rad/s)|motionRotationRateZ(rad/s)|motionUserAccelerationX(G)|motionUserAccelerationY(G)|motionUserAccelerationZ(G)|motionAttitudeReferenceFrame(txt)|motionQuaternionX(R)|motionQuaternionY(R)|motionQuaternionZ(R)|motionQuaternionW(R)|motionGravityX(G)|motionGravityY(G)|motionGravityZ(G)|motionMagneticFieldX(µT)|motionMagneticFieldY(µT)|motionMagneticFieldZ(µT)|motionHeading(°)|motionMagneticFieldCalibrationAccuracy(Z)|label
2021-04-22 21:58:45.935 +0100|140866.511573375|-0.166290283203125|-0.4527435302734375|-0.9147186279296875|140866.491611375|0.7993667428608212|-0.08035601929035263|0.4324700534574374|0.01672016270458698|-0.3830295503139496|-0.198891282081604|-0.01968015730381012|0.06227359175682068|-0.0367998480796814|XArbitraryZVertical|0.2127502533230832|0.04728152795906797|0.3718192342881813|0.9023593471693679|-0.07287941873073578|-0.4191147089004517|-0.905003547668457|0|0|0|-1|-1|3
2021-04-22 21:58:45.937 +0100|140866.531534375|-0.1323089599609375|-0.4232940673828125|-0.884033203125|140866.511573375|0.7965951380056367|-0.08496858882321319|0.4344296850601346|0.03581046685576439|-0.1190931126475334|-0.09434463083744049|-0.09399132430553436|-0.03017100691795349|-0.009538650512695312|XArbitraryZVertical|0.214547372348277|0.04528329712563263|0.3699574930638684|0.90280141146142|-0.07698316872119904|-0.420893132686615|-0.9038376808166504|0|0|0|-1|-1|3
2021-04-22 21:58:45.938 +0100|140866.551495375|-0.0926513671875|-0.4540252685546875|-0.88787841796875|140866.531534375|0.7947241941116426|-0.08746425578541234|0.4329979337109292|-0.132010743021965|-0.2060038298368454|-0.1360071301460266|-0.05645078420639038|-0.007773309946060181|0.01190769672393799|XArbitraryZVertical|0.2144086437046252|0.04367906075798168|0.3689324530913341|0.9033327465605359|-0.07929116487503052|-0.4195939302444458|-0.9042421579360962|0|0|0|-1|-1|3
2021-04-22 21:58:45.939 +0100|140866.571457375|-0.130126953125|-0.4052581787109375|-0.8708038330078125|140866.551495375|0.7908376924375887|-0.09173475231169884|0.4278428711185519|-0.2771196961402893|-0.3433965742588043|-0.199193999171257|-0.02292820066213608|-0.02931913733482361|0.01510655879974365|XArbitraryZVertical|0.2129650536454525|0.04033965883279526|0.3670358886248813|0.9046011684506341|-0.08334902673959732|-0.4149090647697449|-0.9060372114181519|0|0|0|-1|-1|3
2021-04-22 21:58:45.942 +0100|140866.591418375|-0.1649017333984375|-0.3570098876953125|-0.88421630859375|140866.571457375|0.7855406234489565|-0.09765872300405948|0.4201393665556419|-0.4288236498832703|-0.4061017334461212|-0.215546503663063|-0.02201409637928009|-0.02033400535583496|0.03928118944168091|XArbitraryZVertical|0.2106907653241198|0.03561693573734871|0.3644856498906915|0.9063614597288275|-0.0890238881111145|-0.4078876972198486|-0.9086816906929016|0|0|0|-1|-1|3
2021-04-22 21:58:45.962 +0100|140866.611380375|-0.1101531982421875|-0.298309326171875|-0.86865234375|140866.591418375|0.7803773360501176|-0.1037495768327308|0.4120181447560915|-0.3704438805580139|-0.3176240026950836|-0.2232696712017059|-0.06655623763799667|0.03995618224143982|0.03022235631942749|XArbitraryZVertical|0.208230975008789|0.03076022903063703|0.362010035736233|0.9080982652093679|-0.09489678591489792|-0.4004594087600708|-0.9113873243331909|0|0|0|-1|-1|3
2021-04-22 21:58:45.981 +0100|140866.631341375|-0.14404296875|-0.3514404296875|-0.87542724609375|140866.611380375|0.7755376682208749|-0.1123444640966734|0.4048081928781942|-0.4120190143585205|-0.5885457992553711|-0.2314333319664001|-0.02247112244367599|0.06625247001647949|0.03226423263549805|XArbitraryZVertical|0.2066018381278701|0.02497904226347102|0.3593725035066653|0.9096939897479435|-0.1030474677681923|-0.3938424587249756|-0.9133834838867188|0|0|0|-1|-1|3
2021-04-22 21:58:46.002 +0100|140866.651302375|-0.119171142578125|-0.3586578369140625|-0.9167633056640625|140866.651302375|0.7595511455912888|-0.1206739145869874|0.398142598319997|-0.3160760104656219|-0.4068188071250916|-0.4059860408306122|-0.002620890736579895|0.01882660388946533|-0.01618033647537231|XArbitraryZVertical|0.2052466624339099|0.01828046962919481|0.3516541885671195|0.9131697428021965|-0.1109653562307358|-0.3877069056034088|-0.9150792360305786|0|0|0|-1|-1|3
2021-04-22 21:58:46.021 +0100|140866.671264375|-0.145233154296875|-0.3487548828125|-0.9152679443359375||||||||||||||||||||||||3
2021-04-22 21:58:46.041 +0100|140866.691225375|-0.1422119140625|-0.3153228759765625|-0.9036407470703125|140866.671264375|0.7492389199229879|-0.1257241273539223|0.3931357226685618|-0.3102453052997589|-0.4018149971961975|-0.5070018768310547|-0.02636925131082535|0.03208979964256287|-0.002371549606323242|XArbitraryZVertical|0.2039450247407356|0.01398631400766653|0.3467446879792366|0.9154119837651665|-0.1158272325992584|-0.3830868005752563|-0.9164215922355652|0|0|0|-1|-1|3
2021-04-22 21:58:46.061 +0100|140866.711187375|-0.1469879150390625|-0.2896270751953125|-0.9190521240234375|140866.691225375|0.7373685889276756|-0.1297097638705358|0.3876922629070888|-0.3168794512748718|-0.3901675045490265|-0.5478243231773376|-0.02212928235530853|0.05394196510314941|0.01247364282608032|XArbitraryZVertical|0.2022311562649164|0.009955148146079205|0.3412495167346879|0.917906482776993|-0.1197467818856239|-0.3780529499053955|-0.9180068969726562|0|0|0|-1|-1|3
2021-04-22 21:58:46.081 +0100|140866.731148375|-0.172607421875|-0.2918243408203125|-0.8965911865234375|140866.711187375|0.72518105972012|-0.1340040010659441|0.3833161761387575|-0.2187806516885757|-0.3924998939037323|-0.5710734128952026|-0.02124907076358795|0.07288205623626709|0.001374721527099609|XArbitraryZVertical|0.2010148369896435|0.005961066337882632|0.335497358713076|0.9203255871138947|-0.1239076480269432|-0.3739980459213257|-0.9191150069236755|0|0|0|-1|-1|3
2021-04-22 21:58:46.101 +0100|140866.751109375|-0.3114166259765625|-0.3340606689453125|-0.844482421875|140866.731148375|0.7115738879045397|-0.1364338830535421|0.3809562886105884|-0.1721619516611099|-0.375387042760849|-0.6452224254608154|-0.0373900830745697|0.09033045172691345|0.01614868640899658|XArbitraryZVertical|0.2003725045442792|0.003055513563447912|0.3291355049384758|0.9227738504654309|-0.1262603104114532|-0.3718083798885345|-0.919683039188385|0|0|0|-1|-1|3
2021-04-22 21:58:46.121 +0100|140866.771071375|-0.1865997314453125|-0.2973480224609375|-0.8628997802734375|140866.751109375|0.6956659244255455|-0.1379639764183526|0.379421861980692|-0.146581158041954|-0.1804238557815552|-0.7508784532546997|-0.1482551991939545|0.05826592445373535|0.05443650484085083|XArbitraryZVertical|0.1999334324973526|0.0004881601012707937|0.3217301872748968|0.9254815335706431|-0.1277456730604172|-0.3703835010528564|-0.9200527667999268|0|0|0|-1|-1|3
2021-04-22 21:58:46.141 +0100|140866.791032375|-0.196075439453125|-0.3383636474609375|-0.8780517578125|140866.771071375|0.6812266266085968|-0.1365694043311488|0.3786132542140265|-0.03030943125486374|-0.2166701704263687|-0.6658961772918701|-0.06401793658733368|0.0679517388343811|0.05727529525756836|XArbitraryZVertical|0.1993403551400678|-0.0004456104865766778|0.3152304355458763|0.9278433138126176|-0.1265032142400742|-0.3696323037147522|-0.9205264449119568|0|0|0|-1|-1|3
2021-04-22 21:58:46.161 +0100|140866.810994375|-0.192291259765625|-0.393646240234375|-0.87310791015625|140866.791032375|0.6660444392302837|-0.1356659899954289|0.380758848620604|0.1217578798532486|-0.2156814932823181|-0.781393826007843|-0.07026724517345428|0.04069343209266663|0.03850436210632324|XArbitraryZVertical|0.2001808703380765|-0.001182037358495725|0.3081345748972014|0.9300427432317924|-0.1255639791488647|-0.3716250658035278|-0.9198524355888367|0|0|0|-1|-1|3
2021-04-22 21:58:46.181 +0100|140866.830955375|-0.200714111328125|-0.4102630615234375|-0.85308837890625|140866.810994375|0.6489032600282882|-0.1343770715343801|0.3836396126910327|0.08857320994138718|-0.235295832157135|-0.8763210773468018|-0.06671410799026489|-0.007948994636535645|0.03847050666809082|XArbitraryZVertical|0.2013014066340443|-0.001829375522190535|0.3001042658810634|0.9324226737133223|-0.1242343261837959|-0.3742979764938354|-0.918948769569397|0|0|0|-1|-1|3
2021-04-22 21:58:46.201 +0100|140866.850916375|-0.2160491943359375|-0.35003662109375|-0.86114501953125|140866.830955375|0.63036860864467|-0.1346642428962073|0.3852606465946812|-0.0668768435716629|-0.2767365276813507|-0.9453185796737671|-0.07197923958301544|-0.0360788106918335|0.06184965372085571|XArbitraryZVertical|0.2020691195588459|-0.00357309383650683|0.291322764341382|0.9350328709687947|-0.1244165897369385|-0.3758006989955902|-0.9183105826377869|0|0|0|-1|-1|3
2021-04-22 21:58:46.226 +0100|140866.8708789167|-0.204132080078125|-0.3245849609375|-0.9136810302734375|140866.850916375|0.6105709362079164|-0.1355464046171869|0.3853099183995896|-0.09389198571443558|-0.317028820514679|-0.9645810723304749|-0.08693405985832214|0.004768818616867065|0.05792170763015747|XArbitraryZVertical|0.2021711656975812|-0.005979248350959408|0.2819608073226874|0.9378641525604005|-0.1252241283655167|-0.3758463561534882|-0.9181821346282959|0|0|0|-1|-1|3
2021-04-22 21:58:46.241 +0100|140866.8908399167|-0.1451873779296875|-0.3423004150390625|-0.921112060546875|140866.8708789167|0.5914475421611703|-0.135622137745164|0.3860818791804578|0.01263776980340481|-0.2683316171169281|-0.8667148351669312|-0.08752940595149994|0.05151987075805664|0.01956909894943237|XArbitraryZVertical|0.2024751417497191|-0.007832734195017736|0.2729267306133735|0.9404540292500014|-0.1252544075250626|-0.3765616118907928|-0.9178849458694458|0|0|0|-1|-1|3
2021-04-22 21:58:46.261 +0100|140866.9108019167|-0.148590087890625|-0.4503631591796875|-0.937042236328125|140866.8908399167|0.5746118442378735|-0.1359910635004586|0.3896009754654619|0.1334995180368423|-0.3120012581348419|-0.8272479772567749|-0.03410281240940094|0.05293124914169312|-0.002883434295654297|XArbitraryZVertical|0.2040963861317325|-0.009200502765287825|0.2647548829546851|0.9424250150028284|-0.1254125982522964|-0.3798193335533142|-0.9165200591087341|0|0|0|-1|-1|3
2021-04-22 21:58:46.281 +0100|140866.9307629167|-0.1816253662109375|-0.478546142578125|-0.9071044921875|140866.9108019167|0.5572229614059395|-0.1375812879972748|0.3944977483209076|-0.04261759668588638|-0.356939435005188|-0.8421671986579895|-0.02052722871303558|-0.04511308670043945|-0.01279562711715698|XArbitraryZVertical|0.2065070138892905|-0.01103535558711666|0.2560992819834242|0.944270244525256|-0.1266133189201355|-0.3843445777893066|-0.9144661426544189|0|0|0|-1|-1|3
2021-04-22 21:58:46.301 +0100|140866.9507239167|-0.215301513671875|-0.4630126953125|-0.8319854736328125|140866.9307629167|0.5390368997767148|-0.1402042474690642|0.3932391852404425|-0.347053587436676|-0.4355809390544891|-0.9108967185020447|-0.03631110489368439|-0.09701076149940491|-0.01947325468063354|XArbitraryZVertical|0.2061314501989246|-0.01432626611165421|0.247305989582677|0.9466491153842105|-0.1290789842605591|-0.3831823766231537|-0.9146091938018799|0|0|0|-1|-1|3
2021-04-22 21:58:46.321 +0100|140866.9706859167|-0.2120819091796875|-0.407806396484375|-0.7917938232421875|140866.9507239167|0.517964229976242|-0.1426535620201968|0.3862179381530254|-0.5158971548080444|-0.4415630996227264|-0.9681633114814758|-0.08296272158622742|-0.0962575376033783|0.06724470853805542|XArbitraryZVertical|0.202951104069302|-0.01858636113084413|0.2374767377444409|0.9497738375858299|-0.1316980123519897|-0.3766876459121704|-0.9169307947158813|0|0|0|-1|-1|3
2021-04-22 21:58:46.341 +0100|140866.9906469167|-0.2258148193359375|-0.40118408203125|-0.776885986328125|140866.9706859167|0.4959894627146273|-0.1438306627994014|0.3766169505331881|-0.6254904866218567|-0.4416261613368988|-0.9838529229164124|-0.07917399704456329|-0.03464242815971375|0.1291587352752686|XArbitraryZVertical|0.1983268303780479|-0.02259294274058279|0.2274588258432808|0.9531099804963897|-0.1332895010709763|-0.36777663230896|-0.9203120470046997|0|0|0|-1|-1|3
2021-04-22 21:58:46.361 +0100|140867.0106089167|-0.2545166015625|-0.3863525390625|-0.8329010009765625|140866.9906469167|0.4733838086842197|-0.1452823118939701|0.366125467518253|-0.8145004510879517|-0.5055587291717529|-0.9330214858055115|-0.08560304343700409|-0.06131017208099365|0.1512861251831055|XArbitraryZVertical|0.1932338893007794|-0.02680077188134523|0.2171181101615346|0.9564529838877917|-0.1351765096187592|-0.3580003976821899|-0.9238847494125366|0|0|0|-1|-1|3
2021-04-22 21:58:46.381 +0100|140867.0305699167|-0.289520263671875|-0.456268310546875|-0.604248046875|140867.0106089167|0.4504318796891831|-0.1473775845708288|0.3509196554082969|-1.027599215507507|-0.5325419902801514|-1.029101967811584|-0.1090071350336075|-0.03583034873008728|0.09408372640609741|XArbitraryZVertical|0.1858794136780541|-0.03178443648447945|0.2067644052149938|0.9600453720807839|-0.1378954946994781|-0.3437615633010864|-0.9288771748542786|0|0|0|-1|-1|3
2021-04-22 21:58:46.401 +0100|140867.0505309167|-0.4127655029296875|-0.50531005859375|-0.346343994140625|140867.0305699167|0.4215972909876734|-0.1487702013395091|0.3253784590874796|-2.118683338165283|-0.6283146142959595|-1.277620434761047|-0.1353732645511627|-0.1134675741195679|0.2502193450927734|XArbitraryZVertical|0.173293817827979|-0.03791429836972919|0.1941361935045538|0.9648021185378564|-0.1404448002576828|-0.3196673989295959|-0.9370635151863098|0|0|0|-1|-1|3
2021-04-22 21:58:46.421 +0100|140867.0704929167|-0.51593017578125|-0.192291259765625|-0.063446044921875|140867.0505309167|0.3868904678373894|-0.1535480392229481|0.2708464581751262|-3.643048048019409|-0.8752120137214661|-1.127243757247925|-0.2267912626266479|-0.2505640387535095|0.5452409386634827|XArbitraryZVertical|0.1467107704977871|-0.04870094427522424|0.1797578758345613|0.9714893065148326|-0.1473697274923325|-0.2675471305847168|-0.9522083401679993|0|0|0|-1|-1|3
2021-04-22 21:58:46.441 +0100|140867.0904539167|-0.547607421875|0.1574249267578125|0.1035614013671875|140867.0704929167|0.3525381451719729|-0.1660962081476364|0.1969962651171223|-4.058071613311768|-1.192244529724121|-1.047940373420715|-0.3355908691883087|-0.09809762239456177|0.8435206413269043|XArbitraryZVertical|0.1109573535531223|-0.0640864032441049|0.1658751927390386|0.9777867840547286|-0.1621358245611191|-0.1957245767116547|-0.9671627879142761|0|0|0|-1|-1|3
2021-04-22 21:58:46.461 +0100|140867.1104159167|-0.50628662109375|0.35906982421875|0.1882476806640625|140867.0904539167|0.3187019925101526|-0.1877175080102914|0.1204393955359986|-4.082656383514404|-1.522073030471802|-0.875981867313385|-0.3648450374603271|0.1995257139205933|1.038120985031128|XArbitraryZVertical|0.07400372167738181|-0.08285817014430825|0.1521236922477419|0.9820979922160262|-0.1852651238441467|-0.1201484277844429|-0.9753159284591675|0|0|0|-1|-1|3
2021-04-22 21:58:46.481 +0100|140867.1303769167|-0.4909210205078125|0.3903961181640625|0.145172119140625|140867.1104159167|0.2867343412019808|-0.2187171213870028|0.04497863250468286|-3.868050098419189|-1.830722093582153|-0.7298330664634705|-0.2908563911914825|0.3774688243865967|1.170944333076477|XArbitraryZVertical|0.03771345841922781|-0.1047999366393734|0.1395580099310989|0.9839300407645533|-0.2167580425739288|-0.04496346786618233|-0.9751893281936646|0|0|0|-1|-1|3
2021-04-22 21:58:46.501 +0100|140867.1503379167|-0.66204833984375|0.3666839599609375|-0.0048065185546875|140867.1303769167|0.2560911615504596|-0.2582696691335521|-0.0222444603957341|-3.446030378341675|-2.209766387939453|-0.6548309326171875|-0.2257041037082672|0.3727779686450958|1.128734111785889|XArbitraryZVertical|0.005504081712718966|-0.1291224787725522|0.1280454073684061|0.9833116039550285|-0.2553448081016541|0.02224262617528439|-0.9665941596031189|0|0|0|-1|-1|3
2021-04-22 21:58:46.521 +0100|140867.1702999167|-0.7673187255859375|0.4362945556640625|-0.12652587890625|140867.1503379167|0.2250116560895165|-0.3058151698878065|-0.08595306651296208|-3.649688243865967|-2.335964441299438|-0.5641658306121826|-0.3195937871932983|0.2973020076751709|0.9825218319892883|XArbitraryZVertical|-0.02510945748824676|-0.1559768902778153|0.1173587419265232|0.9804426585341199|-0.2999591529369354|0.08584726601839066|-0.950081467628479|0|0|0|-1|-1|3
2021-04-22 21:58:46.541 +0100|140867.1902609167|-0.768310546875|0.672393798828125|-0.2390899658203125|140867.1702999167|0.1881887909939927|-0.3581061674098062|-0.1578538485527944|-4.447031021118164|-2.444300889968872|-0.5541269183158875|-0.4073817729949951|0.2410105764865875|0.8076239824295044|XArbitraryZVertical|-0.06056008297096678|-0.1840475232609309|0.1061456928223125|0.9752909221566429|-0.346143364906311|0.1571990996599197|-0.924917995929718|0|0|0|-1|-1|3
2021-04-22 21:58:46.561 +0100|140867.2102229167|-0.733123779296875|0.9360504150390625|-0.3099517822265625|140867.1902609167|0.1384660877006936|-0.417363744090558|-0.2447652970319126|-5.46226692199707|-2.535371780395508|-0.7106002569198608|-0.3850963711738586|0.3655978441238403|0.6791044473648071|XArbitraryZVertical|-0.1049183766652525|-0.2133902468929149|0.09240098386952253|0.9669120554809206|-0.3932700753211975|0.2423286288976669|-0.8869134783744812|0|0|0|-1|-1|3
2021-04-22 21:58:46.580 +0100|140867.2301839167|-0.7656402587890625|1.244796752929688|-0.332000732421875|140867.2102229167|0.06628286601978597|-0.4914931086656745|-0.3446193999196659|-6.540135383605957|-2.750221490859985|-1.152858138084412|-0.2948805391788483|0.5329053401947021|0.5382744073867798|XArbitraryZVertical|-0.1582738540871039|-0.2450568772129001|0.07335344494180948|0.953685461219515|-0.444194495677948|0.3378384709358215|-0.8297930359840393|0|0|0|-1|-1|3
2021-04-22 21:58:46.600 +0100|140867.2501459167|-0.9971923828125|1.574798583984375|-0.2589111328125|140867.2301839167|-0.03691281568329119|-0.5872953249112763|-0.4486577436693446|-7.223823070526123|-2.807993412017822|-1.660521984100342|-0.23769810795784|0.7183897495269775|0.4129592776298523|XArbitraryZVertical|-0.2181016175734214|-0.2782154341267877|0.04715408388340957|0.9342400311365165|-0.4992712140083313|0.4337565004825592|-0.750055730342865|0|0|0|-1|-1|3
2021-04-22 21:58:46.620 +0100|140867.2701069167|-1.0860595703125|1.709808349609375|-0.11676025390625|140867.2501459167|-0.1707881240144503|-0.7056722418143092|-0.5434321313188115|-7.388114929199219|-2.569413423538208|-2.049304723739624|-0.374297559261322|0.9950395822525024|0.350419282913208|XArbitraryZVertical|-0.2793253849438063|-0.3101890934144105|0.0153055491086873|0.9085846205190238|-0.5551156401634216|0.5170767307281494|-0.6515201330184937|0|0|0|-1|-1|3
2021-04-22 21:58:46.641 +0100|140867.2900679167|-0.9383087158203125|1.960617065429688|-0.037933349609375|140867.2701069167|-0.3325895134628195|-0.8414608774587842|-0.6190160247692329|-7.486008167266846|-2.091421842575073|-2.28850531578064|-0.4901901483535767|1.10308575630188|0.3851824402809143|XArbitraryZVertical|-0.3385858589094966|-0.3376320471140444|-0.02122752689799682|0.8780169257238865|-0.6072679758071899|0.5802340507507324|-0.5427284240722656|0|0|0|-1|-1|3
2021-04-22 21:58:46.660 +0100|140867.3100299167|-0.813446044921875|2.126434326171875|-0.1580810546875|140867.2900679167|-0.5136824235030832|-0.9889873374795598|-0.6734797724775878|-7.153350830078125|-1.774854779243469|-2.204039335250854|-0.3306384682655334|1.261056423187256|0.3943016529083252|XArbitraryZVertical|-0.3950779835855707|-0.3593594274383177|-0.05937365641206064|0.8433559157003967|-0.6530502438545227|0.6237097382545471|-0.4295483827590942|0|0|0|-1|-1|3
2021-04-22 21:58:46.680 +0100|140867.3299909167|-0.7881011962890625|2.321060180664062|-0.365631103515625|140867.3100299167|-0.685586011790613|-1.131714099680322|-0.6990644372845276|-5.554699897766113|-1.60594654083252|-2.0476975440979|-0.1437270641326904|1.453391909599304|0.2031603753566742|XArbitraryZVertical|-0.4415704007993773|-0.3772490868799623|-0.0936485493874904|0.8086587164459849|-0.6928364038467407|0.6435018181800842|-0.325397402048111|0|0|0|-1|-1|3
2021-04-22 21:58:46.700 +0100|140867.3499529167|-0.759796142578125|1.96881103515625|-0.738555908203125|140867.3299909167|-0.8129415601804898|-1.243958944635935|-0.6987625540613036|-3.573452472686768|-1.329949140548706|-1.631068587303162|-0.05867534875869751|1.634302139282227|-0.04789203405380249|XArbitraryZVertical|-0.471984901234657|-0.3928438333521902|-0.1187164741074078|0.7802631090513784|-0.7251078486442566|0.64327073097229|-0.245807945728302|0|0|0|-1|-1|3
2021-04-22 21:58:46.733 +0100|140867.3699139167|-0.69720458984375|1.4578857421875|-0.4739227294921875|140867.3499529167|-0.9049991554647527|-1.323359038651707|-0.6895542256057994|-3.366888761520386|-0.7189045548439026|-1.208009600639343|-0.0254518985748291|1.513190507888794|-0.5015263557434082|XArbitraryZVertical|-0.4926553338690524|-0.4034961224249928|-0.1378732308569978|0.7585992619499783|-0.7480316758155823|0.6361933350563049|-0.1889632046222687|0|0|0|-1|-1|3
2021-04-22 21:58:46.747 +0100|140867.3898749167|-0.5385589599609375|1.777572631835938|-0.3168182373046875|140867.3898749167|-1.188508155154688|-1.514853784256963|-0.6892259404180459|-7.252343654632568|0.04588891193270683|-0.5571808815002441|0.1748585104942322|1.035324573516846|-0.2904053926467896|XArbitraryZVertical|-0.565447893875887|-0.3983634284576733|-0.1905839882155319|0.6966012179536719|-0.7705315351486206|0.6359400153160095|-0.04315051808953285|0|0|0|-1|-1|3
2021-04-22 21:58:46.760 +0100|140867.4098369167|-0.2813262939453125|2.2061767578125|-0.06658935546875||||||||||||||||||||||||3
2021-04-22 21:58:46.780 +0100|140867.4297979167|-0.2669677734375|1.979248046875|-0.836456298828125|140867.4098369167|-1.372047484868848|-1.628459075376177|-0.6804229726360039|-7.037573337554932|0.227046936750412|-0.2895554006099701|0.4386734366416931|1.467374563217163|-0.1293598413467407|XArbitraryZVertical|-0.6114851377062458|-0.3853366509061013|-0.2221464514798321|0.6544101807557913|-0.7760149836540222|0.6291218400001526|0.04479681700468063|0|0|0|-1|-1|3
2021-04-22 21:58:46.801 +0100|140867.4497599167|-0.531890869140625|1.360687255859375|-1.207107543945312|140867.4297979167|-1.546884507436929|-1.729347835739414|-0.6612606507028598|-7.080954074859619|0.6510853171348572|-0.09277576208114624|0.5501476526260376|1.422630548477173|-0.5555151700973511|XArbitraryZVertical|-0.6534905128684465|-0.3677692912758495|-0.2520222631875677|0.6117031167780903|-0.7793195843696594|0.6141122579574585|0.1246082037687302|0|0|0|-1|-1|3
2021-04-22 21:58:46.820 +0100|140867.4697209167|-0.840057373046875|1.267715454101562|-0.413055419921875|140867.4497599167|-1.721307358272417|-1.81185289369524|-0.6377888978786169|-6.948003768920898|1.494760274887085|0.4369008839130402|0.3142878413200378|0.9141157269477844|-1.518487691879272|XArbitraryZVertical|-0.6927713071074605|-0.3405392509408506|-0.2833747683053915|0.5690340534603207|-0.7801846861839294|0.5954204797744751|0.191798135638237|0|0|0|-1|-1|3
2021-04-22 21:58:46.840 +0100|140867.4896819167|-1.025833129882812|1.949661254882812|-0.154388427734375|140867.4697209167|-1.889092180015605|-1.879601828153654|-0.6123681519118813|-6.621209621429443|1.595504403114319|1.057442784309387|0.02610266208648682|0.6458346247673035|-0.9935519695281982|XArbitraryZVertical|-0.7280108466341932|-0.3071609124748806|-0.3131156746414435|0.526888231926036|-0.779582142829895|0.5748069286346436|0.2486952394247055|0|0|0|-1|-1|3
2021-04-22 21:58:46.860 +0100|140867.5096439167|-0.89984130859375|1.162078857421875|-0.1887664794921875|140867.4896819167|-2.035693816742173|-1.92938586880714|-0.59993287731331|-4.59782075881958|1.829525589942932|1.547839045524597|-0.24232417345047|1.24072527885437|-0.372919112443924|XArbitraryZVertical|-0.7565741649744024|-0.2691273804243663|-0.3355829062888905|0.4924937995826624|-0.7728738188743591|0.5645870566368103|0.2896680235862732|0|0|0|-1|-1|3
2021-04-22 21:58:46.880 +0100|140867.5296049167|-1.110488891601562|-0.0200958251953125|0.3897705078125|140867.5096439167|-2.107859044347959|-1.936607120961154|-0.6065542122342126|-1.162048101425171|1.361524343490601|1.117229342460632|-0.1311836242675781|0.9567387104034424|-0.5165075063705444|XArbitraryZVertical|-0.76724124011927|-0.2414329298356708|-0.3485922726655011|0.4811804947580146|-0.7672543525695801|0.5700397491455078|0.293897956609726|0|0|0|-1|-1|3
2021-04-22 21:58:46.900 +0100|140867.5495669167|-0.9264373779296875|0.6525726318359375|0.2580718994140625|140867.5296049167|-2.132299864216083|-1.92726920001094|-0.6162822563358556|-0.8447992205619812|1.051616191864014|0.4932085275650024|-0.3110588788986206|-0.4686312079429626|0.0223272442817688|XArbitraryZVertical|-0.7686981365833857|-0.2269121212573802|-0.3554650890263814|0.4808936045216652|-0.7647318840026855|0.5780053734779358|0.2847718596458435|0|0|0|-1|-1|3
2021-04-22 21:58:46.920 +0100|140867.5695279167|-0.656768798828125|0.8725433349609375|0.4474639892578125|140867.5495669167|-2.162672489993104|-1.924191908405625|-0.6156336895200555|-1.1543128490448|1.044594645500183|0.4081293344497681|-0.2300615310668945|-0.1471178531646729|0.05485627055168152|XArbitraryZVertical|-0.7714844081894673|-0.214674836557006|-0.3640831662797825|0.4755734320882233|-0.7659562826156616|0.5774759650230408|0.2825469672679901|0|0|0|-1|-1|3
2021-04-22 21:58:46.940 +0100|140867.5894889167|-0.58270263671875|0.95391845703125|0.3633575439453125|140867.5695279167|-2.176035101481904|-1.914238677225494|-0.6187156041231126|0.2750741839408875|0.7228060960769653|0.2294392883777618|0.05582326650619507|0.2926143407821655|0.09977653622627258|XArbitraryZVertical|-0.7711178812902979|-0.2062319679070351|-0.3702984838349648|0.4751051215893965|-0.7670512795448303|0.5799893140792847|0.274308830499649|0|0|0|-1|-1|3
2021-04-22 21:58:46.960 +0100|140867.6094509167|-0.34332275390625|0.9403839111328125|0.3085479736328125|140867.5894889167|-2.161144854832501|-1.891215422227542|-0.6283733071332933|1.017164945602417|0.837993860244751|0.3165144622325897|0.1764861345291138|0.3359978199005127|0.1249144077301025|XArbitraryZVertical|-0.7654951322274149|-0.203513935724654|-0.3730659512936496|0.4831368452824178|-0.7678105235099792|0.58782958984375|0.2548014521598816|0|0|0|-1|-1|3
2021-04-22 21:58:46.980 +0100|140867.6294119167|-0.0979156494140625|0.7575531005859375|0.102813720703125|140867.6094509167|-2.134688248311103|-1.85478005841188|-0.6405574673815628|1.486999034881592|1.233099818229675|0.1900066733360291|0.34930020570755|0.3612038493156433|0.1363537162542343|XArbitraryZVertical|-0.7562740496908952|-0.2009212143535134|-0.3772433148717616|0.4953461387004836|-0.7696497440338135|0.5976424813270569|0.2246395498514175|0|0|0|-1|-1|3
2021-04-22 21:58:47.000 +0100|140867.6493739167|-0.0323333740234375|0.7107391357421875|0.154144287109375|140867.6294119167|-2.090406978625686|-1.79872899705807|-0.6532494169294217|2.14124584197998|1.699525475502014|0.1887747943401337|0.6199938058853149|0.2057973742485046|-0.04110409319400787|XArbitraryZVertical|-0.7415962026433585|-0.1993881460504773|-0.3836540782960932|0.5129221013035999|-0.7735739946365356|0.6077700257301331|0.1794411242008209|0|0|0|-1|-1|3
2021-04-22 21:58:47.020 +0100|140867.6693349167|-0.1584625244140625|0.8845672607421875|0.0813140869140625|140867.6493739167|-2.045487765116281|-1.73532804450977|-0.6660246683866987|1.483065843582153|1.85081160068512|0.3517521619796753|0.7530211210250854|0.06559062004089355|0.027114138007164|XArbitraryZVertical|-0.7254583312296341|-0.1952001998817697|-0.3916648556515216|0.5312305479446173|-0.7756657004356384|0.6178651452064514|0.1287858188152313|0|0|0|-1|-1|3
2021-04-22 21:58:47.043 +0100|140867.6892959167|-0.4014892578125|0.7987823486328125|-0.183746337890625|140867.6693349167|-2.014101037930325|-1.677642822843159|-0.6769009716875899|1.264469265937805|1.966940402984619|0.3710397481918335|0.6552598476409912|0.227378785610199|0.01242100447416306|XArbitraryZVertical|-0.711659295149131|-0.1873665501611187|-0.400897963684278|0.5456333042291661|-0.7750723958015442|0.6263802647590637|0.08313035219907761|0|0|0|-1|-1|3
2021-04-22 21:58:47.060 +0100|140867.7092579167|-0.92315673828125|0.74163818359375|0.0303497314453125|140867.6892959167|-1.983358284637418|-1.617938711761696|-0.687781926566134|0.9747292995452881|2.066107034683228|0.6307818293571472|0.4585494995117188|0.2353374361991882|-0.1074860095977783|XArbitraryZVertical|-0.6974997390938229|-0.1780443717336813|-0.4103600179411825|0.5598206543183419|-0.7717978358268738|0.6348249316215515|0.03641136735677719|0|0|0|-1|-1|3
2021-04-22 21:58:47.079 +0100|140867.7292189167|-0.78656005859375|1.025299072265625|0.155303955078125|140867.7092579167|-1.984719035859174|-1.574906978281152|-0.7046216953947639|-1.226225018501282|2.534046649932861|0.9887847900390625|-0.04988729953765869|0.05872040987014771|-0.08610820770263672|XArbitraryZVertical|-0.6899719665629952|-0.1597014243247721|-0.4208914052349013|0.5668198229226845|-0.7618504166603088|0.647745668888092|0.003131719073280692|0|0|0|-1|-1|3
2021-04-22 21:58:47.099 +0100|140867.7491809167|-0.5098114013671875|1.162460327148438|0.0762786865234375|140867.7292189167|-2.036321296826999|-1.551698786587164|-0.724988377000655|-2.264209508895874|3.13457465171814|1.09047257900238|-0.1487857103347778|0.2880292534828186|0.1875733137130737|XArbitraryZVertical|-0.6902147391625183|-0.1282837655351105|-0.4377248846445563|0.5617329591457283|-0.7483707666397095|0.6631267666816711|-0.01429377868771553|0|0|0|-1|-1|3
2021-04-22 21:58:47.119 +0100|140867.7691419167|-0.6331787109375|1.020462036132812|0.054901123046875|140867.7491809167|-2.095693741854812|-1.529681695115567|-0.7530432285160282|-2.146402835845947|2.944304943084717|1.53842556476593|0.1986746788024902|0.4818780422210693|0.1123568415641785|XArbitraryZVertical|-0.6903506790247498|-0.09176773114036847|-0.4541243144963811|0.5556670225103797|-0.7289946675300598|0.6838622689247131|-0.02998924627900124|0|0|0|-1|-1|3
2021-04-22 21:58:47.139 +0100|140867.7891029167|-0.69866943359375|0.9120330810546875|-0.0109710693359375|140867.7691419167|-2.153350544414184|-1.51504819995467|-0.7876267398853901|-2.27226710319519|2.605549335479736|1.752240180969238|0.1210736036300659|0.354611873626709|0.1114099100232124|XArbitraryZVertical|-0.6908434689691326|-0.05549344304053713|-0.4656305167466682|0.5503126111482222|-0.7044330835342407|0.7086808681488037|-0.03931155800819397|0|0|0|-1|-1|3
2021-04-22 21:58:47.159 +0100|140867.8090649167|-0.5212249755859375|0.91180419921875|-0.1131134033203125|140867.7891029167|-2.22334780566962|-1.513973369133178|-0.8293813628826324|-2.816389322280884|2.596189737319946|2.125639677047729|-0.03034824132919312|0.1950266361236572|0.04183327779173851|XArbitraryZVertical|-0.6932296627730756|-0.01599255120277958|-0.4737815262472782|0.5428703630181475|-0.6742425560951233|0.7375137209892273|-0.03835374489426613|0|0|0|-1|-1|3
2021-04-22 21:58:47.179 +0100|140867.8290259167|-0.3819580078125|1.042724609375|-0.228363037109375|140867.8090649167|-2.308751020056103|-1.528608578088816|-0.8765827166870552|-2.884326219558716|2.302778005599976|2.301551580429077|0.06129997968673706|0.1275452375411987|-0.06243312358856201|XArbitraryZVertical|-0.6969899839951101|0.02671129870293468|-0.4789779525632244|0.5329838502889908|-0.6392123103141785|0.768557071685791|-0.02698293700814247|0|0|0|-1|-1|3
2021-04-22 21:58:47.199 +0100|140867.8489879167|-0.3624725341796875|0.9720458984375|-0.3472137451171875|140867.8290259167|-2.389986378890745|-1.550306215094083|-0.9263768090932419|-2.227792978286743|1.934890866279602|2.504934787750244|0.199301540851593|0.2316330075263977|-0.1566672325134277|XArbitraryZVertical|-0.69953104978994|0.06709828876755528|-0.4796901559335063|0.5254061562811768|-0.6006085872650146|0.7994486093521118|-0.01230826042592525|0|0|0|-1|-1|3
2021-04-22 21:58:47.219 +0100|140867.868949125|-0.4494171142578125|0.9080963134765625|-0.344970703125|140867.8489879167|-2.451021478620677|-1.566454011506215|-0.9759512636999189|-1.443402767181396|1.40870201587677|2.394585371017456|0.2115888595581055|0.1610370874404907|-0.3367234468460083|XArbitraryZVertical|-0.6988864368301922|0.1016910905295128|-0.477023534029401|0.5231302305278142|-0.5603752136230469|0.8282353281974792|-0.00243334099650383|0|0|0|-1|-1|3
2021-04-22 21:58:47.239 +0100|140867.888910125|-0.43133544921875|1.017333984375|-0.1735992431640625|140867.868949125|-2.494981365524428|-1.580123169491614|-1.022170321363098|-0.9226589798927307|0.9259441494941711|2.220280647277832|0.09189599752426147|0.06637436151504517|-0.3784446716308594|XArbitraryZVertical|-0.6968838430859332|0.1295566325908651|-0.4716689368133556|0.524496453371288|-0.5214929580688477|0.8532418608665466|0.00486402353271842|0|0|0|-1|-1|3
2021-04-22 21:58:47.264 +0100|140867.908872125|-0.3684539794921875|1.06219482421875|-0.24151611328125|140867.888910125|-2.520008003837793|-1.587782571832107|-1.065029565102284|-0.2854147553443909|0.4894446134567261|2.140728235244751|0.04191789031028748|0.09901213645935059|-0.2137951850891113|XArbitraryZVertical|-0.6937656268720815|0.1510092425268085|-0.4643481787913571|0.5294017822696007|-0.4844084978103638|0.8748032450675964|0.008229073137044907|0|0|0|-1|-1|3
2021-04-22 21:58:47.279 +0100|140867.928833125|-0.30975341796875|1.054275512695312|-0.2768096923828125|140867.908872125|-2.515492702417235|-1.577703588375736|-1.106406030626265|0.5952860713005066|0.07992325723171234|1.968289375305176|0.06354320049285889|0.1732571125030518|-0.2218433618545532|XArbitraryZVertical|-0.68839155712587|0.166324553552969|-0.4556085508905051|0.539327523141392|-0.4478673338890076|0.8940948247909546|0.003093586070463061|0|0|0|-1|-1|3
2021-04-22 21:58:47.299 +0100|140867.948795125|-0.261566162109375|1.0982666015625|-0.3207244873046875|140867.928833125|-2.462318850396232|-1.53317422009227|-1.143459589017962|1.67821741104126|-0.4389271438121796|1.782828807830811|0.08989006280899048|0.1388923525810242|-0.2443291544914246|XArbitraryZVertical|-0.6798766383236911|0.1731282010402566|-0.4460880026140314|0.5556978219309895|-0.4141556918621063|0.9100727438926697|-0.01558876503258944|0|0|0|-1|-1|3
2021-04-22 21:58:47.319 +0100|140867.968756125|-0.2657012939453125|1.156906127929688|-0.38372802734375|140867.948795125|-2.335820396418025|-1.431485056470297|-1.173373528067955|3.148867130279541|-0.9834755659103394|1.657067179679871|0.1202161610126495|0.1541863679885864|-0.2382465600967407|XArbitraryZVertical|-0.6664896877250475|0.1700553906068552|-0.4356787578104733|0.5805659975606161|-0.3832940459251404|0.922061562538147|-0.0537453219294548|0|0|0|-1|-1|3
2021-04-22 21:58:47.339 +0100|140867.988718125|-0.251129150390625|1.006683349609375|-0.4727783203125|140867.968756125|-2.105551642222376|-1.24170346666884|-1.185360628643693|5.21623420715332|-1.289697170257568|1.551763296127319|0.08891034126281738|0.2206733822822571|-0.2730710506439209|XArbitraryZVertical|-0.6441811414686645|0.1558134936445068|-0.4252433660346283|0.6163774085778837|-0.3557876646518707|0.9266347289085388|-0.1215056255459785|0|0|0|-1|-1|3
2021-04-22 21:58:47.359 +0100|140868.008679125|-0.3646697998046875|0.4939422607421875|-0.632598876953125|140867.988718125|-1.774746258128813|-0.9655737814704227|-1.152593773755729|7.831296443939209|-1.589084148406982|1.318435192108154|0.08660557866096497|0.1636635661125183|-0.2079509347677231|XArbitraryZVertical|-0.6066073587606519|0.1284440076617045|-0.4161189272588675|0.6651126265437464|-0.3339821398258209|0.9138203859329224|-0.2310592979192734|0|0|0|-1|-1|3
2021-04-22 21:58:47.379 +0100|140868.028640125|-0.378448486328125|-0.126373291015625|-0.7342376708984375|140868.008679125|-1.446834071675978|-0.698138451164494|-1.047062278764876|9.999570846557617|-0.8736104965209961|0.9396024346351624|-0.023164302110672|-0.1982943415641785|-0.2405621111392975|XArbitraryZVertical|-0.5482084945946568|0.08895227224620313|-0.4105471211087482|0.7231916040064333|-0.3214717507362366|0.8659577369689941|-0.3831098675727844|0|0|0|-1|-1|3
2021-04-22 21:58:47.399 +0100|140868.048602125|-0.2500457763671875|-0.4548797607421875|-0.7451324462890625|140868.028640125|-1.221600743375464|-0.523798713204663|-0.8890415014310135|9.81934928894043|-0.3144634366035461|0.5836727619171143|-0.06332316994667053|-0.7590426206588745|-0.1200260519981384|XArbitraryZVertical|-0.4743225588544531|0.0467311502415227|-0.4089212258339431|0.7782144954660623|-0.315187394618988|0.7764680981636047|-0.5456686019897461|0|0|0|-1|-1|3
2021-04-22 21:58:47.419 +0100|140868.068563125|-0.0341339111328125|-0.3808746337890625|-0.63958740234375|140868.048602125|-1.087791668431204|-0.4287903766381936|-0.7466153393361273|6.654943466186523|-0.06452366709709167|1.060536623001099|0.01118037104606628|-1.09599781036377|-0.08476054668426514|XArbitraryZVertical|-0.4074394990573799|0.0148837646069548|-0.4044065512864143|0.8186738884353705|-0.3051725029945374|0.6791583299636841|-0.6675430536270142|0|0|0|-1|-1|3
2021-04-22 21:58:47.439 +0100|140868.088525125|-0.035736083984375|0.0960845947265625|-0.4264373779296875|140868.068563125|-1.008242667426035|-0.3804583215910755|-0.6633392699940827|3.797682046890259|-0.3726601600646973|1.136533260345459|0.2065227031707764|-1.065641403198242|0.06671249866485596|XArbitraryZVertical|-0.3663282799593233|-0.002088035799416257|-0.3945634335356572|0.8426856251680439|-0.2925986051559448|0.6157514452934265|-0.731598436832428|0|0|0|-1|-1|3
2021-04-22 21:58:47.459 +0100|140868.108486125|-0.25152587890625|0.10693359375|-0.590911865234375|140868.088525125|-0.9532034638192285|-0.3626862361792884|-0.6127056273050746|2.580661296844482|-0.9596309065818787|1.188452005386353|0.2929950356483459|-0.5629674196243286|0.2749927639961243|XArbitraryZVertical|-0.3424662116297778|-0.01670468542962934|-0.3819004099734638|0.8582482812966247|-0.2902494966983795|0.5750830173492432|-0.7648757100105286|0|0|0|-1|-1|3
2021-04-22 21:58:47.479 +0100|140868.128447125|-0.28289794921875|0.2722930908203125|-0.6468353271484375|140868.108486125|-0.9140875437097143|-0.3600858381945489|-0.5897723238679805|0.3629682958126068|-0.9576727151870728|1.056594848632812|0.07958775758743286|-0.4256327152252197|0.231916069984436|XArbitraryZVertical|-0.3321980662977693|-0.0275743302163795|-0.3687214227600336|0.867714737321951|-0.2928303778171539|0.5561718344688416|-0.7777681946754456|0|0|0|-1|-1|3
2021-04-22 21:58:47.499 +0100|140868.148409125|-0.2513275146484375|0.7651519775390625|-0.857666015625|140868.128447125|-0.898611164926554|-0.3725164564684089|-0.6205415400815776|-2.388619899749756|-1.148850321769714|1.18342125415802|0.01659348607063293|-0.3988431692123413|0.1325976848602295|XArbitraryZVertical|-0.34684872532897|-0.0285212754168413|-0.3555192995667525|0.8674610960007192|-0.2961050271987915|0.5814757943153381|-0.757764995098114|0|0|0|-1|-1|3
2021-04-22 21:58:47.519 +0100|140868.168370125|-0.277435302734375|0.701904296875|-0.3457489013671875|140868.148409125|-0.8975821013513315|-0.3946848215910223|-0.6765635813901385|-2.548402309417725|-1.202983856201172|1.115399360656738|0.0224134624004364|0.0257384181022644|-0.1099601984024048|XArbitraryZVertical|-0.3734458700376678|-0.02544242574738349|-0.3427197097147543|0.861646284491397|-0.2998192608356476|0.6261172294616699|-0.719781756401062|0|0|0|-1|-1|3
2021-04-22 21:58:47.539 +0100|140868.188332125|-0.4754180908203125|0.7884063720703125|-0.4261932373046875|140868.168370125|-0.8922418752042679|-0.4175458208985931|-0.7260135026465423|-1.818244934082031|-1.391809940338135|1.032280087471008|0.0637241005897522|0.1131145358085632|0.2629709243774414|XArbitraryZVertical|-0.3969762776061642|-0.02490790099322097|-0.3282013994165562|0.8567808234327526|-0.303257554769516|0.6638936996459961|-0.6835788488388062|0|0|0|-1|-1|3
2021-04-22 21:58:47.559 +0100|140868.208293125|-0.5960235595703125|1.2708740234375|-0.7367706298828125|140868.188332125|-0.8872876469731912|-0.4445748868319123|-0.75735643237129|-0.8900574445724487|-1.580289840698242|0.7205818891525269|-0.08958515524864197|0.001641750335693359|0.3025500774383545|XArbitraryZVertical|-0.4136137716250458|-0.03023244860346917|-0.3153982363837274|0.8535419483873684|-0.3125154376029968|0.6870028972625732|-0.6560192704200745|0|0|0|-1|-1|3
2021-04-22 21:58:47.578 +0100|140868.228254125|-0.54791259765625|1.193588256835938|-0.849945068359375|140868.208293125|-0.8747462571558342|-0.4654912202543617|-0.7694769848290105|0.2189582139253616|-1.382924556732178|0.6040605902671814|-0.2750832736492157|0.4942123889923096|-0.03527224063873291|XArbitraryZVertical|-0.421372701025903|-0.03898086013101493|-0.3035938291363675|0.8536722486881356|-0.3224060535430908|0.695759654045105|-0.6418510675430298|0|0|0|-1|-1|3
2021-04-22 21:58:47.599 +0100|140868.248216125|-0.493988037109375|0.8721923828125|-0.8874969482421875|140868.228254125|-0.8511865997007418|-0.4749316969241414|-0.7630284145613814|0.944781482219696|-1.16086208820343|0.6452549695968628|-0.2213086783885956|0.5598786473274231|-0.2033129334449768|XArbitraryZVertical|-0.4197347770336002|-0.04944566109544329|-0.2926513447416627|0.8577488742387066|-0.3304958045482635|0.6911134123802185|-0.6427556872367859|0|0|0|-1|-1|3
2021-04-22 21:58:47.619 +0100|140868.268177125|-0.41143798828125|0.6803436279296875|-0.800628662109375|140868.248216125|-0.8241535952941783|-0.4763056114133388|-0.7569192479094039|0.3313843905925751|-0.8870104551315308|0.838720977306366|-0.1830195784568787|0.260290801525116|-0.2292327880859375|XArbitraryZVertical|-0.416802235755717|-0.05705518459095343|-0.2817974241511921|0.8623288045742218|-0.3333082497119904|0.6866851449012756|-0.646041214466095|0|0|0|-1|-1|3
2021-04-22 21:58:47.638 +0100|140868.288139125|-0.247100830078125|0.5965576171875|-0.5741424560546875|140868.268177125|-0.8046479639596401|-0.4783374872087124|-0.770006793190275|-0.8604933023452759|-0.6459822058677673|1.013389945030212|-0.102926105260849|0.02137422561645508|-0.2038107514381409|XArbitraryZVertical|-0.4217061415541943|-0.05915468773777566|-0.2706999428945732|0.8633576618264872|-0.3304549753665924|0.6961401104927063|-0.6373292803764343|0|0|0|-1|-1|3
2021-04-22 21:58:47.658 +0100|140868.308100125|-0.1325225830078125|0.59814453125|-0.3837432861328125|140868.288139125|-0.7963844459770343|-0.4844300387159882|-0.8050878532895903|-1.95463490486145|-0.6058698296546936|1.122756719589233|0.0300145149230957|-0.1180622577667236|-0.02354907989501953|XArbitraryZVertical|-0.436138844749568|-0.05594436292207242|-0.2597308550391953|0.8597634626912005|-0.3227552771568298|0.720891535282135|-0.6133062839508057|0|0|0|-1|-1|3
2021-04-22 21:58:47.678 +0100|140868.328061125|-0.176361083984375|0.6990814208984375|-0.4156646728515625|140868.308100125|-0.7995477840904872|-0.5009053361510328|-0.8571922965327157|-2.673777103424072|-0.8371774554252625|1.175087094306946|0.1653158366680145|-0.1643174290657043|0.1702339053153992|XArbitraryZVertical|-0.4586180591846319|-0.05094336264138409|-0.2480810357540655|0.8517805567638218|-0.3143340051174164|0.7560077309608459|-0.5741484761238098|0|0|0|-1|-1|3
2021-04-22 21:58:47.698 +0100|140868.348023125|-0.20068359375|0.654052734375|-0.4387054443359375|140868.328061125|-0.809385330975796|-0.5258978759220542|-0.9172946650002282|-2.798030853271484|-0.8369932174682617|1.186451077461243|0.145159900188446|-0.117796778678894|0.1192174553871155|XArbitraryZVertical|-0.4847508595267843|-0.04591066966097907|-0.2351253594714725|0.8412045832532435|-0.3051949739456177|0.7939597368240356|-0.5258176326751709|0|0|0|-1|-1|3
2021-04-22 21:58:47.718 +0100|140868.367984125|-0.2014312744140625|0.5610504150390625|-0.345855712890625|140868.348023125|-0.8266187960671665|-0.5550960652008253|-0.9754558119106841|-2.744791746139526|-0.6778542995452881|0.9192193150520325|0.09823852777481079|-0.1465151309967041|0.03553351759910583|XArbitraryZVertical|-0.5099541585930095|-0.04065419959668871|-0.2236429057986995|0.8296251944033249|-0.2955507636070251|0.8279575705528259|-0.4765879809856415|0|0|0|-1|-1|3
2021-04-22 21:58:47.738 +0100|140868.387946125|-0.170135498046875|0.544525146484375|-0.129180908203125|140868.367984125|-0.8617035947928261|-0.5967208878452175|-1.031098972252776|-3.067148447036743|-0.4951630532741547|0.5202946662902832|0.08719480037689209|-0.2769466638565063|0.06004995107650757|XArbitraryZVertical|-0.5349767610207815|-0.03556606187069277|-0.2156284814866205|0.816112416887588|-0.2887642681598663|0.8578642606735229|-0.4250698387622833|0|0|0|-1|-1|3
2021-04-22 21:58:47.758 +0100|140868.407907125|-0.1656494140625|0.766754150390625|0.008392333984375|140868.387946125|-0.9345218388446991|-0.6686960682632274|-1.090311900289223|-3.826383113861084|-0.3597770929336548|0.1310528963804245|0.1062082648277283|-0.3575351238250732|0.1483088731765747|XArbitraryZVertical|-0.5637164964651623|-0.02986601512691247|-0.2118977590561716|0.7977664390124491|-0.2865527272224426|0.8867711424827576|-0.3626634776592255|0|0|0|-1|-1|3
2021-04-22 21:58:47.778 +0100|140868.427868125|-0.1971282958984375|0.880126953125|0.15374755859375|140868.407907125|-1.065211388498767|-0.7932511114433932|-1.152857031299103|-4.475638389587402|-0.3232794404029846|-0.1918971836566925|0.1260504126548767|-0.2052785754203796|0.2487723529338837|XArbitraryZVertical|-0.5975513606186358|-0.02375169860992826|-0.2112938854616716|0.7731255529379993|-0.2892439961433411|0.9139272570610046|-0.2847364544868469|0|0|0|-1|-1|3
2021-04-22 21:58:47.798 +0100|140868.447830125|-0.197174072265625|0.76519775390625|0.3650360107421875|140868.427868125|-1.260329382206559|-0.9800203778879328|-1.204899235952686|-4.581056118011475|-0.3204602301120758|-0.4764899611473083|0.107416957616806|-0.05872684717178345|0.3184769153594971|XArbitraryZVertical|-0.6324607549241543|-0.01867059908342845|-0.2129337264289614|0.7445160529952987|-0.2971455752849579|0.9338031411170959|-0.1992896050214767|0|0|0|-1|-1|3
2021-04-22 21:58:47.818 +0100|140868.467791125|-0.1146697998046875|0.7124481201171875|0.5876007080078125|140868.447830125|-1.522415525876432|-1.233349476238477|-1.237180561376772|-4.943341732025146|-0.4049067497253418|-0.6689772009849548|0.09764376282691956|-0.1451972126960754|0.4043151140213013|XArbitraryZVertical|-0.6675126983593461|-0.01479578635535453|-0.2156581832791201|0.712530387433981|-0.3089940547943115|0.9448645114898682|-0.1084157675504684|0|0|0|-1|-1|3
2021-04-22 21:58:47.838 +0100|140868.487753125|-0.081756591796875|0.8651123046875|0.559051513671875|140868.467791125|-1.851506491417647|-1.554964880459837|-1.242116416460467|-5.687998294830322|-0.6076122522354126|-0.6969348192214966|0.1899866461753845|-0.2362031936645508|0.5498497486114502|XArbitraryZVertical|-0.7052020718137131|-0.01161858412651|-0.2177228860864853|0.6746495694790491|-0.3227542042732239|0.9464693069458008|-0.005110092926770449|0|0|0|-1|-1|3
2021-04-22 21:58:47.858 +0100|140868.507714125|-0.206573486328125|1.178298950195312|0.579864501953125|140868.487753125|-2.191841337881833|-1.89027645359128|-1.210938249007572|-5.880204677581787|-0.8778501152992249|-0.646038830280304|0.2548390924930573|-0.1273075938224792|0.4729293584823608|XArbitraryZVertical|-0.7451376467449659|-0.008306306915212161|-0.2173084112341338|0.6304585968869706|-0.3343229293823242|0.9359468221664429|0.1105982139706612|0|0|0|-1|-1|3
2021-04-22 21:58:47.878 +0100|140868.527675125|-0.320953369140625|1.364044189453125|0.4720916748046875|140868.507714125|-2.439519756638199|-2.138021903339437|-1.152487558901931|-4.974550247192383|-0.8738974332809448|-0.5221633911132812|0.1791783571243286|0.1815442442893982|0.366063266992569|XArbitraryZVertical|-0.7804383324783125|-0.006696994170962048|-0.2144531791382079|0.5872658972207514|-0.3426007926464081|0.913777232170105|0.2182576805353165|0|0|0|-1|-1|3
2021-04-22 21:58:47.898 +0100|140868.547637125|-0.34417724609375|1.309097290039062|0.4368438720703125|140868.527675125|-2.578289735799055|-2.277840750865009|-1.098364572301686|-2.911966562271118|-0.5288980007171631|-0.2505967319011688|0.03929856419563293|0.4571000933647156|0.1885336935520172|XArbitraryZVertical|-0.8048413797484473|-0.005421162677590323|-0.2111951408704449|0.5546149923474043|-0.34597048163414|0.8904643654823303|0.2955980598926544|0|0|0|-1|-1|3
2021-04-22 21:58:47.918 +0100|140868.567598125|-0.29669189453125|1.147720336914062|0.35113525390625|140868.547637125|-2.6360184942082|-2.334130767517196|-1.071948158784449|-0.9764020442962646|0.01683105528354645|0.09342136979103088|-0.000108569860458374|0.4583371877670288|0.1284386813640594|XArbitraryZVertical|-0.8156961913446721|-0.003498485368835163|-0.2095750605559369|0.5391716898938309|-0.3456717133522034|0.8781341910362244|0.3307450413703918|0|0|0|-1|-1|3
2021-04-22 21:58:47.938 +0100|140868.587560125|-0.336669921875|0.9822540283203125|0.350067138671875|140868.567598125|-2.651506707883714|-2.344077481351702|-1.070344787430052|0.1784516572952271|0.2835491299629211|0.2805159986019135|0.0350518524646759|0.3211961984634399|0.03448009490966797|XArbitraryZVertical|-0.8170524978659547|-0.0002060671239376512|-0.2099928741210483|0.5369621538869224|-0.343371719121933|0.8773660063743591|0.3351496458053589|0|0|0|-1|-1|3
2021-04-22 21:58:47.958 +0100|140868.607521125|-0.386810302734375|0.962554931640625|0.4093780517578125|140868.587560125|-2.650511974413257|-2.335926551843069|-1.080581758341135|0.4862690269947052|0.4371896088123322|0.4100186824798584|0.01710012555122375|0.1214450001716614|0.01980099081993103|XArbitraryZVertical|-0.8142701726921846|0.003834376154994055|-0.2110737774577546|0.5407377144864876|-0.3395953774452209|0.8822318315505981|0.3261012434959412|0|0|0|-1|-1|3
2021-04-22 21:58:47.978 +0100|140868.627482125|-0.4551849365234375|0.935089111328125|0.4800872802734375|140868.607521125|-2.644136870719588|-2.320379125507124|-1.094780347936722|0.739276111125946|0.5667502880096436|0.4114316403865814|-0.03703150153160095|0.07391011714935303|0.06339541077613831|XArbitraryZVertical|-0.8099589438829614|0.008626861567028077|-0.2128804646676393|0.5464194467058608|-0.3354211151599884|0.8888276219367981|0.3122158348560333|0|0|0|-1|-1|3
2021-04-22 21:58:47.998 +0100|140868.647444125|-0.474090576171875|0.8105926513671875|0.522735595703125|140868.627482125|-2.622618329048832|-2.287837760589768|-1.113570295699039|1.290546417236328|0.7786025404930115|0.313902884721756|-0.1098294258117676|0.06142860651016235|0.1730720400810242|XArbitraryZVertical|-0.8030445978238374|0.01319088625256901|-0.216300292607004|0.5551211999788737|-0.3327524960041046|0.8972805738449097|0.290109246969223|0|0|0|-1|-1|3
2021-04-22 21:58:48.018 +0100|140868.667405125|-0.472198486328125|0.6997528076171875|0.5000152587890625|140868.647444125|-2.575735084380542|-2.227599099305358|-1.136307131017368|1.642741203308105|0.9812542200088501|0.143773227930069|-0.1390136182308197|-0.06446468830108643|0.2703189849853516|XArbitraryZVertical|-0.79260938824682|0.01682583136261359|-0.2223452754513247|0.5674944728849954|-0.3333687782287598|0.9070851802825928|0.2570255100727081|0|0|0|-1|-1|3
2021-04-22 21:58:48.038 +0100|140868.687367125|-0.505035400390625|0.7067718505859375|0.4516143798828125|140868.667405125|-2.51467569632135|-2.152533434021138|-1.155316733653365|1.42130720615387|0.9450200200080872|-0.04142335429787636|-0.1325220167636871|-0.1941742897033691|0.2845486402511597|XArbitraryZVertical|-0.781360788302496|0.01917276379692376|-0.2300278811401676|0.5798232527375914|-0.3372358977794647|0.914922833442688|0.2217845469713211|0|0|0|-1|-1|3
2021-04-22 21:58:48.058 +0100|140868.707328125|-0.560028076171875|0.817047119140625|0.3584442138671875|140868.687367125|-2.462374332052529|-2.086561546627293|-1.165677191153943|0.899583101272583|0.8628779649734497|-0.1505703628063202|-0.1492989659309387|-0.228809118270874|0.2722299098968506|XArbitraryZVertical|-0.7724988643971318|0.02092415602190822|-0.2378534763260426|0.5884161934511379|-0.3428588509559631|0.9190554618835449|0.1943846344947815|0|0|0|-1|-1|3
2021-04-22 21:58:48.078 +0100|140868.727290125|-0.56097412109375|0.8722686767578125|0.2912750244140625|140868.707328125|-2.424967765806371|-2.034725501678223|-1.168926255836316|0.5998656153678894|0.8986576199531555|-0.2639898657798767|-0.202297031879425|-0.1288886666297913|0.2080813497304916|XArbitraryZVertical|-0.7661544023719941|0.02276681865633639|-0.2459118401722789|0.593309834537177|-0.3497973084449768|0.9203311204910278|0.1750217974185944|0|0|0|-1|-1|3
2021-04-22 21:58:48.098 +0100|140868.747251125|-0.5809173583984375|0.888580322265625|0.2689208984375|140868.727290125|-2.391615898080204|-1.985696716696497|-1.167914643010439|0.5297774076461792|0.9452974200248718|-0.3758294582366943|-0.1985521018505096|-0.05477726459503174|0.1362230628728867|XArbitraryZVertical|-0.7605458128512855|0.02432650329865311|-0.2549710858941053|0.5966306470203478|-0.3588065207004547|0.9199349880218506|0.1580434292554855|0|0|0|-1|-1|3
2021-04-22 21:58:48.118 +0100|140868.767212125|-0.571075439453125|0.96148681640625|0.2170867919921875|140868.747251125|-2.363567776874018|-1.940605526457156|-1.163742500633155|0.3129783272743225|0.9913650751113892|-0.419430136680603|-0.2048493325710297|-0.04022449254989624|0.1338677406311035|XArbitraryZVertical|-0.7555634294574947|0.02591465198478302|-0.2648133840784808|0.5986036939931402|-0.3691413998603821|0.9182912111282349|0.1430953294038773|0|0|0|-1|-1|3
2021-04-22 21:58:48.137 +0100|140868.787174125|-0.51824951171875|0.993804931640625|0.121978759765625|140868.767212125|-2.346771948218879|-1.905074917365798|-1.157416071767952|0.1139511317014694|1.004894018173218|-0.4090955555438995|-0.1979522407054901|0.02748399972915649|0.1026567071676254|XArbitraryZVertical|-0.7517299992862827|0.02827780137422164|-0.2749226573191513|0.5987653604987704|-0.3794716894626617|0.9157682061195374|0.1317952573299408|0|0|0|-1|-1|3
2021-04-22 21:58:48.158 +0100|140868.807135125|-0.4687652587890625|0.918731689453125|0.0718231201171875|140868.787174125|-2.336385817484993|-1.876264324207069|-1.150167556779718|0.06092933565378189|0.9077873229980469|-0.4286065995693207|-0.1473276317119598|0.08387154340744019|0.0198526531457901|XArbitraryZVertical|-0.7486363239650224|0.0307393758847135|-0.2846472607615677|0.5979756694539745|-0.3894317746162415|0.9128323793411255|0.1228025108575821|0|0|0|-1|-1|3
2021-04-22 21:58:48.177 +0100|140868.827097125|-0.4550628662109375|0.907623291015625|0.0778350830078125|140868.807135125|-2.330798443219498|-1.855021769055864|-1.141857078287186|-0.1075132936239243|0.711182713508606|-0.4192198216915131|-0.07761794328689575|0.02575761079788208|-0.03944636136293411|XArbitraryZVertical|-0.7465019693823844|0.03237037911411663|-0.2932552458153421|0.5963961945771489|-0.3992201089859009|0.9094074368476868|0.1166260614991188|0|0|0|-1|-1|3
2021-04-22 21:58:48.197 +0100|140868.847058125|-0.418731689453125|0.943084716796875|0.058868408203125|140868.827097125|-2.336028099552672|-1.847124459282977|-1.132802994765982|-0.3576864004135132|0.571447491645813|-0.3970157206058502|-0.05127221345901489|-0.005626380443572998|-0.04135467112064362|XArbitraryZVertical|-0.746132384971287|0.03379557188193662|-0.3003038247888405|0.5932638087943971|-0.4080334305763245|0.9056045413017273|0.1157113537192345|0|0|0|-1|-1|3
2021-04-22 21:58:48.217 +0100|140868.8670195|-0.419097900390625|1.008438110351562|0.063323974609375|140868.847058125|-2.351486062720363|-1.851511168746037|-1.122099628851685|-0.572266697883606|0.3809857964515686|-0.4542754590511322|-0.008313685655593872|0.03747820854187012|-0.05638111382722855|XArbitraryZVertical|-0.7475781721505637|0.03487541114079317|-0.3062216193424528|0.5883358101798635|-0.4168123006820679|0.9010132551193237|0.1201788336038589|0|0|0|-1|-1|3
2021-04-22 21:58:48.237 +0100|140868.8869815|-0.4476165771484375|1.140167236328125|0.069732666015625|140868.8670195|-2.374964139268195|-1.866603979681424|-1.108922169929217|-0.7951250672340393|0.2288449257612228|-0.5124932527542114|0.01242238283157349|0.09126150608062744|-0.06587934494018555|XArbitraryZVertical|-0.7508134526800315|0.03510124991135111|-0.3110650150071169|0.5816234053651507|-0.4262721836566925|0.8952189087867737|0.1299058794975281|0|0|0|-1|-1|3
2021-04-22 21:58:48.257 +0100|140868.9069425|-0.407958984375|1.180267333984375|0.0138092041015625|140868.8869815|-2.402767165131945|-1.887543770457875|-1.094012035939748|-0.809885561466217|0.1718244701623917|-0.5367336273193359|-0.009691625833511353|0.2190834879875183|-0.07144130766391754|XArbitraryZVertical|-0.755153138594576|0.03487232926341422|-0.3152396994287064|0.5737174038973872|-0.4360947608947754|0.8884752988815308|0.1429446786642075|0|0|0|-1|-1|3
2021-04-22 21:58:48.277 +0100|140868.9269045|-0.355133056640625|1.168670654296875|-0.0252685546875|140868.9069425|-2.425590527692325|-1.904715845311628|-1.078820304303151|-0.6921896934509277|0.1199767142534256|-0.5443205833435059|0.02514949440956116|0.3004680871963501|-0.1258563846349716|XArbitraryZVertical|-0.7591161098058627|0.03393924650271753|-0.3192629787432006|0.5662704744989191|-0.4462777674198151|0.8814011812210083|0.1548182815313339|0|0|0|-1|-1|3
2021-04-22 21:58:48.297 +0100|140868.9468655|-0.33251953125|1.160629272460938|-0.0293426513671875|140868.9269045|-2.444710465752902|-1.919750784631266|-1.064969565090303|-0.645681619644165|0.05006943643093109|-0.4525991678237915|0.08794206380844116|0.296291708946228|-0.184482216835022|XArbitraryZVertical|-0.7627326546421755|0.03276051746497961|-0.3225206510525752|0.5595946953777651|-0.4553288519382477|0.874774158000946|0.165668711066246|0|0|0|-1|-1|3
2021-04-22 21:58:48.317 +0100|140868.9668265|-0.3496246337890625|1.100982666015625|0.0108184814453125|140868.9468655|-2.461548662094564|-1.934074426483215|-1.053674175763545|-0.4960732460021973|-0.007166315335780382|-0.3252969682216644|0.125567227602005|0.2944654226303101|-0.2086470425128937|XArbitraryZVertical|-0.7660453399691622|0.0317997166222157|-0.3246169379856325|0.5538837145133586|-0.4621158838272095|0.8692455291748047|0.1756733655929565|0|0|0|-1|-1|3
2021-04-22 21:58:48.337 +0100|140868.9867885|-0.37310791015625|1.09930419921875|0.04742431640625|140868.9668265|-2.474175820548931|-1.94601564053076|-1.045188708412414|-0.4411817193031311|-0.08597548305988312|-0.230566993355751|0.1233095228672028|0.2479410767555237|-0.184317484498024|XArbitraryZVertical|-0.7687576877130039|0.03081208489899148|-0.3256536062040277|0.5495561969970589|-0.4668314754962921|0.8650192618370056|0.1838755309581757|0|0|0|-1|-1|3
2021-04-22 21:58:48.357 +0100|140869.0067495|-0.380706787109375|1.11846923828125|0.0474090576171875|140868.9867885|-2.488197939612518|-1.960640139413022|-1.038433737070604|-0.4587827026844025|-0.1665951758623123|-0.1399722099304199|0.1021000444889069|0.2344889640808105|-0.1550262272357941|XArbitraryZVertical|-0.7717105480240181|0.03020561887875751|-0.32553742601958|0.5455051632001687|-0.4694866836071014|0.8616102933883667|0.1928990930318832|0|0|0|-1|-1|3
2021-04-22 21:58:48.382 +0100|140869.0267115|-0.345977783203125|1.073654174804688|0.03436279296875|140869.0067495|-2.502716596499572|-1.976952823569692|-1.033568216629839|-0.3783808052539825|-0.2127691656351089|-0.03035579435527325|0.08206087350845337|0.2549588084220886|-0.1491301357746124|XArbitraryZVertical|-0.7747227819791074|0.02995627520018617|-0.3243688272862155|0.541933688179308|-0.4701232016086578|0.8591305017471313|0.2021855413913727|0|0|0|-1|-1|3
2021-04-22 21:58:48.397 +0100|140869.0466725|-0.3388214111328125|1.00762939453125|0.0401611328125|140869.0267115|-2.513736002144507|-1.991381665136257|-1.031348062063074|-0.237194299697876|-0.2830978333950043|0.06673222780227661|0.1164034605026245|0.2339416742324829|-0.1735772788524628|XArbitraryZVertical|-0.7771626925660197|0.02968509938528997|-0.322287297912975|0.5396926311865891|-0.468897670507431|0.8579922318458557|0.2097261101007462|0|0|0|-1|-1|3
2021-04-22 21:58:48.417 +0100|140869.0666345|-0.3319091796875|0.9549102783203125|0.05462646484375|140869.0466725|-2.522008590922189|-2.004708261432329|-1.03247034557075|-0.1036741062998772|-0.3185302317142487|0.2144724279642105|0.1286841928958893|0.1580635905265808|-0.1783342063426971|XArbitraryZVertical|-0.7790362450186258|0.02963285505932257|-0.3190647583863646|0.5389085285567357|-0.4651872217655182|0.8585681319236755|0.2155511528253555|0|0|0|-1|-1|3
2021-04-22 21:58:48.437 +0100|140869.0865955|-0.34246826171875|0.921844482421875|0.0808258056640625|140869.0666345|-2.527231016134521|-2.015723465165027|-1.037226664169075|0.05723047256469727|-0.3356812596321106|0.3294094800949097|0.1271371245384216|0.1075998544692993|-0.1712937653064728|XArbitraryZVertical|-0.7800945948284542|0.03005531968067863|-0.3150487012643339|0.5397160936907278|-0.4590928852558136|0.8609970211982727|0.2189017981290817|0|0|0|-1|-1|3
2021-04-22 21:58:48.457 +0100|140869.1065565|-0.3857421875|0.9124298095703125|0.1205291748046875|140869.0865955|-2.529615749295928|-2.024399694581284|-1.04493632663503|0.1686087250709534|-0.327257513999939|0.4168374240398407|0.1148003339767456|0.06581687927246094|-0.1443535089492798|XArbitraryZVertical|-0.7804040793285156|0.03082524903561357|-0.3104820202301377|0.5418674950760106|-0.4511964619159698|0.8648926019668579|0.2199614495038986|0|0|0|-1|-1|3
2021-04-22 21:58:48.477 +0100|140869.1265185|-0.4047698974609375|0.911407470703125|0.17095947265625|140869.1065565|-2.529903213894815|-2.03079395217713|-1.054967514577956|0.2593736052513123|-0.2795786261558533|0.4775333404541016|0.07044678926467896|0.04173636436462402|-0.1125941574573517|XArbitraryZVertical|-0.7800407554981383|0.03203046718082053|-0.3056887921155568|0.5450365823128704|-0.4419838786125183|0.869884192943573|0.2189790606498718|0|0|0|-1|-1|3
2021-04-22 21:58:48.497 +0100|140869.1464795|-0.4242706298828125|0.8812103271484375|0.2188720703125|140869.1265185|-2.527560678983185|-2.033439793378249|-1.066574533228111|0.3714236617088318|-0.1982920616865158|0.5150783061981201|0.03042107820510864|0.03901505470275879|-0.05844530463218689|XArbitraryZVertical|-0.7788969172755379|0.03366054329040144|-0.3012591067141795|0.5490261946541154|-0.432338535785675|0.8755506873130798|0.2156268805265427|0|0|0|-1|-1|3
2021-04-22 21:58:48.517 +0100|140869.1664415|-0.4398651123046875|0.836822509765625|0.258087158203125|140869.1464795|-2.519699072158451|-2.029049372581265|-1.081411174520546|0.448799729347229|-0.1048463210463524|0.5228868722915649|0.001080900430679321|0.01103895902633667|-0.001077204942703247|XArbitraryZVertical|-0.7763262772661501|0.03599675645948525|-0.2972439991228099|0.5546781299308804|-0.4215834140777588|0.8826220631599426|0.2079565078020096|0|0|0|-1|-1|3
2021-04-22 21:58:48.537 +0100|140869.1864025|-0.473785400390625|0.8302001953125|0.28924560546875|140869.1664415|-2.509641412088695|-2.020845665315973|-1.097572715197147|0.4090421199798584|-0.04294519126415253|0.5302456021308899|-0.02132609486579895|-0.04774272441864014|0.0476672500371933|XArbitraryZVertical|-0.7730532088405829|0.03896697509337474|-0.2936988930599155|0.5609022794190083|-0.4103763997554779|0.8901037573814392|0.1982593834400177|0|0|0|-1|-1|3
2021-04-22 21:58:48.557 +0100|140869.2063635|-0.521820068359375|0.85430908203125|0.3149871826171875|140869.1864025|-2.502762759416887|-2.014118903368935|-1.111626171641105|0.3001702725887299|0.0349934957921505|0.497026801109314|-0.06658965349197388|-0.06454235315322876|0.09602378308773041|XArbitraryZVertical|-0.7702422001676943|0.04221094520514179|-0.2909088813402799|0.5659658216027381|-0.4003607034683228|0.8964205980300903|0.1901096254587173|0|0|0|-1|-1|3
2021-04-22 21:58:48.577 +0100|140869.2263255|-0.5330810546875|0.8950042724609375|0.3224639892578125|140869.2063635|-2.50125611244797|-2.010852001874972|-1.122860488754629|0.1670003235340118|0.1327516436576843|0.4782796800136566|-0.1174806356430054|-0.05806642770767212|0.125377282500267|XArbitraryZVertical|-0.7682152361021315|0.04576879694506229|-0.2889605184540794|0.569431736722073|-0.3918433487415314|0.901343047618866|0.1844988614320755|0|0|0|-1|-1|3
2021-04-22 21:58:48.597 +0100|140869.2462865|-0.513397216796875|0.880767822265625|0.32708740234375|140869.2263255|-2.504186773981047|-2.009866209622392|-1.131739342225953|0.1317144781351089|0.2237505316734314|0.4325400292873383|-0.1515510380268097|-0.01445209980010986|0.1395183652639389|XArbitraryZVertical|-0.7667334823194455|0.04971293207769464|-0.2879729483858526|0.5715942953623144|-0.3847657442092896|0.9051529169082642|0.1807032227516174|0|0|0|-1|-1|3
2021-04-22 21:58:48.617 +0100|140869.2662485|-0.4862213134765625|0.892181396484375|0.322601318359375|140869.2462865|-2.510416869754346|-2.010910053655816|-1.138216338513814|0.01559381280094385|0.2598183453083038|0.4064810872077942|-0.1363606154918671|-0.02531909942626953|0.1447463184595108|XArbitraryZVertical|-0.7657828646722079|0.05365004964402893|-0.2877499789480263|0.5726242013501837|-0.3792653679847717|0.9078872203826904|0.1786034405231476|0|0|0|-1|-1|3
2021-04-22 21:58:48.637 +0100|140869.2862095|-0.431365966796875|0.864715576171875|0.3051910400390625|140869.2662485|-2.522977906232889|-2.017345579327127|-1.142549841461338|-0.06502190232276917|0.2771137356758118|0.4245840311050415|-0.1207757890224457|-0.01734632253646851|0.1485113054513931|XArbitraryZVertical|-0.7657175591802872|0.05784872538521554|-0.2878125726324048|0.572271165429123|-0.3745559751987457|0.9096953272819519|0.1793397068977356|0|0|0|-1|-1|3
2021-04-22 21:58:48.656 +0100|140869.3061705|-0.3884735107421875|0.8570098876953125|0.2831878662109375|140869.2862095|-2.537613197776864|-2.025618104373109|-1.146339913561861|-0.07980426400899887|0.2751293480396271|0.4671957492828369|-0.07741370797157288|-0.03429454565048218|0.1289752870798111|XArbitraryZVertical|-0.765894727301055|0.06215582112409664|-0.2879039628523754|0.5715360641775076|-0.369959682226181|0.9112627506256104|0.1809161603450775|0|0|0|-1|-1|3
2021-04-22 21:58:48.676 +0100|140869.3261325|-0.3606414794921875|0.8541412353515625|0.2687530517578125|140869.3061705|-2.555012027011722|-2.036443399778102|-1.150748196191646|-0.1090541258454323|0.2750253081321716|0.5516321659088135|-0.03223609924316406|-0.05978286266326904|0.1040661334991455|XArbitraryZVertical|-0.7662041677700488|0.06695987943677648|-0.2876613010352144|0.5707002247008762|-0.3643865287303925|0.9130693078041077|0.1831049025058746|0|0|0|-1|-1|3
2021-04-22 21:58:48.697 +0100|140869.3460935|-0.33477783203125|0.8254852294921875|0.2703399658203125|140869.3261325|-2.57361241286421|-2.048250533539674|-1.156534865146241|-0.05632898211479187|0.2935481667518616|0.5993804335594177|-0.009733766317367554|-0.05962496995925903|0.08441603183746338|XArbitraryZVertical|-0.7663237187333272|0.07231614503777807|-0.2870639557483848|0.5701866609652018|-0.357500433921814|0.9154138565063477|0.1849633306264877|0|0|0|-1|-1|3
2021-04-22 21:58:48.716 +0100|140869.3660555|-0.3250579833984375|0.82464599609375|0.27215576171875|140869.3460935|-2.59211534562077|-2.059389814162873|-1.163097556332416|-0.05243607237935066|0.333052396774292|0.6055541634559631|0.009971052408218384|-0.08733224868774414|0.08329963684082031|XArbitraryZVertical|-0.7661383987285622|0.0780194644808893|-0.2865282363453412|0.5699532405120356|-0.3501056730747223|0.9180356860160828|0.1861101686954498|0|0|0|-1|-1|3
2021-04-22 21:58:48.736 +0100|140869.3860165|-0.3228302001953125|0.8169097900390625|0.2837371826171875|140869.3660555|-2.611493766662573|-2.070474646998344|-1.169951710846471|-0.0426122359931469|0.3841095566749573|0.588311493396759|0.01695799827575684|-0.09509426355361938|0.08502852916717529|XArbitraryZVertical|-0.7657692061493501|0.08412829268736106|-0.2862167494457262|0.5697368715157412|-0.3424899578094482|0.920731782913208|0.1869600862264633|0|0|0|-1|-1|3
2021-04-22 21:58:48.756 +0100|140869.4059775|-0.3094024658203125|0.7883148193359375|0.2920684814453125|140869.3860165|-2.629758365779819|-2.079463823441971|-1.176956645108256|-0.0159897468984127|0.4519456624984741|0.5468496680259705|0.01209428906440735|-0.1005055904388428|0.09502114355564117|XArbitraryZVertical|-0.7650274283915347|0.09042039720162068|-0.2863800103359586|0.5696875837386238|-0.3351543843746185|0.9234424233436584|0.1868856251239777|0|0|0|-1|-1|3
2021-04-22 21:58:48.776 +0100|140869.4259395|-0.2897491455078125|0.7814788818359375|0.2897186279296875|140869.4059775|-2.646658368474126|-2.085892709683985|-1.183922625327545|-0.02869182638823986|0.5135127305984497|0.5018323659896851|0.01684531569480896|-0.1309123635292053|0.1032768040895462|XArbitraryZVertical|-0.7639013825884808|0.09688111545257456|-0.2871661974141718|0.5697405301824636|-0.3283390998840332|0.9260931015014648|0.1858625411987305|0|0|0|-1|-1|3
2021-04-22 21:58:48.796 +0100|140869.4459005|-0.274810791015625|0.7741241455078125|0.2879791259765625|140869.4259395|-2.665811464611362|-2.093296948222305|-1.189676009621732|-0.1034374833106995|0.5601504445075989|0.4576417505741119|0.02522715926170349|-0.1462053060531616|0.1090515851974487|XArbitraryZVertical|-0.7629446181328327|0.1035804724592562|-0.2885139620174081|0.5691629894677491|-0.3223319947719574|0.9282485246658325|0.1856268048286438|0|0|0|-1|-1|3
2021-04-22 21:58:48.816 +0100|140869.4658625|-0.2473602294921875|0.79547119140625|0.267669677734375|140869.4459005|-2.685056872970678|-2.099846683817035|-1.195917925011613|-0.2105757594108582|0.5811414122581482|0.4484952986240387|0.03846609592437744|-0.1586561799049377|0.1028535217046738|XArbitraryZVertical|-0.7616808970055496|0.1106575871420605|-0.2901239550646726|0.5687049017810821|-0.3161007165908813|0.9305521249771118|0.1848057806491852|0|0|0|-1|-1|3
2021-04-22 21:58:48.836 +0100|140869.4858235|-0.2359619140625|0.8211517333984375|0.257476806640625|140869.4658625|-2.709388777176558|-2.110815002507952|-1.201068886054973|-0.2890778183937073|0.5870848894119263|0.4450975656509399|0.05526992678642273|-0.141150951385498|0.08562876284122467|XArbitraryZVertical|-0.7608861520925158|0.1181094348758701|-0.291751428222332|0.5674361910851484|-0.3099400997161865|0.932425856590271|0.1857951432466507|0|0|0|-1|-1|3
2021-04-22 21:58:48.856 +0100|140869.5057845|-0.203582763671875|0.83935546875|0.2306976318359375|140869.4858235|-2.738156663616838|-2.125803496275531|-1.205330615724669|-0.3626058995723724|0.6081950664520264|0.4567524194717407|0.06396275758743286|-0.1232429146766663|0.07127463817596436|XArbitraryZVertical|-0.7604734189519006|0.1258653858283628|-0.2933033652545385|0.5655187418342505|-0.3037403523921967|0.9339573979377747|0.1883238255977631|0|0|0|-1|-1|3
2021-04-22 21:58:48.876 +0100|140869.5257465|-0.178253173828125|0.8640289306640625|0.2152099609375|140869.5057845|-2.76935864978824|-2.142731647807369|-1.208869448456175|-0.3914437294006348|0.6116632223129272|0.4404547810554504|0.08465278148651123|-0.09811955690383911|0.04358217120170593|XArbitraryZVertical|-0.7602096412520577|0.1338104222762633|-0.2949503500103904|0.563187697738872|-0.2977274358272552|0.9352163076400757|0.191647857427597|0|0|0|-1|-1|3
2021-04-22 21:58:48.896 +0100|140869.5457075|-0.1544647216796875|0.8721923828125|0.2197265625|140869.5257465|-2.803079332621174|-2.16215069817689|-1.211270248867818|-0.4737550318241119|0.5982453227043152|0.4093768298625946|0.1074223518371582|-0.07844382524490356|0.02051934599876404|XArbitraryZVertical|-0.7602497871457803|0.14174140122518|-0.2965676617580638|0.5603367811727178|-0.2920851707458496|0.9360636472702026|0.1961407214403152|0|0|0|-1|-1|3
2021-04-22 21:58:48.916 +0100|140869.5656695|-0.12335205078125|0.900604248046875|0.2149200439453125|140869.5457075|-2.839293891111613|-2.184642886449368|-1.21164009873375|-0.569502592086792|0.5514639616012573|0.3457556962966919|0.1278316080570221|-0.06233829259872437|0.01363435387611389|XArbitraryZVertical|-0.7608778065003537|0.1493168273791959|-0.2980578516611612|0.5567146372192963|-0.2873174846172333|0.9361937046051025|0.2024611085653305|0|0|0|-1|-1|3
2021-04-22 21:58:48.936 +0100|140869.5856305|-0.09765625|0.9204864501953125|0.2183685302734375|140869.5656695|-2.878408958000234|-2.210729729029325|-1.209392972600778|-0.6756933927536011|0.4902748763561249|0.270154595375061|0.152719259262085|-0.0424727201461792|0.005136489868164062|XArbitraryZVertical|-0.7622884862039558|0.1564843641871367|-0.2993703794140385|0.5520928001759582|-0.2836253941059113|0.9354015588760376|0.2111421823501587|0|0|0|-1|-1|3
2021-04-22 21:58:48.956 +0100|140869.6055915|-0.1072998046875|0.960845947265625|0.2266387939453125|140869.5856305|-2.91799552465331|-2.239131934126293|-1.203804393812517|-0.7852294445037842|0.3641864657402039|0.1396285444498062|0.183040589094162|-0.01693779230117798|-0.005580559372901917|XArbitraryZVertical|-0.7646769001379136|0.1626129288423107|-0.3003466072165237|0.5464598226196297|-0.2816133499145508|0.9334108829498291|0.2223474532365799|0|0|0|-1|-1|3
2021-04-22 21:58:48.976 +0100|140869.6255535|-0.1042327880859375|0.9888458251953125|0.226806640625|140869.6055915|-2.955431102305021|-2.267722063625872|-1.194470970712462|-0.845825731754303|0.260844349861145|-0.0165014062076807|0.1749982535839081|0.02241683006286621|-0.01010403037071228|XArbitraryZVertical|-0.7680845254462429|0.1673038548165406|-0.3010389864377223|0.5398438388249023|-0.281810849905014|0.930021345615387|0.2358888387680054|0|0|0|-1|-1|3
2021-04-22 21:58:48.996 +0100|140869.6455145|-0.1230316162109375|1.04058837890625|0.22906494140625|140869.6255535|-2.986241787071483|-2.292209546095584|-1.181813152150321|-0.8427953720092773|0.146579310297966|-0.1875997334718704|0.17943474650383|0.05851495265960693|-0.02145341038703918|XArbitraryZVertical|-0.7721961649165486|0.1701458162499811|-0.301750777539337|0.5326443846400142|-0.2847671508789062|0.9252951741218567|0.2504730224609375|0|0|0|-1|-1|3
2021-04-22 21:58:49.016 +0100|140869.6654765|-0.150604248046875|1.076889038085938|0.238372802734375|140869.6455145|-3.011422697734189|-2.314215350830351|-1.168228772076573|-0.8059405088424683|0.009686115197837353|-0.3188528418540955|0.1729041635990143|0.1026773452758789|-0.03450950980186462|XArbitraryZVertical|-0.7766320259222355|0.1715332841379459|-0.3017892991322564|0.5256828586635217|-0.2884142696857452|0.9200581312179565|0.26516193151474|0|0|0|-1|-1|3
2021-04-22 21:58:49.036 +0100|140869.6854375|-0.1670989990234375|1.072784423828125|0.2303924560546875|140869.6654765|-3.029554664265366|-2.332467601698224|-1.156154447427838|-0.644496738910675|-0.09894464910030365|-0.4204106330871582|0.1478826999664307|0.156577467918396|-0.03832769393920898|XArbitraryZVertical|-0.7807407526126916|0.1716336853838726|-0.3010189607541993|0.5199745642303163|-0.2915452420711517|0.9152606725692749|0.2780284881591797|0|0|0|-1|-1|3
2021-04-22 21:58:49.056 +0100|140869.7053995|-0.1653900146484375|1.055267333984375|0.2075958251953125|140869.6854375|-3.038149107007281|-2.343799782719|-1.145651895248008|-0.4673840403556824|-0.175497367978096|-0.4682935476303101|0.1273319125175476|0.1652839779853821|-0.05204868316650391|XArbitraryZVertical|-0.7842431519268108|0.1702004703651621|-0.3001445844238732|0.5156625661591072|-0.2952406406402588|0.910979151725769|0.2880110442638397|0|0|0|-1|-1|3
2021-04-22 21:58:49.076 +0100|140869.7253605|-0.1856842041015625|1.051193237304688|0.1891021728515625|140869.7053995|-3.039208835317151|-2.349967748126243|-1.137143403952611|-0.3261309862136841|-0.2647447288036346|-0.4910837113857269|0.1349300146102905|0.1524995565414429|-0.08015912771224976|XArbitraryZVertical|-0.7871228385092042|0.1675383682132246|-0.2990521460751138|0.5127735056216567|-0.2989630699157715|0.9074369072914124|0.2952629327774048|0|0|0|-1|-1|3
2021-04-22 21:58:49.096 +0100|140869.7453215|-0.203582763671875|1.050140380859375|0.1954193115234375|140869.7253605|-3.035140917194948|-2.352879964378083|-1.130901670779585|-0.1616957932710648|-0.321951150894165|-0.4717894494533539|0.1209303438663483|0.1443213224411011|-0.1096268594264984|XArbitraryZVertical|-0.7893866159558156|0.1640969916391316|-0.2976339716364219|0.5112291197594115|-0.3021142184734344|0.9047965407371521|0.3001181185245514|0|0|0|-1|-1|3
2021-04-22 21:58:49.116 +0100|140869.7652835|-0.2183837890625|1.049118041992188|0.201019287109375|140869.7453215|-3.022957747479646|-2.348906000260339|-1.125555780069192|0.07105344533920288|-0.3571268320083618|-0.4636156260967255|0.1077539324760437|0.1500284671783447|-0.1051463186740875|XArbitraryZVertical|-0.7910490173431107|0.1593557977468356|-0.2967582095478226|0.5106679825748714|-0.306744784116745|0.9025070667266846|0.3023056387901306|0|0|0|-1|-1|3
2021-04-22 21:58:49.136 +0100|140869.7852445|-0.2419586181640625|1.048019409179688|0.203826904296875|140869.7652835|-3.001313104476358|-2.336651356958749|-1.121760615107046|0.3240423202514648|-0.3713809251785278|-0.4593549966812134|0.09835347533226013|0.1496248245239258|-0.1019820272922516|XArbitraryZVertical|-0.7918118392861795|0.1532386620774645|-0.296564744475119|0.5114698381069693|-0.3128930330276489|0.9008660912513733|0.3008961379528046|0|0|0|-1|-1|3
2021-04-22 21:58:49.155 +0100|140869.8052055|-0.257415771484375|1.02685546875|0.217742919921875|140869.7852445|-2.972201691495245|-2.317841118002383|-1.121245246217774|0.5570827722549438|-0.3746131658554077|-0.4518467485904694|0.08144077658653259|0.1521376371383667|-0.09266647696495056|XArbitraryZVertical|-0.7913221765153235|0.1464439642670736|-0.2966148162727292|0.5141820873532075|-0.3188380300998688|0.9006422758102417|0.2952732443809509|0|0|0|-1|-1|3
2021-04-22 21:58:49.175 +0100|140869.8251675|-0.2879486083984375|1.029998779296875|0.217620849609375|140869.8052055|-2.936745298065942|-2.293469645740388|-1.122998872383659|0.6960628032684326|-0.3857309222221375|-0.448393315076828|0.07128885388374329|0.1341496109962463|-0.06993940472602844|XArbitraryZVertical|-0.7898403836291318|0.1390591096660891|-0.2968442990099822|0.518361151178253|-0.3247535526752472|0.9014029502868652|0.2863705456256866|0|0|0|-1|-1|3
2021-04-22 21:58:49.195 +0100|140869.8451285|-0.3038330078125|1.01800537109375|0.2192535400390625|140869.8251675|-2.898521690987742|-2.266604558586546|-1.126009602382703|0.7548589110374451|-0.3672989010810852|-0.4015659987926483|0.04949703812599182|0.1210246086120605|-0.0556485652923584|XArbitraryZVertical|-0.7877726161969397|0.1315895381626062|-0.2970237281805599|0.523331227591969|-0.3302444815635681|0.9027024507522583|0.2758029997348785|0|0|0|-1|-1|3
2021-04-22 21:58:49.215 +0100|140869.865090625|-0.3033905029296875|0.993438720703125|0.2154083251953125|140869.8451285|-2.858753339052064|-2.237650406437383|-1.130132221864203|0.8158861398696899|-0.3242782354354858|-0.3484214544296265|0.03386232256889343|0.1189837455749512|-0.04794076085090637|XArbitraryZVertical|-0.7851278226136473|0.1244411870476653|-0.2972721086851591|0.5288838219371589|-0.3351633548736572|0.9044685959815979|0.263822615146637|0|0|0|-1|-1|3
2021-04-22 21:58:49.235 +0100|140869.885051625|-0.300506591796875|0.9583892822265625|0.226287841796875|140869.865090625|-2.81885999919277|-2.207567279395436|-1.135102222091598|0.8277409672737122|-0.2880902886390686|-0.2814728021621704|0.03721925616264343|0.09597069025039673|-0.03396567702293396|XArbitraryZVertical|-0.7820296285122079|0.1179101326548377|-0.2975827103086994|0.5347631705587398|-0.3393290042877197|0.9065773487091064|0.2509462833404541|0|0|0|-1|-1|3
2021-04-22 21:58:49.255 +0100|140869.905012625|-0.282470703125|0.9180755615234375|0.225738525390625|140869.885051625|-2.781009588668145|-2.178357005802853|-1.140649086325473|0.7826959490776062|-0.2360148429870605|-0.203337237238884|0.03807222843170166|0.06036412715911865|-0.01213204860687256|XArbitraryZVertical|-0.7787311204440059|0.1122719225690679|-0.2977783944197097|0.5406487757977528|-0.342379242181778|0.9089043736457825|0.2380542904138565|0|0|0|-1|-1|3
2021-04-22 21:58:49.275 +0100|140869.924974625|-0.264068603515625|0.89715576171875|0.2253265380859375|140869.905012625|-2.747457663861581|-2.152330981501035|-1.145902726603006|0.6600852608680725|-0.2166564166545868|-0.1432917565107346|0.05692526698112488|0.01501864194869995|0.000247567892074585|XArbitraryZVertical|-0.7756611542192581|0.1075570290439059|-0.297756532264556|0.546005802961801|-0.3444628417491913|0.9110826253890991|0.2264374792575836|0|0|0|-1|-1|3
2021-04-22 21:58:49.295 +0100|140869.944935625|-0.2660064697265625|0.89837646484375|0.230010986328125|140869.924974625|-2.720820269003125|-2.13244243436553|-1.15064556597625|0.4772585928440094|-0.2193808853626251|-0.1118233054876328|0.0813504159450531|-0.01263719797134399|0.007569774985313416|XArbitraryZVertical|-0.7731965521359886|0.1038575044362311|-0.297197858068455|0.5505036187492057|-0.3452368676662445|0.9130274653434753|0.217238575220108|0|0|0|-1|-1|3
2021-04-22 21:58:49.315 +0100|140869.964897625|-0.2671356201171875|0.91375732421875|0.23028564453125|140869.944935625|-2.702965840648867|-2.120653096498821|-1.154544759406251|0.3201376497745514|-0.209753081202507|-0.07469671219587326|0.08010205626487732|-0.0152583122253418|0.01803326606750488|XArbitraryZVertical|-0.7716256817038497|0.1011910086407604|-0.296012702693718|0.553832873168556|-0.3447361886501312|0.9146109819412231|0.2112916260957718|0|0|0|-1|-1|3
2021-04-22 21:58:49.335 +0100|140869.984858625|-0.2707672119140625|0.9351348876953125|0.21612548828125|140869.964897625|-2.692527245259328|-2.115196182104946|-1.157083253276596|0.1872763782739639|-0.1762015223503113|-0.03883396461606026|0.07383051514625549|-0.007706284523010254|0.02675127983093262|XArbitraryZVertical|-0.77086801230518|0.09932059961556054|-0.2946856232195259|0.5559302754021244|-0.3438967764377594|0.9156344532966614|0.2082041501998901|0|0|0|-1|-1|3
2021-04-22 21:58:49.355 +0100|140870.004819625|-0.2610626220703125|0.927642822265625|0.211456298828125|140869.984858625|-2.686705937040076|-2.113278890516534|-1.159289874290389|0.157838299870491|-0.1289054304361343|-0.003985526505857706|0.07307744026184082|0.01542609930038452|0.01217362284660339|XArbitraryZVertical|-0.7704626796058384|0.09817119906606633|-0.2933346546647043|0.5574087425325687|-0.3425638377666473|0.9165192842483521|0.2065006494522095|0|0|0|-1|-1|3
2021-04-22 21:58:49.375 +0100|140870.024781625|-0.26470947265625|0.9048004150390625|0.219970703125|140870.004819625|-2.682773001063556|-2.112301788202001|-1.161925749867225|0.150577038526535|-0.0936831533908844|0.02065528184175491|0.07609054446220398|0.01205563545227051|0.007070988416671753|XArbitraryZVertical|-0.7700222508542046|0.09759984507525508|-0.2920499388081092|0.5587905919837511|-0.3406941592693329|0.9175704121589661|0.2049199938774109|0|0|0|-1|-1|3
2021-04-22 21:58:49.395 +0100|140870.044742625|-0.277130126953125|0.8956451416015625|0.2318878173828125|140870.024781625|-2.679701169402347|-2.111578933043027|-1.164767404160988|0.1429971605539322|-0.07333500683307648|0.02672728896141052|0.07413911819458008|-0.005702555179595947|0.01368066668510437|XArbitraryZVertical|-0.769538435951441|0.09734388244062593|-0.2908588629793905|0.560121362166227|-0.3386053740978241|0.9186965227127075|0.203330472111702|0|0|0|-1|-1|3
2021-04-22 21:58:49.415 +0100|140870.064704625|-0.280181884765625|0.90728759765625|0.242706298828125|140870.044742625|-2.678945160285211|-2.112638740290937|-1.167284630787791|0.07594580203294754|-0.05206380039453506|0.05255551636219025|0.06353360414505005|-0.02697271108627319|0.02672217786312103|XArbitraryZVertical|-0.7692605013014747|0.09739763657778219|-0.2896977455870562|0.5610947434391885|-0.3364074528217316|0.919687807559967|0.2024960368871689|0|0|0|-1|-1|3
2021-04-22 21:58:49.435 +0100|140870.084665625|-0.2916412353515625|0.921234130859375|0.2631683349609375|140870.064704625|-2.680341402571019|-2.115283936551315|-1.169806752187506|0.03876802325248718|-0.04706366360187531|0.06828884780406952|0.05390119552612305|-0.01308268308639526|0.03496956825256348|XArbitraryZVertical|-0.7691034521497103|0.09783393853944715|-0.2885299869822873|0.5618354280835005|-0.333885669708252|0.9206751585006714|0.2021832019090652|0|0|0|-1|-1|3
2021-04-22 21:58:49.455 +0100|140870.104626625|-0.296173095703125|0.9290771484375|0.2720489501953125|140870.084665625|-2.683284657080531|-2.119127908841024|-1.172576668169955|0.02797223441302776|-0.03146174922585487|0.09684530645608902|0.04401609301567078|-0.003814995288848877|0.05494591593742371|XArbitraryZVertical|-0.7689914106223639|0.09858809638507422|-0.2872844758483633|0.5624946913448486|-0.3309280276298523|0.9217528104782104|0.2021348029375076|0|0|0|-1|-1|3
2021-04-22 21:58:49.475 +0100|140870.124588625|-0.2977142333984375|0.9403533935546875|0.272979736328125|140870.104626625|-2.687644153446164|-2.12411178013146|-1.175768082747979|0.01560218445956707|-0.02861110121011734|0.1394922882318497|0.03279444575309753|0.004366815090179443|0.06766341626644135|XArbitraryZVertical|-0.7688846802224096|0.09966783713492043|-0.2859126627183419|0.563148885863277|-0.3274120688438416|0.9229856729507446|0.2022346556186676|0|0|0|-1|-1|3
2021-04-22 21:58:49.495 +0100|140870.144549625|-0.3113250732421875|0.941253662109375|0.287078857421875|140870.124588625|-2.69426575378548|-2.131344994229541|-1.178991943839942|0.003285330720245838|-0.0429810918867588|0.1777439713478088|0.02553588151931763|0.01503282785415649|0.06912645697593689|XArbitraryZVertical|-0.7689663646769109|0.1009852926546835|-0.2843116139404494|0.5636130563148747|-0.3234188854694366|0.9242215752601624|0.2030145972967148|0|0|0|-1|-1|3
2021-04-22 21:58:49.515 +0100|140870.164511625|-0.31561279296875|0.9352264404296875|0.2896575927734375|140870.144549625|-2.702974202243653|-2.14071067815277|-1.182611965921468|-0.01711581461131573|-0.04575770348310471|0.2350229620933533|0.01294335722923279|0.01332104206085205|0.08146253228187561|XArbitraryZVertical|-0.7691479522153748|0.1025944068557496|-0.2824022909088136|0.5640345439248611|-0.3186846971511841|0.9255978465080261|0.2042283713817596|0|0|0|-1|-1|3
2021-04-22 21:58:49.535 +0100|140870.184472625|-0.31219482421875|0.92864990234375|0.27337646484375|140870.164511625|-2.714058035524191|-2.152272075290834|-1.186578661833036|-0.02806441858410835|-0.04115655645728111|0.2700448632240295|-0.002580821514129639|0.01113998889923096|0.08554777503013611|XArbitraryZVertical|-0.7694185366369887|0.1045723679466079|-0.2802550577239228|0.5643729977300528|-0.3132312297821045|0.9270919561386108|0.2058805227279663|0|0|0|-1|-1|3
2021-04-22 21:58:49.555 +0100|140870.204433625|-0.3115234375|0.920196533203125|0.2598419189453125|140870.184472625|-2.727614494581878|-2.166206087325248|-1.190510636919275|-0.06027989462018013|-0.0452783890068531|0.3078675270080566|-0.005265116691589355|-0.001587450504302979|0.06640338897705078|XArbitraryZVertical|-0.7698578071990778|0.1068107311939327|-0.2779113417971555|0.5645138583256133|-0.3073121607303619|0.9285586476325989|0.2081791460514069|0|0|0|-1|-1|3
2021-04-22 21:58:49.575 +0100|140870.224395625|-0.309173583984375|0.9158477783203125|0.24725341796875|140870.204433625|-2.743278874598802|-2.182095839738064|-1.194480650753227|-0.06935867667198181|-0.04747325927019119|0.3340029120445251|-0.009802162647247314|-0.007677316665649414|0.05003830790519714|XArbitraryZVertical|-0.7703969800667347|0.1093047891182294|-0.2754129544551875|0.5645251950589258|-0.3009440004825592|0.9300249218940735|0.2109180837869644|0|0|0|-1|-1|3
2021-04-22 21:58:49.595 +0100|140870.244356625|-0.3025360107421875|0.914703369140625|0.23101806640625|140870.224395625|-2.760361371042941|-2.199129052320327|-1.198528430182626|-0.08202364295721054|-0.03043094463646412|0.3593820929527283|-0.01831698417663574|-0.01565730571746826|0.0396348237991333|XArbitraryZVertical|-0.7709406276705287|0.1120269688847369|-0.2728712654638016|0.5644837809043062|-0.2942602634429932|0.9315048456192017|0.2137989848852158|0|0|0|-1|-1|3
2021-04-22 21:58:49.615 +0100|140870.264318625|-0.2810821533203125|0.897979736328125|0.218017578125|140870.244356625|-2.777902905569039|-2.216207985845875|-1.202355705899016|-0.06927479058504105|-0.003324066055938601|0.3742699921131134|-0.01520237326622009|-0.02035361528396606|0.01774361729621887|XArbitraryZVertical|-0.7714489315486215|0.1148484208175152|-0.2704968584465049|0.5643651820008897|-0.2877161204814911|0.9328901171684265|0.2166472226381302|0|0|0|-1|-1|3
2021-04-22 21:58:49.634 +0100|140870.284279625|-0.2822113037109375|0.8901824951171875|0.2147369384765625|140870.264318625|-2.794208619159494|-2.231611952044052|-1.206533715453479|-0.0371689684689045|0.003057240974158049|0.3714718818664551|-0.003113865852355957|-0.0306699275970459|0.001739501953125|XArbitraryZVertical|-0.7716665447568144|0.1177297510422502|-0.2683671237521716|0.5644906690111252|-0.2812651693820953|0.9343867301940918|0.2186591029167175|0|0|0|-1|-1|3
2021-04-22 21:58:49.654 +0100|140870.304240625|-0.2696685791015625|0.875732421875|0.216644287109375|140870.284279625|-2.809802989906644|-2.246082897420576|-1.210840168379612|-0.03691215440630913|0.01722749322652817|0.3698298633098602|-0.008596152067184448|-0.0452721118927002|-0.002765744924545288|XArbitraryZVertical|-0.7717174437488318|0.1206093334857337|-0.2663905703884311|0.5647493754462565|-0.2749284207820892|0.9359122514724731|0.2201888412237167|0|0|0|-1|-1|3
2021-04-22 21:58:49.674 +0100|140870.324202625|-0.2675628662109375|0.8733367919921875|0.2170867919921875|140870.304240625|-2.824749833949525|-2.259741322602319|-1.214498182628242|-0.07463601231575012|0.01555209886282682|0.3439325094223022|-0.0006629228591918945|-0.05708301067352295|-0.006839871406555176|XArbitraryZVertical|-0.771794922808122|0.1233093935770507|-0.2646797670390543|0.5648647377638922|-0.269250750541687|0.9371944665908813|0.2217452228069305|0|0|0|-1|-1|3
2021-04-22 21:58:49.694 +0100|140870.344163625|-0.25189208984375|0.8820648193359375|0.215301513671875|140870.324202625|-2.840460521550273|-2.27400058628126|-1.217240514690174|-0.1271606385707855|0.02029465697705746|0.3041337728500366|-0.004287898540496826|-0.06603175401687622|-0.005972161889076233|XArbitraryZVertical|-0.7720698106651962|0.1259269868485431|-0.2631276677098141|0.5646366014329816|-0.2640998959541321|0.9381474852561951|0.2238987982273102|0|0|0|-1|-1|3
2021-04-22 21:58:49.714 +0100|140870.364125625|-0.2527313232421875|0.889923095703125|0.2150115966796875|140870.344163625|-2.856258008714545|-2.288271233441347|-1.218888975652708|-0.163934201002121|0.01198878977447748|0.2491612434387207|0.001777142286300659|-0.05701851844787598|-0.01179882884025574|XArbitraryZVertical|-0.7725556948412604|0.1283420692523623|-0.2617903904195674|0.564049649101127|-0.2597127258777618|0.9387170076370239|0.2266279757022858|0|0|0|-1|-1|3
2021-04-22 21:58:49.735 +0100|140870.384086625|-0.25665283203125|0.901947021484375|0.2111663818359375|140870.364125625|-2.871906308036452|-2.302692232583351|-1.219120396786473|-0.2214175760746002|-0.007399342022836208|0.2018985748291016|0.005492031574249268|-0.05096435546875|-0.01474964618682861|XArbitraryZVertical|-0.773372436773168|0.1303734553064122|-0.2605871426173661|0.5630207306162228|-0.2562559247016907|0.9387966990470886|0.2302043288946152|0|0|0|-1|-1|3
2021-04-22 21:58:49.754 +0100|140870.404047625|-0.2518768310546875|0.9189453125|0.20233154296875|140870.384086625|-2.887937487742873|-2.317743381403941|-1.218007955221368|-0.269678145647049|-0.006353465374559164|0.1590424478054047|-0.002774655818939209|-0.04295122623443604|-0.0207238495349884|XArbitraryZVertical|-0.774541853777002|0.1321251696417219|-0.2594514060054756|0.5615273141564586|-0.2535281479358673|0.9384129643440247|0.2347442805767059|0|0|0|-1|-1|3
2021-04-22 21:58:49.774 +0100|140870.424009625|-0.26763916015625|0.95098876953125|0.20318603515625|140870.404047625|-2.903197154849244|-2.332214569118818|-1.215614894928063|-0.2832395136356354|-0.02667764574289322|0.1021444573998451|0.002461165189743042|-0.02089661359786987|-0.03929877281188965|XArbitraryZVertical|-0.7759774580276525|0.1335201748392532|-0.258499258995732|0.5596513583733067|-0.2517296969890594|0.9375833868980408|0.2399373054504395|0|0|0|-1|-1|3
2021-04-22 21:58:49.794 +0100|140870.443970625|-0.2684783935546875|0.9706268310546875|0.19622802734375|140870.424009625|-2.91683357764703|-2.345304106985597|-1.21275737347581|-0.2703294157981873|-0.02732138335704803|0.07245625555515289|-0.0129014253616333|0.004072487354278564|-0.04197406768798828|XArbitraryZVertical|-0.7774447661525763|0.1346173498499679|-0.2576662623642626|0.5577329662798849|-0.250481516122818|0.9365858435630798|0.2450843900442123|0|0|0|-1|-1|3
2021-04-22 21:58:49.814 +0100|140870.463932625|-0.27655029296875|0.9818572998046875|0.1930389404296875|140870.443970625|-2.926581833688734|-2.35473589501495|-1.210320565934975|-0.192633181810379|-0.02644669450819492|0.02662742137908936|-0.01925453543663025|0.03393608331680298|-0.05065110325813293|XArbitraryZVertical|-0.7785944933949348|0.1353288141689315|-0.2570791863083862|0.5562257914481131|-0.2497741281986237|0.9357291460037231|0.2490465492010117|0|0|0|-1|-1|3
2021-04-22 21:58:49.834 +0100|140870.483893625|-0.2745361328125|0.9852752685546875|0.1899566650390625|140870.463932625|-2.932076032544716|-2.360240305213074|-1.208266058252576|-0.1412733346223831|-0.03256509453058243|0.002883387729525566|-0.02574555575847626|0.04094940423965454|-0.06029880046844482|XArbitraryZVertical|-0.7794319427647376|0.1355612267971256|-0.2567663129988219|0.5551397883712653|-0.2497528642416|0.9350025057792664|0.2517820000648499|0|0|0|-1|-1|3
2021-04-22 21:58:49.854 +0100|140870.503854625|-0.2684326171875|0.9748382568359375|0.1906585693359375|140870.483893625|-2.933409136148375|-2.36181218929062|-1.207134789967808|-0.05846493691205978|-0.02968057245016098|-0.03249058127403259|-0.02785459160804749|0.05200183391571045|-0.06113803386688232|XArbitraryZVertical|-0.7798203836696512|0.1354376292352568|-0.2566899091512668|0.5546596116241119|-0.2501004934310913|0.9346007108688354|0.2529263496398926|0|0|0|-1|-1|3
2021-04-22 21:58:49.874 +0100|140870.523816625|-0.265899658203125|0.9899444580078125|0.195098876953125|140870.503854625|-2.930659185159875|-2.359671543612553|-1.206443913205373|-0.02253295108675957|-0.03909143805503845|-0.05632036924362183|-0.01584181189537048|0.03936952352523804|-0.06450876593589783|XArbitraryZVertical|-0.7799003613621684|0.1348323573121286|-0.256863776521103|0.5546141960276479|-0.2510964274406433|0.9343547224998474|0.2528486847877502|0|0|0|-1|-1|3
2021-04-22 21:58:49.894 +0100|140870.543777625|-0.2488861083984375|0.9842071533203125|0.193359375|140870.523816625|-2.925637515525147|-2.355356530501619|-1.206461079931705|0.04245934635400772|-0.03477466851472855|-0.05936568975448608|-0.01474937796592712|0.05114305019378662|-0.05944418907165527|XArbitraryZVertical|-0.7796792135891013|0.134074577634047|-0.2571505568902019|0.5549757632544253|-0.2521736025810242|0.9343608617782593|0.2517513334751129|0|0|0|-1|-1|3
2021-04-22 21:58:49.914 +0100|140870.563738625|-0.2378082275390625|0.9660186767578125|0.18939208984375|140870.543777625|-2.917247547618739|-2.347946822722744|-1.207352996044765|0.1026305258274078|-0.05004341900348663|-0.07208450138568878|0.001300513744354248|0.05158847570419312|-0.05686201155185699|XArbitraryZVertical|-0.7790692593636109|0.1330290041890194|-0.2575739104656741|0.5558868284807887|-0.2534376978874207|0.9346782565116882|0.249291256070137|0|0|0|-1|-1|3
2021-04-22 21:58:49.934 +0100|140870.583700625|-0.2357635498046875|0.9658355712890625|0.1991119384765625|140870.563738625|-2.906700875398041|-2.338832876973934|-1.208678842965849|0.1245163530111313|-0.06147893145680428|-0.07339371740818024|0.01464879512786865|0.03492850065231323|-0.05693113803863525|XArbitraryZVertical|-0.7782723202234925|0.1317091485714788|-0.2579848299664397|0.5571255998403807|-0.2548078298568726|0.9351487755775452|0.2461102157831192|0|0|0|-1|-1|3
2021-04-22 21:58:49.954 +0100|140870.603661625|-0.225341796875|0.963134765625|0.1956939697265625|140870.603661625|-2.887306767203197|-2.322507892472079|-1.211773432432271|0.1418698728084564|-0.05105579644441605|-0.0605582557618618|0.02912041544914246|0.03073900938034058|-0.04726675152778625|XArbitraryZVertical|-0.7766885798018682|0.129324709110239|-0.2584287144810034|0.5596825883324507|-0.2566756904125214|0.9362406134605408|0.2399400621652603|0|0|0|-1|-1|3
2021-04-22 21:58:49.974 +0100|140870.623623625|-0.213623046875|0.945343017578125|0.197998046875||||||||||||||||||||||||3
2021-04-22 21:58:49.994 +0100|140870.643584625|-0.1998443603515625|0.943450927734375|0.1911163330078125|140870.623623625|-2.878105784141955|-2.314572097706333|-1.213643819406874|0.1186485067009926|-0.03869537264108658|-0.04700454324483871|0.04019513726234436|0.009850502014160156|-0.03466761112213135|XArbitraryZVertical|-0.7758108830332842|0.1283448698411026|-0.2586287209454738|0.5610315647534269|-0.2572829127311707|0.9368961453437805|0.236709862947464|0|0|0|-1|-1|3
2021-04-22 21:58:50.014 +0100|140870.663545625|-0.2119598388671875|0.9228363037109375|0.2071533203125|140870.643584625|-2.869417482171741|-2.306997467631922|-1.2158990336068|0.1566847115755081|-0.02812203764915466|-0.03886574506759644|0.05591684579849243|0.0102849006652832|-0.04558974504470825|XArbitraryZVertical|-0.7748531409178665|0.1275532189032957|-0.2587540708162218|0.5624758476591069|-0.2575016021728516|0.9376822113990784|0.2333344221115112|0|0|0|-1|-1|3
2021-04-22 21:58:50.034 +0100|140870.683507625|-0.21759033203125|0.9330902099609375|0.21990966796875|140870.663545625|-2.860943600197974|-2.299354396475125|-1.218355693011371|0.1366613507270813|-0.004603768698871136|-0.01825438812375069|0.05232700705528259|-0.01131755113601685|-0.029462069272995|XArbitraryZVertical|-0.7738245319263236|0.1269193577107924|-0.2589173583624556|0.5639584571641051|-0.2575587034225464|0.9385330080986023|0.2298258543014526|0|0|0|-1|-1|3
2021-04-22 21:58:50.054 +0100|140870.703468625|-0.2112274169921875|0.9265594482421875|0.2281036376953125|140870.683507625|-2.855038386863535|-2.29321609500963|-1.220842987469881|0.1127132549881935|0.04915943369269371|-0.002482704352587461|0.03743889927864075|-0.008679091930389404|-0.005915999412536621|XArbitraryZVertical|-0.7728200740391347|0.1268746433098432|-0.2592030487412227|0.5652131410059219|-0.257212221622467|0.9393886923789978|0.2266960889101028|0|0|0|-1|-1|3
2021-04-22 21:58:50.074 +0100|140870.723430625|-0.2210693359375|0.9161834716796875|0.22479248046875|140870.703468625|-2.850492031111111|-2.287730117059809|-1.222998669997956|0.09250080585479736|0.0779571607708931|-0.01031736843287945|0.04510140419006348|-0.009797453880310059|0.001636028289794922|XArbitraryZVertical|-0.7718922730079708|0.1271124087487849|-0.2596673197102663|0.5662135549023117|-0.2569248676300049|0.940125584602356|0.2239504903554916|0|0|0|-1|-1|3
2021-04-22 21:58:50.094 +0100|140870.743391625|-0.224761962890625|0.9213409423828125|0.1928253173828125|140870.723430625|-2.847375945161358|-2.283059154619269|-1.22486523998413|0.04131552204489708|0.1057069674134254|-0.02436172775924206|0.03605732321739197|-0.02396661043167114|0.005389794707298279|XArbitraryZVertical|-0.7710472082560685|0.1276185723291473|-0.2602646925977044|0.5669762680615406|-0.2566393315792084|0.9407601356506348|0.2216005921363831|0|0|0|-1|-1|3
2021-04-22 21:58:50.114 +0100|140870.763352625|-0.21673583984375|0.9439849853515625|0.1509857177734375|140870.743391625|-2.846596058826713|-2.280089430833121|-1.225547562788532|-0.01379513647407293|0.135332778096199|-0.03782081231474876|0.0332668125629425|-0.02683758735656738|-0.01793459057807922|XArbitraryZVertical|-0.7705507145459166|0.12830127822777|-0.2610699188858172|0.5671269049719707|-0.2568090260028839|0.9409912824630737|0.220419242978096|0|0|0|-1|-1|3
2021-04-22 21:58:50.134 +0100|140870.783314625|-0.2024078369140625|0.9216461181640625|0.110382080078125|140870.763352625|-2.8455230974515|-2.276252633741399|-1.225619300796277|0.06344026327133179|0.1596258580684662|-0.05152490362524986|0.03979691863059998|0.001260280609130859|-0.058819979429245|XArbitraryZVertical|-0.7701011892193305|0.1289907780448227|-0.262231227840877|0.5670454482274992|-0.2576018869876862|0.9410155415534973|0.2193889319896698|0|0|0|-1|-1|3
2021-04-22 21:58:50.154 +0100|140870.803275625|-0.185394287109375|0.898406982421875|0.072418212890625|140870.783314625|-2.839051157762341|-2.266706604297196|-1.226805218384575|0.1942078322172165|0.2035200446844101|-0.08271548897027969|0.05136802792549133|-0.01272082328796387|-0.09611669182777405|XArbitraryZVertical|-0.7689882600577405|0.1294568771051081|-0.2638603891252985|0.5676933828535055|-0.2588274478912354|0.9414162039756775|0.216204047203064|0|0|0|-1|-1|3
2021-04-22 21:58:50.174 +0100|140870.823237625|-0.2402496337890625|0.8848724365234375|0.05084228515625|140870.803275625|-2.825209804400709|-2.249753573142036|-1.228441112876339|0.3123529255390167|0.2144645601511002|-0.1560371071100235|0.07638010382652283|-0.04191195964813232|-0.1283130794763565|XArbitraryZVertical|-0.7672605567847488|0.1293065413451732|-0.2661459632950719|0.5689969217985059|-0.2612565457820892|0.9419665932655334|0.210817888379097|0|0|0|-1|-1|3
2021-04-22 21:58:50.193 +0100|140870.843198625|-0.3156890869140625|0.809844970703125|0.0220489501953125|140870.823237625|-2.799686579352118|-2.221509208384164|-1.230532195079333|0.5225188136100769|0.2176171541213989|-0.2992101609706879|0.04938137531280518|-0.05153822898864746|-0.1487406492233276|XArbitraryZVertical|-0.7646480608287288|0.1280409891681653|-0.2693008808006012|0.5713108360306586|-0.2655383944511414|0.9426665306091309|0.2021623104810715|0|0|0|-1|-1|3
2021-04-22 21:58:50.213 +0100|140870.8631594167|-0.3265838623046875|0.8331146240234375|-0.1121063232421875|140870.843198625|-2.752638812690261|-2.173583301633071|-1.231818951890088|0.7627755999565125|0.1191061958670616|-0.6284404993057251|-0.03424844145774841|-0.1108658313751221|-0.1567516326904297|XArbitraryZVertical|-0.760823632409098|0.1241284913318679|-0.2738437815474258|0.5751080385677415|-0.2739190459251404|0.9430952072143555|0.1885209679603577|0|0|0|-1|-1|3
2021-04-22 21:58:50.233 +0100|140870.8831214167|-0.33319091796875|0.972900390625|-0.304443359375|140870.8631594167|-2.682549495181005|-2.107390529096887|-1.228470567392616|1.139542698860168|-0.127672865986824|-0.9006944894790649|-0.0397927463054657|-0.138906717300415|-0.2270988374948502|XArbitraryZVertical|-0.7565615021391946|0.1158286445479368|-0.2794262283011577|0.5797581430615869|-0.2885010540485382|0.9419764876365662|0.1716031581163406|0|0|0|-1|-1|3
2021-04-22 21:58:50.253 +0100|140870.9030824167|-0.343292236328125|0.925140380859375|-0.382843017578125|140870.8831214167|-2.565178602452668|-2.001344316741518|-1.224755277923166|2.31635046005249|-0.313553512096405|-1.290103197097778|-0.02136814594268799|0.0151180624961853|-0.3932549953460693|XArbitraryZVertical|-0.7486301773618916|0.1016552979221493|-0.2859015107397486|0.5894740044070358|-0.3082226812839508|0.9407228827476501|0.1415618807077408|0|0|0|-1|-1|3
2021-04-22 21:58:50.273 +0100|140870.9230434167|-0.325927734375|0.8589935302734375|-0.2911376953125|140870.9030824167|-2.365306452765163|-1.820718776773705|-1.216097940283227|3.841848611831665|-0.3995248675346375|-1.81225574016571|-0.008224844932556152|0.0191577672958374|-0.4679330587387085|XArbitraryZVertical|-0.7325969317820519|0.07906584527265628|-0.2953092522252299|0.6081471912908539|-0.3365179598331451|0.937751293182373|0.08589934557676315|0|0|0|-1|-1|3
2021-04-22 21:58:50.302 +0100|140870.9430054167|-0.2545623779296875|0.85711669921875|-0.1024322509765625|140870.9230434167|-2.102256441207618|-1.584844966942971|-1.187666810694369|5.20555305480957|-0.5871114134788513|-2.193151950836182|0.04621198773384094|-0.07399916648864746|-0.3255327939987183|XArbitraryZVertical|-0.7073385726568725|0.04793669986775117|-0.3072428482490656|0.6348041140354409|-0.373788595199585|0.9274992942810059|0.005251567345112562|0|0|0|-1|-1|3
2021-04-22 21:58:50.313 +0100|140870.9629664167|-0.0311279296875|0.6493988037109375|0.1341094970703125|140870.9430054167|-1.818117440018686|-1.339589147756579|-1.127191739479167|6.762945175170898|-0.9978281259536743|-2.541707038879395|0.1290804147720337|-0.03454297780990601|-0.06581659615039825|XArbitraryZVertical|-0.6713875676987449|0.007920273420695845|-0.3190207555506468|0.668881159561271|-0.4177776873111725|0.903210461139679|-0.09835200756788254|0|0|0|-1|-1|3
2021-04-22 21:58:50.333 +0100|140870.9829284167|0.012786865234375|0.35125732421875|0.2124176025390625|140870.9629664167|-1.563365595936209|-1.14188234008746|-1.02904923855705|7.604113101959229|-1.828762173652649|-2.706950664520264|0.3781971037387848|-0.1347939372062683|0.2989475727081299|XArbitraryZVertical|-0.6252981566003382|-0.04219495888643171|-0.3272406823906703|0.7072025855355905|-0.4689267575740814|0.856809139251709|-0.2144435942173004|0|0|0|-1|-1|3
2021-04-22 21:58:50.353 +0100|140871.0028894167|-0.1035919189453125|0.3406219482421875|0.0559234619140625|140870.9829284167|-1.372397846904223|-1.031496817059226|-0.9124033871355886|7.202986240386963|-2.908151149749756|-2.490079879760742|0.553173303604126|-0.3830176591873169|0.538235068321228|XArbitraryZVertical|-0.5770217087285587|-0.09971758605744101|-0.3267240647452155|0.7418583944523914|-0.5250064134597778|0.7909765243530273|-0.3142046928405762|0|0|0|-1|-1|3
2021-04-22 21:58:50.373 +0100|140871.0228504167|-0.3827667236328125|0.4431304931640625|-0.1919097900390625|140871.0028894167|-1.231959871703923|-0.9921132631602105|-0.8018778326925197|6.543822765350342|-3.731393814086914|-1.932985186576843|0.5225258469581604|-0.3961381912231445|0.4903388619422913|XArbitraryZVertical|-0.5333382337608877|-0.1593642207022445|-0.3162044570675766|0.7682240142098233|-0.58214271068573|0.7186630964279175|-0.380306750535965|0|0|0|-1|-1|3
2021-04-22 21:58:50.393 +0100|140871.0428124167|-0.552825927734375|0.552001953125|-0.5301666259765625|140871.0228504167|-1.111947442151312|-0.9886989112619481|-0.7054398999059149|6.096020221710205|-4.058796405792236|-1.310092091560364|0.323001503944397|-0.230064332485199|0.300015389919281|XArbitraryZVertical|-0.4932825311009875|-0.2176978884446632|-0.2967664802758906|0.7881686689497533|-0.6359447240829468|0.648368775844574|-0.4185599386692047|0|0|0|-1|-1|3
2021-04-22 21:58:50.413 +0100|140871.0627734167|-0.6862335205078125|0.7245941162109375|-0.8271636962890625|140871.0428124167|-1.002111960218114|-1.002676616860469|-0.6256619418292015|5.477811813354492|-4.128267765045166|-0.6837366223335266|0.1555809378623962|-0.05925142765045166|-0.01481327414512634|XArbitraryZVertical|-0.4563589620123699|-0.2714261397218392|-0.2710706263863794|0.8028606026707766|-0.6832457184791565|0.5856339335441589|-0.436128705739975|0|0|0|-1|-1|3
2021-04-22 21:58:50.433 +0100|140871.0827354167|-0.8527069091796875|0.9481658935546875|-1.051376342773438|140871.0627734167|-0.9025543574753376|-1.029700350124604|-0.5661010740708173|4.708524227142334|-4.130806922912598|-0.02741406485438347|0.08056032657623291|0.1251842975616455|-0.3234086036682129|XArbitraryZVertical|-0.4249464577528988|-0.3194665708925449|-0.2407212947621701|0.8120437839142615|-0.7234290242195129|0.5363454222679138|-0.4347232282161713|0|0|0|-1|-1|3
2021-04-22 21:58:50.453 +0100|140871.1026964167|-0.9716644287109375|1.049285888671875|-1.292739868164062|140871.0827354167|-0.8087888922288188|-1.060897634651541|-0.5259467341602264|4.303173065185547|-3.80399489402771|0.5816550254821777|-0.05755865573883057|0.4011207222938538|-0.5719705820083618|XArbitraryZVertical|-0.3983610136931336|-0.3608973540847452|-0.206817188691091|0.8174890885834361|-0.7548351287841797|0.5020319819450378|-0.4221231937408447|0|0|0|-1|-1|3
2021-04-22 21:58:50.473 +0100|140871.1226574167|-0.9966888427734375|0.9214630126953125|-1.549850463867188|140871.1026964167|-0.7143097717004242|-1.084500785261561|-0.5018379948188473|4.162909984588623|-3.176098108291626|1.22307288646698|-0.1735140085220337|0.5525015592575073|-0.8155655860900879|XArbitraryZVertical|-0.3740269088356683|-0.3940040322449462|-0.1700307553716214|0.8221645448627646|-0.7750644683837891|0.4810377061367035|-0.409729391336441|0|0|0|-1|-1|3
2021-04-22 21:58:50.493 +0100|140871.1426194167|-1.069015502929688|0.659576416015625|-1.7841796875|140871.1226574167|-0.6143111849382703|-1.093865977022966|-0.4886433236455427|4.260691165924072|-2.537892580032349|1.668208122253418|-0.214081883430481|0.5204554200172424|-1.086565017700195|XArbitraryZVertical|-0.3495136202336702|-0.4185385740288157|-0.1306576108538036|0.828006237898313|-0.7844383120536804|0.4694284200668335|-0.4053313732147217|0|0|0|-1|-1|3
2021-04-22 21:58:50.513 +0100|140871.1625804167|-1.222427368164062|0.454742431640625|-2.168701171875|140871.1426194167|-0.511902110987256|-1.090122747184232|-0.4832178818879946|4.02068567276001|-1.845252871513367|1.991594076156616|-0.250482439994812|0.2554470300674438|-1.299577355384827|XArbitraryZVertical|-0.3253758143659943|-0.4352152630475762|-0.09018224619804603|0.8346170500844086|-0.7851623892784119|0.4646310210227966|-0.4094364941120148|0|0|0|-1|-1|3
2021-04-22 21:58:50.533 +0100|140871.1825414167|-1.384719848632812|0.2424163818359375|-2.498565673828125|140871.1625804167|-0.4106037061577664|-1.072283881685085|-0.4828020460200163|3.998630046844482|-1.082402110099792|2.11835241317749|-0.4018757939338684|0.03489860892295837|-1.641074299812317|XArbitraryZVertical|-0.3023214812512192|-0.4436970496699308|-0.05062161731570106|0.8421235607544506|-0.7779034972190857|0.4642627537250519|-0.4234693050384521|0|0|0|-1|-1|3
2021-04-22 21:58:50.553 +0100|140871.2025034167|-1.564971923828125|0.0431976318359375|-2.852737426757812|140871.1825414167|-0.3095443710605941|-1.038004224365327|-0.4775547844868567|4.060129642486572|-0.109223335981369|1.787200093269348|-0.5802093744277954|-0.1495038270950317|-1.966748118400574|XArbitraryZVertical|-0.2772080745543453|-0.4445214191637232|-0.01414492914460823|0.8516785670203699|-0.7650209069252014|0.4596089124679565|-0.4511127769947052|0|0|0|-1|-1|3
2021-04-22 21:58:50.573 +0100|140871.2224644167|-2.005477905273438|-0.1089324951171875|-3.0262451171875|140871.2025034167|-0.2171831832445066|-0.986006790034599|-0.4617078173915327|3.668209552764893|1.195813179016113|1.210452079772949|-0.752747118473053|-0.3682674765586853|-2.244911670684814|XArbitraryZVertical|-0.2503058704243075|-0.4361598179565677|0.01471199932122514|0.8642310030873217|-0.7465206980705261|0.4454777538776398|-0.4942231774330139|0|0|0|-1|-1|3
2021-04-22 21:58:50.593 +0100|140871.2424264167|-2.379730224609375|-0.812744140625|-2.58599853515625|140871.2224644167|-0.1502104392440775|-0.9164582922352903|-0.4361121489007062|2.696811676025391|2.945006370544434|0.1294807493686676|-1.16449773311615|-0.4832699298858643|-2.471510648727417|XArbitraryZVertical|-0.2258741297493732|-0.4161100983722748|0.02972670483370452|0.8803123034925306|-0.7191846966743469|0.4224187135696411|-0.5516664981842041|0|0|0|-1|-1|3
2021-04-22 21:58:50.613 +0100|140871.2623874167|-3.424468994140625|-2.122177124023438|-0.675201416015625|140871.2424264167|-0.1271866735469921|-0.8241639227818766|-0.3985729275589322|1.116987466812134|5.445129871368408|-1.983029961585999|-1.570149779319763|-0.8731642961502075|-2.177088737487793|XArbitraryZVertical|-0.2059803469486909|-0.3802693593179937|0.02205211441573064|0.901377350124411|-0.6764477491378784|0.3881035149097443|-0.6259346008300781|0|0|0|-1|-1|3
2021-04-22 21:58:50.633 +0100|140871.2823484167|-3.806961059570312|-1.394744873046875|2.167282104492188|140871.2623874167|-0.1938987722735577|-0.7098938680842209|-0.3684626532621919|-3.873358249664307|8.385520935058594|-4.584244251251221|-2.542504072189331|-2.209973335266113|-0.5522074699401855|XArbitraryZVertical|-0.2040368539131603|-0.3234277946920623|-0.02586043422865589|0.9236313293287157|-0.6080090403556824|0.3601816892623901|-0.7075268626213074|0|0|0|-1|-1|3
2021-04-22 21:58:50.653 +0100|140871.3023104167|-3.754226684570312|1.00689697265625|5.472702026367188|140871.2823484167|-0.3804724820317193|-0.5881711028604709|-0.4411904649807751|-12.69819164276123|10.72286510467529|-4.263001441955566|-3.356062412261963|-2.396009683609009|2.109607696533203|XArbitraryZVertical|-0.2591210106915372|-0.2381392975621064|-0.11430608611155|0.9290211144655408|-0.5017110705375671|0.4270162284374237|-0.7522919774055481|0|0|0|-1|-1|3
2021-04-22 21:58:50.673 +0100|140871.3222714167|-2.86474609375|0.398284912109375|5.061172485351562|140871.3023104167|-0.6042539399671496|-0.4742869347958208|-0.694513460233528|-18.36484527587891|12.59612846374512|1.295101165771484|-3.413779258728027|-0.1245540380477905|5.150242805480957|XArbitraryZVertical|-0.3815422559076119|-0.1124699356156211|-0.1956311474557581|0.8963842269203464|-0.3509156405925751|0.6400116682052612|-0.6835520267486572|0|0|0|-1|-1|3
2021-04-22 21:58:50.693 +0100|140871.3422324167|-0.416259765625|-2.230422973632812|3.981048583984375|140871.3222714167|-0.7532382379884229|-0.3125140322395347|-1.097217159822389|-23.41540908813477|15.03009986877441|4.509019374847412|-3.079186201095581|0.192852795124054|6.317697525024414|XArbitraryZVertical|-0.5278772963590117|0.06598188144003161|-0.2345153819415439|0.8136304582604543|-0.1402209550142288|0.8899416327476501|-0.4339838922023773|0|0|0|-1|-1|3
2021-04-22 21:58:50.713 +0100|140871.3621944167|-1.069717407226562|6.491729736328125|-1.63043212890625|140871.3422324167|2.286838946886732|2.985327948841151|-1.487546021396031|-33.13372039794922|9.011474609375|7.7867112159729|-0.8270750641822815|-3.978760242462158|2.848950147628784|XArbitraryZVertical|-0.6895891271576972|0.2560032188622761|-0.2275047782627973|0.6380993757823674|0.01294134557247162|0.9965366721153259|0.08214162290096283|0|0|0|-1|-1|3
2021-04-22 21:58:50.732 +0100|140871.3821554167|-2.713821411132812|0.4627685546875|0.0900726318359375|140871.3621944167|2.043486514855879|2.878864299402302|-0.9256317472941331|-14.25696659088135|2.865487098693848|12.12118053436279|-0.8161036968231201|4.885767936706543|-0.4274207353591919|XArbitraryZVertical|-0.787224563295069|0.4130682111621621|-0.1310162505162229|0.4387334611505393|0.1561752706766129|0.7990007996559143|0.5806957483291626|0|0|0|-1|-1|3
2021-04-22 21:58:50.752 +0100|140871.4021174167|-1.478805541992188|-4.045257568359375|3.634521484375|140871.3821554167|1.794806719567028|2.771543795860834|-0.8888539592695929|10.5269775390625|4.283058643341064|2.756721973419189|-3.413488388061523|1.798037052154541|-1.735799789428711|XArbitraryZVertical|-0.7430542026165686|0.4916188115941859|-0.1337110646330181|0.4339388391215945|0.2279558628797531|0.7763499021530151|0.587637186050415|0|0|0|-1|-1|3
2021-04-22 21:58:50.772 +0100|140871.4220784167|-0.4634552001953125|0.288299560546875|1.986557006835938|140871.4021174167|1.667660256848113|2.721113008597313|-1.046350371805158|3.679290056228638|1.786121726036072|-0.5047098398208618|-1.829720139503479|-4.908417701721191|2.997946739196777|XArbitraryZVertical|-0.6974081441688625|0.492117914235102|-0.1945134574604332|0.4833284462227256|0.2043986320495605|0.8656014800071716|0.4571163356304169|0|0|0|-1|-1|3
2021-04-22 21:58:50.792 +0100|140871.4420394167|-0.0534515380859375|1.152740478515625|1.324554443359375|140871.4220784167|1.708574773657154|2.775771474318837|-1.078144288004961|0.5057768225669861|-0.09345906972885132|-2.756597280502319|-0.8764482736587524|-1.296074748039246|1.91509747505188|XArbitraryZVertical|-0.6976876433211848|0.4838039153767253|-0.2138015806162872|0.4831714893664268|0.169187068939209|0.8810816407203674|0.4416685402393341|0|0|0|-1|-1|3
2021-04-22 21:58:50.813 +0100|140871.4620014167|0.1739501953125|0.7422943115234375|1.028030395507812|140871.4420394167|1.830697544277265|2.868826962340638|-1.133816094614183|3.31307578086853|-1.154796004295349|-3.816953420639038|-0.219891756772995|0.2346677780151367|0.9935481548309326|XArbitraryZVertical|-0.7070512072825936|0.4515069141119318|-0.2333610563801031|0.4916938874453977|0.1140099465847015|0.9060337543487549|0.4075598120689392|0|0|0|-1|-1|3
2021-04-22 21:58:50.832 +0100|140871.4819624167|0.233367919921875|0.6950836181640625|0.80914306640625|140871.4620014167|1.97140300094372|2.978233749690045|-1.24021888064752|5.45447301864624|-0.9888474941253662|-3.611433029174805|0.05856841802597046|-0.1234061121940613|0.7459089756011963|XArbitraryZVertical|-0.7023681376535946|0.4084278110511727|-0.2645189919505138|0.5195147697934626|0.05278913676738739|0.9458550810813904|0.3202685415744781|0|0|0|-1|-1|3
2021-04-22 21:58:50.852 +0100|140871.5019234167|0.1592559814453125|0.7532501220703125|0.5228118896484375|140871.4819624167|2.197611006351146|-3.10830312323145|-1.351969929725651|5.059177398681641|-1.16931676864624|-3.219907522201538|0.2587501108646393|-0.3000051975250244|0.6649470329284668|XArbitraryZVertical|-0.6899691009084937|0.3639029362022512|-0.2959904733825938|0.5512777937581842|-0.007225345820188522|0.9761528968811035|0.2169654071331024|0|0|0|-1|-1|3
2021-04-22 21:58:50.872 +0100|140871.5218854167|0.178070068359375|0.8661956787109375|0.4431915283203125|140871.5019234167|2.640523929849307|-2.694945651940312|-1.427633118429715|3.927646398544312|-1.067201137542725|-2.72826075553894|0.2239192724227905|-0.241737961769104|0.4520094394683838|XArbitraryZVertical|-0.678136679519188|0.3232186214138149|-0.320466692374159|0.5770282434280125|-0.06162789091467857|0.9897696375846863|0.1286792606115341|0|0|0|-1|-1|3
2021-04-22 21:58:50.892 +0100|140871.5418464167|0.1645660400390625|1.188644409179688|0.31732177734375|140871.5218854167|-3.059139224765647|-2.134955652569094|-1.442654830313513|2.347169399261475|-0.7769630551338196|-2.126343011856079|0.2899945378303528|-0.1838483214378357|0.3966199159622192|XArbitraryZVertical|-0.6703737500134826|0.2911434104827321|-0.3380499781157373|0.592922276223843|-0.1079888343811035|0.9918010830879211|0.06833089888095856|0|0|0|-1|-1|3
2021-04-22 21:58:50.912 +0100|140871.5618084167|0.267608642578125|1.257797241210938|0.2759552001953125|140871.5418464167|-2.707261555285589|-1.797886492471661|-1.421501547683562|1.474244475364685|-0.3698409199714661|-1.684690713882446|0.2987146377563477|0.12579345703125|0.3024802207946777|XArbitraryZVertical|-0.6667265265385977|0.2687373997330536|-0.3506297137737457|0.6002622904491458|-0.1449224054813385|0.9888762235641479|0.03348810225725174|0|0|0|-1|-1|3
2021-04-22 21:58:50.932 +0100|140871.5817694167|0.243865966796875|1.107284545898438|0.2442474365234375|140871.5618084167|-2.515905591903063|-1.61396620902601|-1.395886098242699|1.301153659820557|-0.1523457616567612|-1.270890355110168|0.4205762147903442|0.2895649671554565|0.2849706411361694|XArbitraryZVertical|-0.6632733176706218|0.2526332374636952|-0.361379943989336|0.604689630275448|-0.1738579571247101|0.9847421646118164|0.007510093040764332|0|0|0|-1|-1|3
2021-04-22 21:58:50.952 +0100|140871.6017304167|0.1730804443359375|1.025039672851562|0.191253662109375|140871.5817694167|-2.391226237975584|-1.492935732577753|-1.373575991966563|0.9584311246871948|0.008280498906970024|-0.9443060755729675|0.4560315907001495|0.1643280982971191|0.2699562311172485|XArbitraryZVertical|-0.6591377154957915|0.2406594530829544|-0.3704031706141537|0.6086231733584535|-0.1953515559434891|0.9806150197982788|-0.0152409989386797|0|0|0|-1|-1|3
2021-04-22 21:58:50.972 +0100|140871.6216924167|0.10797119140625|0.9956207275390625|0.13330078125|140871.6017304167|-2.33625915055871|-1.436880566603141|-1.355142555449731|0.3812375068664551|0.2045125365257263|-0.8030562996864319|0.3969148099422455|0.06121861934661865|0.2349612712860107|XArbitraryZVertical|-0.6567416427700455|0.2332489984626729|-0.377919415372207|0.6094771540194868|-0.21207095682621|0.9768366813659668|-0.0285706389695406|0|0|0|-1|-1|3
2021-04-22 21:58:50.992 +0100|140871.6416534167|-0.0096282958984375|1.011962890625|0.1373443603515625|140871.6216924167|-2.33340596818634|-1.430128686760475|-1.339565996952416|-0.08075033128261566|0.1638561934232712|-0.742031455039978|0.3619817495346069|0.02299833297729492|0.1730618476867676|XArbitraryZVertical|-0.6569192372265603|0.2288917140605102|-0.3842078409825153|0.6070009392719261|-0.2269120663404465|0.9733851552009583|-0.03213139623403549|0|0|0|-1|-1|3
