loggingTime(txt)|accelerometerTimestamp_sinceReboot(s)|accelerometerAccelerationX(G)|accelerometerAccelerationY(G)|accelerometerAccelerationZ(G)|motionTimestamp_sinceReboot(s)|motionYaw(rad)|motionRoll(rad)|motionPitch(rad)|motionRotationRateX(rad/s)|motionRotationRateY(rad/s)|motionRotationRateZ(rad/s)|motionUserAccelerationX(G)|motionUserAccelerationY(G)|motionUserAccelerationZ(G)|motionAttitudeReferenceFrame(txt)|motionQuaternionX(R)|motionQuaternionY(R)|motionQuaternionZ(R)|motionQuaternionW(R)|motionGravityX(G)|motionGravityY(G)|motionGravityZ(G)|motionMagneticFieldX(µT)|motionMagneticFieldY(µT)|motionMagneticFieldZ(µT)|motionHeading(°)|motionMagneticFieldCalibrationAccuracy(Z)|label
2021-04-22 21:30:56.354 +0100|139604.939800375|-0.16845703125|-0.0207977294921875|-0.988006591796875|139604.929820375|0.1469067696245014|-0.1548362076276371|0.01473903916529425|0.01863559707999229|-0.0116547578945756|-0.01896298304200172|0.02158695459365845|-0.008285979740321636|0.004058122634887695|XArbitraryZVertical|0.01300324708129675|-0.07659093881709261|0.0725971204232527|0.9943312073126604|-0.1542015224695206|-0.01473850570619106|-0.9879294633865356|0|0|0|-1|-1|3
2021-04-22 21:30:56.386 +0100|139604.959761375|-0.1419677734375|-0.023193359375|-0.9989471435546875|139604.949781375|0.1466747220374218|-0.1536844157770698|0.01439747848664078|-0.008054286241531372|0.01524727046489716|-0.005763292778283358|-0.01662914454936981|0.0116666853427887|-0.006929457187652588|XArbitraryZVertical|0.0127828080707554|-0.07603236561178317|0.07250238697136918|0.9943838997007913|-0.1530642956495285|-0.0143969813361764|-0.9881113767623901|0|0|0|-1|-1|3
2021-04-22 21:30:56.389 +0100|139604.979721375|-0.1453704833984375|-0.0228118896484375|-0.9963226318359375|139604.969741375|0.1463979327806696|-0.1529816831665591|0.01493002282567395|-0.03705281391739845|0.01871832832694054|-0.0100201778113842|0.01198738813400269|-0.01895927451550961|-0.00803530216217041|XArbitraryZVertical|0.01301162232928078|-0.07566516684117355|0.07234881618052112|0.9944201425023401|-0.1523686796426773|-0.01492946781218052|-0.9882109761238098|0|0|0|-1|-1|3
2021-04-22 21:30:56.390 +0100|139604.999682375|-0.1512603759765625|-0.0106964111328125|-0.993377685546875|139604.989701375|0.1462259315857686|-0.1529548064599419|0.01462155559284288|-0.04402745142579079|0.01779863052070141|0.001656895503401756|0.007399141788482666|0.0002025067806243896|-0.007782578468322754|XArbitraryZVertical|0.01285078383974388|-0.07566424610906769|0.07227530884534676|0.99442759442469|-0.1523428112268448|-0.01462103426456451|-0.9882195591926575|0|0|0|-1|-1|3
2021-04-22 21:30:56.399 +0100|139605.019642375|-0.1551971435546875|-0.0041656494140625|-0.9897308349609375|139605.009662375|0.1461239452199829|-0.1520818805516312|0.01297754308595761|-0.04797122627496719|0.03179386630654335|0.003959286957979202|-0.003714025020599365|0.00406707264482975|-0.003919661045074463|XArbitraryZVertical|0.01199800824869539|-0.07529112255758735|0.07229289252583251|0.9944652639197912|-0.1514835506677628|-0.01297717913985252|-0.9883745908737183|0|0|0|-1|-1|3
2021-04-22 21:30:56.418 +0100|139605.039602375|-0.1511688232421875|0.0040130615234375|-0.99365234375|139605.029622375|0.1461658287935322|-0.1516459361348507|0.01231330321349967|-0.03052540682256222|0.03818725794553757|0.009570744819939137|-0.002083703875541687|0.0107881398871541|-0.001846492290496826|XArbitraryZVertical|0.01165355855736382|-0.0750984422539695|0.07234157472616633|0.9944804024505537|-0.1510539352893829|-0.01231299247592688|-0.9884488582611084|0|0|0|-1|-1|3
2021-04-22 21:30:56.438 +0100|139605.059563375|-0.1574554443359375|0.0034637451171875|-0.9993896484375|139605.049583375|0.1463893239582872|-0.1508032992570234|0.01204941852944068|-0.01484702806919813|0.03511088341474533|0.01751025021076202|-0.00149710476398468|0.01645994558930397|-0.006492376327514648|XArbitraryZVertical|0.01150021669889669|-0.07468782873105385|0.07246758661815401|0.9945038842930425|-0.1502214521169662|-0.01204912737011909|-0.9885789752006531|0|0|0|-1|-1|3
2021-04-22 21:30:56.458 +0100|139605.079523375|-0.154998779296875|0.0016021728515625|-0.998199462890625|139605.069543375|0.1466837177332974|-0.14997713326412|0.01189692834364173|-0.02092106640338898|0.03466842696070671|0.01841084286570549|-0.008447661995887756|0.01682626456022263|-0.01242458820343018|XArbitraryZVertical|0.0114053908378027|-0.07428092445302352|0.07262445132036932|0.9945240277070052|-0.1494049429893494|-0.01189664751291275|-0.98870450258255|0|0|0|-1|-1|3
2021-04-22 21:30:56.478 +0100|139605.099484375|-0.154144287109375|0.004241943359375|-0.9843597412109375|139605.089503375|0.1469557133439394|-0.1493115261262087|0.01139075950674818|-0.0197597611695528|0.03391485661268234|0.01726017892360687|-0.006983935832977295|0.0161217674612999|-0.005941331386566162|XArbitraryZVertical|0.01113959176869917|-0.07396702907537067|0.07278243350406048|0.9945388661777002|-0.1487476974725723|-0.01139051280915737|-0.9888095855712891|0|0|0|-1|-1|3
2021-04-22 21:30:56.498 +0100|139605.119444375|-0.149261474609375|-0.003631591796875|-0.9759674072265625|139605.109464375|0.1472353770040382|-0.1486808575915258|0.01091192557571809|-0.009898126125335693|0.04041073098778725|0.01512965001165867|-0.004692345857620239|0.01196559332311153|0.009004354476928711|XArbitraryZVertical|0.01088884132702567|-0.07366951723367711|0.0729428445559178|0.994551976069336|-0.1481248587369919|-0.01091170869767666|-0.9889084696769714|0|0|0|-1|-1|3
2021-04-22 21:30:56.518 +0100|139605.139404375|-0.14642333984375|-0.00732421875|-0.9782257080078125|139605.129424375|0.1475711874160514|-0.1479429367649777|0.01039754162791013|-0.003082264447584748|0.03720961511135101|0.02653659135103226|-0.0007673949003219604|0.008155340328812599|0.01145339012145996|XArbitraryZVertical|0.01061845386139522|-0.07331973993047348|0.07313290147403671|0.9945668735337972|-0.1473958790302277|-0.01039735414087772|-0.9890229105949402|0|0|0|-1|-1|3
2021-04-22 21:30:56.538 +0100|139605.159365375|-0.1472015380859375|-0.0053863525390625|-0.9847869873046875|139605.149385375|0.1481190626646865|-0.147409976930186|0.009829464383197279|-0.01620517298579216|0.03310488536953926|0.03029457665979862|0.000491604208946228|-0.003582140430808067|0.009202897548675537|XArbitraryZVertical|0.01033649946881385|-0.07307287022170397|0.0734291512685963|0.9945660928926723|-0.1468695998191833|-0.009829306043684483|-0.9891070127487183|0|0|0|-1|-1|3
2021-04-22 21:30:56.558 +0100|139605.179325375|-0.149200439453125|-0.003143310546875|-0.9844512939453125|139605.169345375|0.1487058922881201|-0.1470101405019119|0.008986794140571408|-0.02716361545026302|0.02101743407547474|0.03410147503018379|0.0006008148193359375|0.003906524740159512|0.003516852855682373|XArbitraryZVertical|0.009924178138290309|-0.07290235656767612|0.07375403352228707|0.9945588743132836|-0.1464752703905106|-0.008986673317849636|-0.9891735315322876|0|0|0|-1|-1|3
2021-04-22 21:30:56.578 +0100|139605.199285375|-0.1379852294921875|0.0070953369140625|-0.9873504638671875|139605.189305375|0.1493351209238642|-0.1467753119422193|0.008193612929751607|-0.01538763381540775|0.0177236907184124|0.04119889065623283|-0.001324206590652466|0.006012544967234135|0.002642393112182617|XArbitraryZVertical|0.009544008543242831|-0.07281208504119598|0.07409722174832122|0.9945437279553577|-0.1462439745664597|-0.008193520829081535|-0.9892145991325378|0|0|0|-1|-1|3
2021-04-22 21:30:56.598 +0100|139605.219246375|-0.1385040283203125|-0.0094451904296875|-0.984130859375|139605.209266375|0.150177388884118|-0.1466950812620169|0.007786434883567649|-0.002812020014971495|0.002954011783003807|0.04114420339465141|0.009308576583862305|0.01021353434771299|0.00142139196395874|XArbitraryZVertical|0.009369220975257171|-0.07278346306423528|0.07453138139367661|0.9945149304590095|-0.1461650878190994|-0.007786356378346682|-0.9892295598983765|0|0|0|-1|-1|3
2021-04-22 21:30:56.618 +0100|139605.239206375|-0.141693115234375|-0.007537841796875|-0.98748779296875|139605.229226375|0.1509017623194975|-0.1467629246279948|0.007683709155376902|0.002635142765939236|-0.007109060883522034|0.03417631238698959|0.007071733474731445|0.0001010457053780556|0.002907633781433105|XArbitraryZVertical|0.009347044892821219|-0.07281767637809891|0.07489502879601066|0.9944852999132807|-0.1462323069572449|-0.007683633361011744|-0.9892204403877258|0|0|0|-1|-1|3
2021-04-22 21:30:56.638 +0100|139605.259167375|-0.155059814453125|-0.0110626220703125|-0.9915313720703125|139605.249186375|0.1515659938700143|-0.1469981442565998|0.007777598549843443|0.0163906030356884|-0.01152362301945686|0.0274556465446949|0.003398075699806213|-0.002505873795598745|0.0050697922706604|XArbitraryZVertical|0.009426756987295158|-0.07292796562750618|0.07522075273295852|0.9944519150337101|-0.1464648842811584|-0.00777751998975873|-0.9891852736473083|0|0|0|-1|-1|3
2021-04-22 21:30:56.658 +0100|139605.279127375|-0.1496124267578125|-0.0059356689453125|-1.002899169921875|139605.269147375|0.152086263745476|-0.1471323598242976|0.007935104214459119|0.01743411272764206|-0.003066116478294134|0.02654094062745571|-0.007608279585838318|-0.001127669587731361|-0.004915118217468262|XArbitraryZVertical|0.009529103891764774|-0.07298625687228259|0.07547301409505941|0.9944275318986858|-0.1465974599123001|-0.007935021072626114|-0.989164412021637|0|0|0|-1|-1|3
2021-04-22 21:30:56.678 +0100|139605.299087375|-0.156829833984375|-0.007232666015625|-0.999725341796875|139605.289107375|0.1525445191927019|-0.1470299507219816|0.007932891266781802|0.01363336481153965|-0.002497958485037088|0.01476541813462973|-0.005985334515571594|0.002257569693028927|-0.01521503925323486|XArbitraryZVertical|0.009540850515312121|-0.07293323819715944|0.07570143372697395|0.994413937652851|-0.1464961767196655|-0.007932808250188828|-0.9891794323921204|0|0|0|-1|-1|3
2021-04-22 21:30:56.698 +0100|139605.319048375|-0.16925048828125|0.0057220458984375|-1.000732421875|139605.309068375|0.1528282154770074|-0.1467774519735406|0.008198095892394596|0.0267497505992651|0.01451815105974674|-0.003222370520234108|-0.01296453177928925|0.004903137683868408|-0.00916820764541626|XArbitraryZVertical|0.009673475630036101|-0.07279620448678378|0.07583395715970273|0.9944126238960401|-0.1462460905313492|-0.008198004215955734|-0.989214301109314|0|0|0|-1|-1|3
2021-04-22 21:30:56.718 +0100|139605.339008375|-0.16961669921875|0.004638671875|-1.00506591796875|139605.329028375|0.1527160240361642|-0.1461174568789144|0.009390706531907735|0.08532917499542236|0.04307186976075172|-0.01529865153133869|-0.02678731083869934|0.01682262867689133|-0.01173734664916992|XArbitraryZVertical|0.0102373442565706|-0.07242302385723344|0.07573775579541744|0.9944416535905184|-0.1455916464328766|-0.009390568360686302|-0.9893001914024353|0|0|0|-1|-1|3
2021-04-22 21:30:56.738 +0100|139605.358969375|-0.164886474609375|-0.013427734375|-1.006942749023438|139605.348988375|0.1526780713673019|-0.1451916523440691|0.01156894104434626|0.1222091391682625|0.06589830666780472|-0.02140004374086857|-0.024166539311409|0.008502695709466934|-0.01620322465896606|XArbitraryZVertical|0.01128395882433012|-0.07187963284027266|0.07564442307588927|0.9944767631827607|-0.1446723788976669|-0.01156868319958448|-0.9894120097160339|0|0|0|-1|-1|3
2021-04-22 21:30:56.758 +0100|139605.378929375|-0.1622161865234375|-0.0326690673828125|-1.000030517578125|139605.368949375|0.1526025206846809|-0.1439730701204546|0.01402578868604475|0.1279574483633041|0.06654965877532959|-0.02040313184261322|-0.01930384337902069|0.001468375325202942|-0.01642495393753052|XArbitraryZVertical|0.01245678322782639|-0.07118015717995814|0.07552502093252464|0.9945221849863594|-0.1434620916843414|-0.01402532868087292|-0.9895564317703247|0|0|0|-1|-1|3
2021-04-22 21:30:56.778 +0100|139605.398889375|-0.1576995849609375|-0.055694580078125|-0.9827880859375|139605.388909375|0.1525806371947445|-0.1428660418712679|0.01598101004313805|0.08228252083063126|0.07648351788520813|-0.0141647681593895|-0.01956433057785034|-0.03081734664738178|-0.003920912742614746|XArbitraryZVertical|0.01338641836169463|-0.0705549610304307|0.07545089579667333|0.9945602744074226|-0.1423623561859131|-0.01598032936453819|-0.989685595035553|0|0|0|-1|-1|3
2021-04-22 21:30:56.798 +0100|139605.418850375|-0.15606689453125|-0.0869598388671875|-0.9670257568359375|139605.408870375|0.1525049203416256|-0.1417939896186026|0.01619443176021049|-0.03373779729008675|0.07897436618804932|-0.006735790520906448|-0.01305754482746124|-0.04633576422929764|0.009624958038330078|XArbitraryZVertical|0.0134494463566167|-0.07001417431402696|0.07541280151129812|0.9946005680667369|-0.1413007974624634|-0.01619372330605984|-0.9898342490196228|0|0|0|-1|-1|3
2021-04-22 21:30:56.818 +0100|139605.438810375|-0.157958984375|-0.0960540771484375|-0.9618988037109375|139605.428830375|0.1520484325784213|-0.1407581579245453|0.01353341643480878|-0.203039675951004|0.07230277359485626|-0.009842811152338982|-0.01679342985153198|-0.07560781389474869|0.02824258804321289|XArbitraryZVertical|0.01207123367290992|-0.06960359945051665|0.07528677542955058|0.9946565983228862|-0.1402809619903564|-0.01353300362825394|-0.9900192618370056|0|0|0|-1|-1|3
2021-04-22 21:30:56.848 +0100|139605.458771375|-0.172027587890625|-0.128997802734375|-0.954742431640625|139605.448790375|0.1509794856438405|-0.1398965265924604|0.00761715221968167|-0.4083760380744934|0.06280482560396194|-0.01335188187658787|-0.02244432270526886|-0.09891875833272934|0.02584630250930786|XArbitraryZVertical|0.009059455413671917|-0.06940514443814962|0.07496765999910968|0.9947265193452329|-0.1394366025924683|-0.007617078721523285|-0.9902017116546631|0|0|0|-1|-1|3
2021-04-22 21:30:56.858 +0100|139605.478731375|-0.1787872314453125|-0.1449432373046875|-0.9312744140625|139605.468751375|0.1488209648101776|-0.1388495826340836|-0.002084685730362041|-0.6508194804191589|0.09191850572824478|-0.05480087548494339|-0.03957538306713104|-0.1396263837814331|0.03930872678756714|XArbitraryZVertical|0.004120062429212915|-0.06925433603000573|0.07423480637700676|0.9948247596205262|-0.1384035646915436|0.002084684325382113|-0.9903737306594849|0|0|0|-1|-1|3
2021-04-22 21:30:56.878 +0100|139605.498691375|-0.1625823974609375|-0.1617279052734375|-0.8897857666015625|139605.488711375|0.14526486962996|-0.1370773194789188|-0.01597631875493942|-0.9591891169548035|0.1159980595111847|-0.07997670769691467|-0.040371373295784|-0.1582017838954926|0.0720973014831543|XArbitraryZVertical|-0.002978606488425347|-0.0688805811089373|0.07294151240910797|0.994950427873857|-0.1366309970617294|0.01597563922405243|-0.9904931783676147|0|0|0|-1|-1|3
2021-04-22 21:30:56.897 +0100|139605.518652375|-0.1819610595703125|-0.128997802734375|-0.853240966796875|139605.508672375|0.1402043690126334|-0.135068849057924|-0.03719096062536247|-1.345198512077332|0.1254804581403732|-0.1121097952127457|-0.03630293905735016|-0.1962389647960663|0.1090118885040283|XArbitraryZVertical|-0.0137804328749107|-0.06860518592216443|0.07112475324449452|0.9950098836588616|-0.1345654129981995|0.03718238696455956|-0.9902068376541138|0|0|0|-1|-1|3
2021-04-22 21:30:56.917 +0100|139605.538612375|-0.195159912109375|-0.1065216064453125|-0.7869720458984375|139605.528632375|0.1337032888008309|-0.1332566853319055|-0.06771421250917585|-1.768474102020264|0.08995671570301056|-0.1415980011224747|-0.05120386183261871|-0.2031747400760651|0.1500875353813171|XArbitraryZVertical|-0.02925502569212409|-0.06864852747517346|0.06886414231320924|0.9948313443151036|-0.1325581669807434|0.06766247749328613|-0.9888630509376526|0|0|0|-1|-1|3
2021-04-22 21:30:56.938 +0100|139605.558573375|-0.2102813720703125|-0.02008056640625|-0.793426513671875|139605.548592375|0.1250974999765412|-0.1319156674112308|-0.1051341579265131|-2.022335290908813|0.1122599989175797|-0.2166593670845032|-0.07239459455013275|-0.1794787347316742|0.2041916251182556|XArbitraryZVertical|-0.048211882146052|-0.06896746645233769|0.06574222131048982|0.9942822577384008|-0.1308071464300156|0.1049405857920647|-0.9858382344245911|0|0|0|-1|-1|3
2021-04-22 21:30:56.958 +0100|139605.5785327917|-0.2516021728515625|0.060638427734375|-0.805572509765625|139605.5685527917|0.1145348010942923|-0.1309232217210156|-0.1461172714121936|-2.172474145889282|0.134049117565155|-0.3222183585166931|-0.08988198637962341|-0.1573919057846069|0.1856194734573364|XArbitraryZVertical|-0.06898380370249223|-0.06930233283618231|0.06172819223260989|0.9932916362571204|-0.1291583627462387|0.1455978900194168|-0.9808768630027771|0|0|0|-1|-1|3
2021-04-22 21:30:56.977 +0100|139605.5984927917|-0.2599029541015625|0.0527191162109375|-0.7856903076171875|139605.5885127917|0.1008075579830802|-0.1304333985557245|-0.1907319976838127|-2.510998487472534|0.1298719644546509|-0.4150586724281311|-0.1266286820173264|-0.1113448441028595|0.1678310632705688|XArbitraryZVertical|-0.09162987468829784|-0.06957924805430314|0.05624463318284451|0.9917657924941597|-0.1277052611112595|0.1895776689052582|-0.9735254049301147|0|0|0|-1|-1|3
2021-04-22 21:30:56.997 +0100|139605.6184537917|-0.2630462646484375|0.1767730712890625|-0.7432098388671875|139605.6084737917|0.08370621475131573|-0.1307622082288129|-0.2439809008835205|-2.959320783615112|0.2117245346307755|-0.5591498017311096|-0.144498810172081|-0.1779831498861313|0.1914395689964294|XArbitraryZVertical|-0.1186084201649598|-0.06987285457473193|0.04938467813366991|0.9892477942151086|-0.126528263092041|0.24156753718853|-0.9620996713638306|0|0|0|-1|-1|3
2021-04-22 21:30:57.017 +0100|139605.6384137917|-0.206207275390625|0.2765350341796875|-0.70196533203125|139605.6284337917|0.06303299501026383|-0.1317528547585957|-0.3037518328594286|-3.187518835067749|0.2407973557710648|-0.6321254968643188|-0.1260921210050583|-0.09405377507209778|0.2129190564155579|XArbitraryZVertical|-0.1488390983142311|-0.06979579819500573|0.04103545456248262|0.9855413661140301|-0.1253579258918762|0.299102395772934|-0.9459509253501892|0|0|0|-1|-1|3
2021-04-22 21:30:57.037 +0100|139605.6583747917|-0.198028564453125|0.4416351318359375|-0.72320556640625|139605.6483937917|0.03975560238177514|-0.1344293575931334|-0.365430955147009|-3.171256065368652|0.2487302124500275|-0.7493108510971069|-0.07305225729942322|-0.04785683751106262|0.2298347353935242|XArbitraryZVertical|-0.1799416367841363|-0.06963642241406291|0.03170282518137663|0.9806971038388246|-0.1251751631498337|0.3573518395423889|-0.9255435466766357|0|0|0|-1|-1|3
2021-04-22 21:30:57.057 +0100|139605.6783347917|-0.17169189453125|0.48626708984375|-0.7148590087890625|139605.6683547917|0.01443401726901131|-0.1393979285795809|-0.4259583481711922|-3.17617654800415|0.2123242318630219|-0.7419768571853638|-0.06049641966819763|0.0538787841796875|0.1834722757339478|XArbitraryZVertical|-0.2103627274155056|-0.06958899339725354|0.02175690172117129|0.9749008482350447|-0.1265310496091843|0.4131936728954315|-0.9018098115921021|0|0|0|-1|-1|3
2021-04-22 21:30:57.077 +0100|139605.6982947917|-0.170928955078125|0.571929931640625|-0.6955413818359375|139605.6883147917|-0.01270566957928657|-0.147140906033031|-0.4870305112697128|-3.235985994338989|0.2130851447582245|-0.8104609251022339|-0.0453789234161377|0.03355354070663452|0.1684587597846985|XArbitraryZVertical|-0.2409117388031926|-0.06980641244949601|0.01157394777917715|0.9679641813182868|-0.1295636147260666|0.4680037498474121|-0.8741772174835205|0|0|0|-1|-1|3
2021-04-22 21:30:57.097 +0100|139605.7182557917|-0.125732421875|0.638824462890625|-0.69244384765625|139605.7082757917|-0.04314274286861219|-0.1581402236236406|-0.5491121955333035|-3.299451589584351|0.1976066827774048|-0.8480753302574158|-0.02268324792385101|0.06364202499389648|0.1434010863304138|XArbitraryZVertical|-0.2718496219839312|-0.07018191795735514|0.0007131956710595143|0.9597770217093621|-0.1343302130699158|0.5219301581382751|-0.8423445820808411|0|0|0|-1|-1|3
2021-04-22 21:30:57.117 +0100|139605.7382157917|-0.1278228759765625|0.727752685546875|-0.6853485107421875|139605.7282357917|-0.07613404510360874|-0.1726182455189613|-0.6108701362761969|-3.247121095657349|0.1658830195665359|-0.8545472025871277|0.01763623952865601|0.08885020017623901|0.1182248592376709|XArbitraryZVertical|-0.3025005789812459|-0.07075099121630297|-0.01025839745374267|0.9504643497341168|-0.1406989246606827|0.5735804438591003|-0.8069753646850586|0|0|0|-1|-1|3
2021-04-22 21:30:57.137 +0100|139605.7581767917|-0.1108245849609375|0.8067626953125|-0.6953125|139605.7481957917|-0.1110023868423259|-0.1900723663780018|-0.6694174117137121|-2.992351770401001|0.1757344603538513|-0.8434937000274658|0.01770778000354767|0.1304175853729248|0.0830039381980896|XArbitraryZVertical|-0.3314800122010459|-0.0713489551172804|-0.0210340260495311|0.9405254087236973|-0.1481557339429855|0.6205292344093323|-0.770060658454895|0|0|0|-1|-1|3
2021-04-22 21:30:57.157 +0100|139605.7781367917|-0.076080322265625|0.819793701171875|-0.67864990234375|139605.7681567917|-0.1461426843478988|-0.2096038096891994|-0.7215875056358699|-2.671385765075684|0.1285239160060883|-0.7749672532081604|0.05602224171161652|0.1494056582450867|0.04466050863265991|XArbitraryZVertical|-0.3572887160704271|-0.07198278424663239|-0.0311005686343558|0.9306965453299553|-0.1562120169401169|0.6605773568153381|-0.7343264818191528|0|0|0|-1|-1|3
2021-04-22 21:30:57.177 +0100|139605.7980967917|-0.0432891845703125|0.8189544677734375|-0.65887451171875|139605.7881167917|-0.1807000665405981|-0.2308543264864221|-0.7677327077143733|-2.407389640808105|0.08031772077083588|-0.6940461397171021|0.09525831043720245|0.1351153254508972|0.0278850793838501|XArbitraryZVertical|-0.3801339931371743|-0.0727877552646691|-0.04014748650009078|0.9211886346735225|-0.1646253615617752|0.6945057511329651|-0.700400173664093|0|0|0|-1|-1|3
2021-04-22 21:30:57.197 +0100|139605.8180577917|-0.025848388671875|0.828277587890625|-0.6491851806640625|139605.8080777917|-0.2139827978735754|-0.2534839553966082|-0.8096846668732117|-2.256862163543701|0.03234982490539551|-0.5829567313194275|0.131891131401062|0.09129959344863892|0.01277995109558105|XArbitraryZVertical|-0.4008874713761949|-0.07379733791689613|-0.04786576163258858|0.911894858835369|-0.1729683876037598|0.7240697145462036|-0.667686402797699|0|0|0|-1|-1|3
2021-04-22 21:30:57.217 +0100|139605.8380177917|-0.00726318359375|0.8510589599609375|-0.6528167724609375|139605.8280377917|-0.2461767974618773|-0.2772250572205978|-0.8492211108823871|-2.123066186904907|-0.03777898102998734|-0.4744866490364075|0.1628749966621399|0.07922106981277466|-0.02125322818756104|XArbitraryZVertical|-0.4203852579723934|-0.07485188980170732|-0.0543117338032397|0.9026206093675055|-0.1807894259691238|0.7507660984992981|-0.6353468298912048|0|0|0|-1|-1|3
2021-04-22 21:30:57.237 +0100|139605.8579787917|-0.026702880859375|0.8893890380859375|-0.6077423095703125|139605.8479977917|-0.2768258274499605|-0.3024265760629962|-0.8859582613807924|-1.969034910202026|-0.1313022673130035|-0.3961187899112701|0.1755479425191879|0.080047607421875|-0.04088819026947021|XArbitraryZVertical|-0.4384668005986442|-0.07633209521448714|-0.05928103751692259|0.8935358151522387|-0.1883964538574219|0.7745214700698853|-0.6038405299186707|0|0|0|-1|-1|3
2021-04-22 21:30:57.257 +0100|139605.8779387917|-0.03057861328125|0.9393768310546875|-0.567535400390625|139605.8679587917|-0.3070220833733029|-0.3291849558369448|-0.9190692283410147|-1.749418616294861|-0.1768890917301178|-0.3536354303359985|0.1657793968915939|0.1107706427574158|-0.02128297090530396|XArbitraryZVertical|-0.4548464442161232|-0.07822216866420707|-0.0633756791191287|0.8848614423777932|-0.1960839629173279|0.7950373888015747|-0.5739920139312744|0|0|0|-1|-1|3
2021-04-22 21:30:57.277 +0100|139605.8978987917|-0.0471649169921875|0.99609375|-0.54632568359375|139605.8879187917|-0.3353568027785627|-0.3555385148735661|-0.9473800676584154|-1.502975463867188|-0.175025463104248|-0.2916728854179382|0.1704305559396744|0.1376967430114746|-0.01487839221954346|XArbitraryZVertical|-0.4689499337921489|-0.08022370344628021|-0.06664099790621146|0.8770457788428124|-0.2032223045825958|0.8118887543678284|-0.5473002195358276|0|0|0|-1|-1|3
2021-04-22 21:30:57.297 +0100|139605.9178597917|-0.0797882080078125|1.077972412109375|-0.5405731201171875|139605.9078787917|-0.362277864037829|-0.3810626591726607|-0.9713052982953745|-1.269250273704529|-0.1689228415489197|-0.3065498471260071|0.1510761231184006|0.1931153535842896|-0.02271133661270142|XArbitraryZVertical|-0.4810117272597806|-0.08217280639289704|-0.06948239884493494|0.8700848387899174|-0.209838330745697|0.8256229162216187|-0.5237507224082947|0|0|0|-1|-1|3
2021-04-22 21:30:57.317 +0100|139605.9378197917|-0.11358642578125|1.087905883789062|-0.466644287109375|139605.9278397917|-0.3879582666949242|-0.4048678538095188|-0.9894473553443923|-0.9403575658798218|-0.1083824709057808|-0.3252122104167938|0.1392977237701416|0.2554338574409485|-0.0172010064125061|XArbitraryZVertical|-0.4904797979855374|-0.08397541112303741|-0.07252024710210621|0.8643602234401387|-0.216309443116188|0.8357226252555847|-0.5047553777694702|0|0|0|-1|-1|3
2021-04-22 21:30:57.346 +0100|139605.9577797917|-0.1550750732421875|1.08740234375|-0.4587860107421875|139605.9477997917|-0.4122031932757899|-0.4256671083211599|-1.000612258349068|-0.6099044680595398|0.07554544508457184|-0.4220993518829346|0.08834081888198853|0.2419237494468689|0.0328485369682312|XArbitraryZVertical|-0.4968766265180403|-0.08546626981075844|-0.07633019756006033|0.8602225387187848|-0.2228934019804001|0.841801643371582|-0.491618275642395|0|0|0|-1|-1|3
2021-04-22 21:30:57.357 +0100|139605.9777407917|-0.1448822021484375|1.038955688476562|-0.4722900390625|139605.9677607917|-0.4326506307280342|-0.4392258749496152|-1.004312911354215|-0.2089848071336746|0.2873481512069702|-0.4211078286170959|0.07916374504566193|0.2415035963058472|0.02183148264884949|XArbitraryZVertical|-0.4997952808958647|-0.08567714948974282|-0.08121301557091251|0.8580609496475017|-0.2282121926546097|0.8437934517860413|-0.4857282042503357|0|0|0|-1|-1|3
2021-04-22 21:30:57.377 +0100|139605.9977007917|-0.1624298095703125|0.9637603759765625|-0.4792938232421875|139605.9877207917|-0.4482966312761196|-0.4446977538544137|-1.00169785617154|0.07185166329145432|0.4804198741912842|-0.4618334472179413|0.08465871214866638|0.1819358468055725|0.01585197448730469|XArbitraryZVertical|-0.4996293328065908|-0.08449389234108025|-0.08693635058798246|0.8577141614073258|-0.2318151146173477|0.8423871397972107|-0.4864626228809357|0|0|0|-1|-1|3
2021-04-22 21:30:57.397 +0100|139606.0176617917|-0.1512298583984375|0.8817291259765625|-0.4044342041015625|139606.0076807917|-0.4630656685471399|-0.4460165797357629|-0.9943979168126481|0.1897761672735214|0.6108739972114563|-0.5638130903244019|0.07432042062282562|0.102167010307312|0.014900803565979|XArbitraryZVertical|-0.4973476150484395|-0.08246044678396082|-0.09401862739587942|0.8584907098490893|-0.2351029366254807|0.8384310007095337|-0.4916912615299225|0|0|0|-1|-1|3
2021-04-22 21:30:57.417 +0100|139606.0376217917|-0.14935302734375|0.885223388671875|-0.3097381591796875|139606.0276417917|-0.48325281229921|-0.4495699132995926|-0.9868289555805511|0.00737323984503746|0.7294861078262329|-0.79494309425354|0.09659361839294434|0.03255510330200195|0.1232945322990417|XArbitraryZVertical|-0.4952805387472454|-0.08012566738417658|-0.1029339112196242|0.8588840953435299|-0.2395996451377869|0.834281861782074|-0.4965541362762451|0|0|0|-1|-1|3
2021-04-22 21:30:57.437 +0100|139606.0575827917|-0.23101806640625|0.914276123046875|-0.3115997314453125|139606.0476017917|-0.5140796373379842|-0.4598766515251661|-0.9808707639378667|-0.2044407576322556|0.7921460866928101|-0.9537359476089478|0.0802646279335022|0.06321388483047485|0.1910707354545593|XArbitraryZVertical|-0.4946574717903023|-0.07785908957725204|-0.1145266463088406|0.8579835744508627|-0.2469065636396408|0.8309820890426636|-0.4985038936138153|0|0|0|-1|-1|3
2021-04-22 21:30:57.457 +0100|139606.0775427917|-0.2128753662109375|0.953765869140625|-0.366119384765625|139606.0675627917|-0.5510474251643482|-0.4735029515631617|-0.9783229377992425|-0.4996542036533356|0.9059076905250549|-1.017630815505981|0.012269526720047|0.1037574410438538|0.1843242347240448|XArbitraryZVertical|-0.4958754247395064|-0.07496416550143391|-0.1273948511191769|0.8557211112265874|-0.2546407878398895|0.8295620679855347|-0.4969758689403534|0|0|0|-1|-1|3
2021-04-22 21:30:57.476 +0100|139606.0975027917|-0.1734161376953125|0.923492431640625|-0.410858154296875|139606.0875227917|-0.5933191160712539|-0.490468715781005|-0.9786614473955439|-0.5978177189826965|0.8961604833602905|-1.067568778991699|0.06385138630867004|0.1248391270637512|0.1139958202838898|XArbitraryZVertical|-0.4986979124848768|-0.07163871827649584|-0.141170047618917|0.8521967748261292|-0.2629029750823975|0.8297510147094727|-0.4923365712165833|0|0|0|-1|-1|3
2021-04-22 21:30:57.497 +0100|139606.1174637917|-0.181793212890625|0.91033935546875|-0.4700164794921875|139606.1074827917|-0.63854337757589|-0.5103403571601728|-0.9789168380953492|-0.6415969729423523|0.881081223487854|-1.114845037460327|0.1031571924686432|0.07536494731903076|0.06149271130561829|XArbitraryZVertical|-0.5018579627940815|-0.06872641978490593|-0.1553794302341536|0.8480994074281157|-0.2725304663181305|0.8298935294151306|-0.4868305325508118|0|0|0|-1|-1|3
2021-04-22 21:30:57.516 +0100|139606.1374237917|-0.23529052734375|0.919769287109375|-0.54766845703125|139606.1274437917|-0.6847597245869911|-0.5314658419103676|-0.9795056251321275|-0.7098759412765503|0.8267921805381775|-1.087695717811584|0.09169381856918335|0.08982235193252563|-0.001953631639480591|XArbitraryZVertical|-0.5053556118185305|-0.06590824337120554|-0.169499087216627|0.8435294328490008|-0.2825057208538055|0.8302218914031982|-0.4805436134338379|0|0|0|-1|-1|3
2021-04-22 21:30:57.536 +0100|139606.1573847917|-0.3289031982421875|0.91705322265625|-0.61407470703125|139606.1474037917|-0.7300755125604796|-0.5533119300295265|-0.9809657069131323|-0.7172209024429321|0.7548980116844177|-0.9986204504966736|0.02772530913352966|0.09264093637466431|-0.1022124290466309|XArbitraryZVertical|-0.5092937352278234|-0.06329936920153742|-0.182738167316072|0.8385822031897516|-0.2922982573509216|0.8310348987579346|-0.4732261598110199|0|0|0|-1|-1|3
2021-04-22 21:30:57.557 +0100|139606.1773447917|-0.3486480712890625|0.8402862548828125|-0.641571044921875|139606.1673647917|-0.7727282170377807|-0.574949593769531|-0.984229149360228|-0.8539167046546936|0.6255313754081726|-0.8095533847808838|-0.03485468029975891|0.06521064043045044|-0.1572974324226379|XArbitraryZVertical|-0.5138636675143832|-0.06072732715038182|-0.1943881633559202|0.8333484826200493|-0.3009920716285706|0.8328456878662109|-0.4645126461982727|0|0|0|-1|-1|3
2021-04-22 21:30:57.576 +0100|139606.1973047917|-0.3065948486328125|0.7836761474609375|-0.6694183349609375|139606.1873247917|-0.8105641189695213|-0.5952245922175288|-0.9912261410661335|-0.8528713583946228|0.4991707801818848|-0.5065677165985107|-0.03844818472862244|-0.01189929246902466|-0.2002833485603333|XArbitraryZVertical|-0.5195387371720475|-0.05779426483832775|-0.2034317279626756|0.8278617492122522|-0.307072639465332|0.8366981148719788|-0.4534786343574524|0|0|0|-1|-1|3
2021-04-22 21:30:57.596 +0100|139606.2172657917|-0.333526611328125|0.754547119140625|-0.696502685546875|139606.2072857917|-0.8373482413405209|-0.6095174796947691|-1.000247238988669|-0.6966504454612732|0.328646719455719|-0.2078711241483688|0.0007773935794830322|-0.06415373086929321|-0.2338135838508606|XArbitraryZVertical|-0.5249768252520558|-0.05459907385563448|-0.2088546204715079|0.8232849899281436|-0.3091888725757599|0.8416045308113098|-0.4428365528583527|0|0|0|-1|-1|3
2021-04-22 21:30:57.616 +0100|139606.2372257917|-0.3594818115234375|0.7663116455078125|-0.688629150390625|139606.2272457917|-0.8520548164649439|-0.6168610244072942|-1.008923030485532|-0.4818141758441925|0.1928655803203583|0.04964688047766685|-0.03616413474082947|-0.09485447406768799|-0.2640563249588013|XArbitraryZVertical|-0.529186457797743|-0.05167981642021894|-0.211098991307733|0.8202001934143033|-0.3081970512866974|0.8462585806846619|-0.4345817863941193|0|0|0|-1|-1|3
2021-04-22 21:30:57.637 +0100|139606.2571857917|-0.3552093505859375|0.719696044921875|-0.6543731689453125|139606.2472057917|-0.8561926945252107|-0.6176554357839898|-1.01694496588153|-0.3176340162754059|0.07918113470077515|0.2341142743825912|-0.05573639273643494|-0.08880150318145752|-0.254239946603775|XArbitraryZVertical|-0.5321712714387905|-0.04898519937184703|-0.2108458257298263|0.8184975810564108|-0.304600715637207|0.8505051732063293|-0.4287883639335632|0|0|0|-1|-1|3
2021-04-22 21:30:57.657 +0100|139606.2771467917|-0.314361572265625|0.6688079833984375|-0.5939483642578125|139606.2671667917|-0.8526461090046289|-0.6143855678584738|-1.024972568884631|-0.257518470287323|-0.06053340435028076|0.3897454142570496|-0.04910737276077271|-0.1450592279434204|-0.2201730608940125|XArbitraryZVertical|-0.534534581097869|-0.04666965516247428|-0.2085265219406855|0.8176867337918986|-0.2992515861988068|0.854699969291687|-0.4241894483566284|0|0|0|-1|-1|3
2021-04-22 21:30:57.684 +0100|139606.2971067917|-0.3055877685546875|0.678497314453125|-0.5538330078125|139606.2871267917|-0.845056945278294|-0.6103972027346584|-1.034604702217618|-0.3402887880802155|-0.1920912265777588|0.4732674956321716|-0.01750922203063965|-0.19501793384552|-0.15987628698349|XArbitraryZVertical|-0.5372969959208994|-0.04477601443950762|-0.2044111185694131|0.8170210484953505|-0.2928248643875122|0.8596605062484741|-0.4186140894889832|0|0|0|-1|-1|3
2021-04-22 21:30:57.696 +0100|139606.3170677917|-0.3270263671875|0.7184906005859375|-0.5234527587890625|139606.3070867917|-0.8382063442396847|-0.6095740565466865|-1.047123483620893|-0.4782481789588928|-0.3094251751899719|0.5194671154022217|-0.02455693483352661|-0.1749938726425171|-0.137104332447052|XArbitraryZVertical|-0.5414094476410277|-0.04331824683658864|-0.1991355386777936|0.8156865162828586|-0.2862959504127502|0.8659883737564087|-0.4099986851215363|0|0|0|-1|-1|3
2021-04-22 21:30:57.716 +0100|139606.3370277917|-0.310455322265625|0.7528076171875|-0.46392822265625|139606.3270477917|-0.8303023694946774|-0.6095795555994152|-1.058760089199609|-0.5207893252372742|-0.423287957906723|0.5676253437995911|-0.04200094938278198|-0.1458572745323181|-0.1131842136383057|XArbitraryZVertical|-0.5452716030387067|-0.04272160867615388|-0.1934027575250357|0.8145239941464204|-0.2805096209049225|0.8717486262321472|-0.4017075002193451|0|0|0|-1|-1|3
2021-04-22 21:30:57.736 +0100|139606.3569887917|-0.287933349609375|0.7881317138671875|-0.417266845703125|139606.3470077917|-0.8207480195840547|-0.6095599745565596|-1.067930588375005|-0.5110910534858704|-0.4837190806865692|0.5453104376792908|-0.03185740113258362|-0.1128685474395752|-0.05441194772720337|XArbitraryZVertical|-0.5482382382319864|-0.0431742335661921|-0.1875425756012613|0.8138788976455241|-0.2759132087230682|0.8762050271034241|-0.3951416313648224|0|0|0|-1|-1|3
2021-04-22 21:30:57.756 +0100|139606.3769487917|-0.2698822021484375|0.7881011962890625|-0.4215545654296875|139606.3669687917|-0.8111322484977105|-0.6105464664066159|-1.076102425926184|-0.4582085013389587|-0.5504194498062134|0.4981026947498322|-0.00613248348236084|-0.08787739276885986|-0.02398872375488281|XArbitraryZVertical|-0.5509460568692167|-0.04431329039415556|-0.1816016717037684|0.813336259910775|-0.272188663482666|0.8801140785217285|-0.3889895379543304|0|0|0|-1|-1|3
2021-04-22 21:30:57.776 +0100|139606.3969087917|-0.3068389892578125|0.8386383056640625|-0.4284210205078125|139606.3869287917|-0.802572135932675|-0.6139375110809909|-1.08322316192766|-0.415576308965683|-0.6110417246818542|0.4301274716854095|-0.007089525461196899|-0.09279221296310425|-0.03631782531738281|XArbitraryZVertical|-0.5535166472231213|-0.04640497959633409|-0.1756538832321654|0.812780270400644|-0.2698887884616852|0.8834723830223083|-0.3829317986965179|0|0|0|-1|-1|3
2021-04-22 21:30:57.796 +0100|139606.4168697917|-0.353271484375|0.8878173828125|-0.4491729736328125|139606.4068887917|-0.7977012884295539|-0.6218218125815038|-1.090157191520665|-0.4334055483341217|-0.647429347038269|0.3545916974544525|-0.05123293399810791|-0.029704749584198|-0.06464046239852905|XArbitraryZVertical|-0.5564730416119662|-0.04935567983164237|-0.1699915792804712|0.8117910793830261|-0.2693244516849518|0.8866996169090271|-0.375803530216217|0|0|0|-1|-1|3
2021-04-22 21:30:57.816 +0100|139606.4368297917|-0.370269775390625|0.988037109375|-0.42938232421875|139606.4268497917|-0.7967974744368654|-0.6337145554181998|-1.097220906319232|-0.3891840279102325|-0.6590961813926697|0.2549190819263458|-0.08689051866531372|0.01974022388458252|-0.07707676291465759|XArbitraryZVertical|-0.5598695469574293|-0.05279445384933241|-0.16476952455214|0.8103148073186108|-0.2700591385364532|0.8899433612823486|-0.3675176799297333|0|0|0|-1|-1|3
2021-04-22 21:30:57.836 +0100|139606.4567907917|-0.458740234375|1.20880126953125|-0.3996734619140625|139606.4468097917|-0.7974895986428326|-0.6470277002916486|-1.102721300509771|-0.2229083180427551|-0.6130597591400146|0.129273533821106|-0.1125036478042603|0.1370875239372253|-0.0603390634059906|XArbitraryZVertical|-0.5628452937969205|-0.05670875338079488|-0.1601032961032282|0.8089229462276954|-0.2719728052616119|0.8924384117126465|-0.359978586435318|0|0|0|-1|-1|3
2021-04-22 21:30:57.856 +0100|139606.4767507917|-0.5188140869140625|1.258316040039062|-0.39178466796875|139606.4667707917|-0.7958207782699293|-0.657080091319272|-1.104298947082062|0.1818695515394211|-0.5329755544662476|0.04673933237791061|-0.2065151333808899|0.3566222190856934|-0.04214224219322205|XArbitraryZVertical|-0.5641264758383542|-0.06087471640873935|-0.1562460477194369|0.8084817956356052|-0.2747172713279724|0.8931490778923035|-0.3561111688613892|0|0|0|-1|-1|3
2021-04-22 21:30:57.876 +0100|139606.4967107917|-0.4622802734375|1.09698486328125|-0.4003143310546875|139606.4867307917|-0.7848277334116306|-0.656789938857224|-1.099373822000598|0.4896569848060608|-0.411105215549469|0.05318604409694672|-0.2358267307281494|0.3369671106338501|-0.03087729215621948|XArbitraryZVertical|-0.5620851175708333|-0.06500083385209951|-0.1529736123616887|0.8102064524546148|-0.2772965729236603|0.8909231424331665|-0.3596704304218292|0|0|0|-1|-1|3
2021-04-22 21:30:57.896 +0100|139606.5166717917|-0.3474884033203125|0.9395294189453125|-0.4261932373046875|139606.5066917917|-0.7658727340113471|-0.647175852864143|-1.09090299420636|0.7064039707183838|-0.3199498951435089|0.1389936208724976|-0.1561743021011353|0.1692304611206055|-0.03853204846382141|XArbitraryZVertical|-0.5578208195216695|-0.06835404894829827|-0.1498329778802875|0.8134579457869893|-0.2783662080764771|0.8870441913604736|-0.3683273196220398|0|0|0|-1|-1|3
2021-04-22 21:30:57.915 +0100|139606.5366317917|-0.297027587890625|0.8264007568359375|-0.409423828125|139606.5266517917|-0.7391399504262589|-0.6297004959472828|-1.081380384329491|0.7792897820472717|-0.2946219742298126|0.2882137298583984|-0.04946053028106689|0.01343452930450439|-0.04887157678604126|XArbitraryZVertical|-0.5522830866379116|-0.07078689887146167|-0.1458293525012131|0.8177447560932948|-0.2768493890762329|0.8826075792312622|-0.3799452185630798|0|0|0|-1|-1|3
2021-04-22 21:30:57.936 +0100|139606.5565917917|-0.2765045166015625|0.7864227294921875|-0.389892578125|139606.5466117917|-0.7105533099999009|-0.6101020348961609|-1.073621508945608|0.6122394204139709|-0.2701283991336823|0.3539824485778809|-0.01814720034599304|-0.06232863664627075|-0.007369965314865112|XArbitraryZVertical|-0.5471042511863494|-0.07230214177358796|-0.1411195788447378|0.8219091845183688|-0.2732658386230469|0.8789335489273071|-0.3908986747264862|0|0|0|-1|-1|3
2021-04-22 21:30:57.956 +0100|139606.576553|-0.2419891357421875|0.7834320068359375|-0.3616485595703125|139606.5665727917|-0.6854164310117592|-0.5931169819367369|-1.069084733309993|0.4688878059387207|-0.2362886071205139|0.3941265940666199|-0.0009932518005371094|-0.09445756673812866|0.007871925830841064|XArbitraryZVertical|-0.5433787092914583|-0.07312068620540389|-0.1363210135542332|0.8251118897176146|-0.2688133716583252|0.876760721206665|-0.3987858891487122|0|0|0|-1|-1|3
2021-04-22 21:30:57.975 +0100|139606.596513|-0.2263946533203125|0.7913970947265625|-0.32440185546875|139606.586533|-0.6615102252418419|-0.5770417002672713|-1.066779904723471|0.3728785514831543|-0.239943653345108|0.429720014333725|0.02981153130531311|-0.09153091907501221|0.05555152893066406|XArbitraryZVertical|-0.5405867646358018|-0.07342998623491541|-0.1312544476318513|0.8277357090911183|-0.2634700834751129|0.8756499290466309|-0.4047479629516602|0|0|0|-1|-1|3
2021-04-22 21:30:57.995 +0100|139606.616474|-0.21173095703125|0.8228607177734375|-0.3395538330078125|139606.606494|-0.6399649165317534|-0.5624837638863291|-1.065781537869907|0.2849051952362061|-0.1845156997442245|0.3745098412036896|0.03593900799751282|-0.08073347806930542|0.08956336975097656|XArbitraryZVertical|-0.5384898162462606|-0.07340883657662783|-0.1264456521922059|0.8298502114708871|-0.2580160796642303|0.8751673102378845|-0.4092797338962555|0|0|0|-1|-1|3
2021-04-22 21:30:58.016 +0100|139606.636434|-0.217315673828125|0.8462677001953125|-0.3667755126953125|139606.626454|-0.6226808932448956|-0.5505530676738856|-1.064328329644889|0.2923439145088196|-0.1451366990804672|0.2588670253753662|0.04773995280265808|-0.03951716423034668|0.06806129217147827|XArbitraryZVertical|-0.5365713834338948|-0.07338170053772142|-0.12274645559367|0.8316488901363609|-0.2537800967693329|0.8744633197784424|-0.4134125411510468|0|0|0|-1|-1|3
2021-04-22 21:30:58.035 +0100|139606.656395|-0.223541259765625|0.8383636474609375|-0.403961181640625|139606.646414|-0.6102105843912889|-0.5423710648943746|-1.061640236494853|0.2410318404436111|-0.1247199028730392|0.1230049878358841|0.025297611951828|-0.02791053056716919|0.03819999098777771|XArbitraryZVertical|-0.5346081779381657|-0.07382920342028428|-0.1202439974994369|0.8332375449928214|-0.251601368188858|0.8731561899185181|-0.417486697435379|0|0|0|-1|-1|3
2021-04-22 21:30:58.056 +0100|139606.676355|-0.245941162109375|0.8781890869140625|-0.402740478515625|139606.666375|-0.6044563570573701|-0.5398171447586771|-1.058523113522566|0.2004483640193939|-0.1000751182436943|-0.009213862009346485|0.02675744891166687|-0.02634108066558838|0.01880446076393127|XArbitraryZVertical|-0.5330678549837122|-0.0748888696071992|-0.1190968474580553|0.8342939561039729|-0.2519320547580719|0.8716325163841248|-0.4204606413841248|0|0|0|-1|-1|3
2021-04-22 21:30:58.076 +0100|139606.696315|-0.2488555908203125|0.8884124755859375|-0.3997802734375|139606.686335|-0.6016850150970693|-0.5389941664012081|-1.054834839555802|0.2028246819972992|-0.05989829078316689|-0.04717535898089409|0.001265287399291992|0.01949435472488403|0.02192056179046631|XArbitraryZVertical|-0.5315220475736452|-0.07597541031964727|-0.1188305225291577|0.8352194923925306|-0.2532343864440918|0.8698187470436096|-0.42342409491539|0|0|0|-1|-1|3
2021-04-22 21:30:58.096 +0100|139606.716276|-0.23773193359375|0.8870086669921875|-0.42071533203125|139606.706295|-0.5990389193916241|-0.5373385355444916|-1.051499559758032|0.2105359584093094|-0.001875311136245728|-0.04960425198078156|0.007616817951202393|0.01922208070755005|0.02473747730255127|XArbitraryZVertical|-0.5300610066188772|-0.07660969502730793|-0.1187693355933644|0.8360982430749365|-0.2540164589881897|0.8681684136390686|-0.42633256316185|0|0|0|-1|-1|3
2021-04-22 21:30:58.115 +0100|139606.736236|-0.204986572265625|0.858123779296875|-0.4456939697265625|139606.726256|-0.5962119371742253|-0.5344362092553818|-1.048934211303838|0.1457629650831223|0.03104194439947605|-0.00161009281873703|0.02312177419662476|0.02033025026321411|0.002440035343170166|XArbitraryZVertical|-0.5288075805805276|-0.07662193474820818|-0.1188186205840721|0.8368834762689252|-0.2539116442203522|0.8668924570083618|-0.4289832413196564|0|0|0|-1|-1|3
2021-04-22 21:30:58.135 +0100|139606.756197|-0.1900177001953125|0.8837127685546875|-0.46282958984375|139606.746216|-0.5937205007102501|-0.5314368632099444|-1.048473852437581|0.002068372210487723|0.04721164703369141|0.04382982850074768|0.04985290765762329|-0.01453542709350586|-0.02347975969314575|XArbitraryZVertical|-0.5283595425171874|-0.07611042137791202|-0.11865131854001|0.8372367501543042|-0.2528260052204132|0.866662859916687|-0.4300867915153503|0|0|0|-1|-1|3
2021-04-22 21:30:58.155 +0100|139606.776157|-0.1814422607421875|0.8891143798828125|-0.433807373046875|139606.766177|-0.5930461954037396|-0.5302017825924603|-1.05053189328939|-0.09161657094955444|0.03041163086891174|0.0584242157638073|0.06642439961433411|0.0201299786567688|-0.02547037601470947|XArbitraryZVertical|-0.5290431024439547|-0.07539119246955216|-0.118326763046937|0.8369160707557891|-0.251392126083374|0.8676877617835999|-0.4288591146469116|0|0|0|-1|-1|3
2021-04-22 21:30:58.175 +0100|139606.796117|-0.1638641357421875|0.92572021484375|-0.394744873046875|139606.786137|-0.594156530176858|-0.5303953673510063|-1.053515087713125|-0.1133771240711212|0.06313890218734741|0.03208138048648834|0.07137659192085266|0.02861475944519043|0.001054704189300537|XArbitraryZVertical|-0.530229309034046|-0.07462634589938258|-0.1182052874039071|0.8362507609661245|-0.2501644790172577|0.8691668510437012|-0.4265755712985992|0|0|0|-1|-1|3
2021-04-22 21:30:58.195 +0100|139606.816078|-0.1497802734375|0.9560394287109375|-0.36260986328125|139606.806098|-0.5950440130493683|-0.529116826317621|-1.055507512815592|-0.0333934985101223|0.1383383125066757|-0.01147719286382198|0.08912138640880585|0.06492370367050171|0.04043629765510559|XArbitraryZVertical|-0.5309425003360513|-0.0734875681904527|-0.1185582522785358|0.8358490324180141|-0.2487442493438721|0.8701504468917847|-0.4253992736339569|0|0|0|-1|-1|3
2021-04-22 21:30:58.215 +0100|139606.836038|-0.1505584716796875|0.9279937744140625|-0.3784942626953125|139606.826058|-0.5938753190644019|-0.5242942752782989|-1.054540534763745|0.08879675716161728|0.1908697485923767|-0.05067626386880875|0.09920687973499298|0.08476406335830688|0.06639173626899719|XArbitraryZVertical|-0.530245810993892|-0.07196035756705825|-0.1195219248840737|0.836286847916502|-0.2471110075712204|0.869673490524292|-0.4273221790790558|0|0|0|-1|-1|3
2021-04-22 21:30:58.235 +0100|139606.855999|-0.1499786376953125|0.902435302734375|-0.42156982421875|139606.846018|-0.5909496210261738|-0.517196217812384|-1.051995913567694|0.1588919311761856|0.1848481297492981|-0.03721185401082039|0.09587244689464569|0.05405580997467041|0.0399516224861145|XArbitraryZVertical|-0.5287470855542435|-0.07023299416973562|-0.1206283036229477|0.83722331910189|-0.2451651245355606|0.868414580821991|-0.430987685918808|0|0|0|-1|-1|3
2021-04-22 21:30:58.255 +0100|139606.875959|-0.1685943603515625|0.8548583984375|-0.4298248291015625|139606.865979|-0.5869418143093501|-0.5099416913135001|-1.049840220195966|0.1186248585581779|0.1409728676080704|-0.02024982310831547|0.09115013480186462|0.01586592197418213|0.01083517074584961|XArbitraryZVertical|-0.5273461091680609|-0.06864577785081273|-0.1212434061084447|0.8381491710966853|-0.2429452836513519|0.8673437237739563|-0.4343876838684082|0|0|0|-1|-1|3
2021-04-22 21:30:58.275 +0100|139606.895919|-0.1624298095703125|0.8552703857421875|-0.43756103515625|139606.885939|-0.5840336539797371|-0.5044546213696386|-1.050285601991449|0.03506622090935707|0.1001780852675438|0.01712178438901901|0.07124221324920654|-0.01179105043411255|0.001920402050018311|XArbitraryZVertical|-0.5270851912366591|-0.06703185788402163|-0.1213934189943286|0.8384221042556024|-0.2403713315725327|0.8675652742385864|-0.4353758692741394|0|0|0|-1|-1|3
2021-04-22 21:30:58.295 +0100|139606.91588|-0.1825408935546875|0.853271484375|-0.41943359375|139606.9059|-0.5809617394977047|-0.5000127058425795|-1.053331229977362|-0.05034375190734863|0.03974872455000877|0.09129738807678223|0.07470613718032837|-0.01711636781692505|-0.00206834077835083|XArbitraryZVertical|-0.5278820170920343|-0.06543198723098052|-0.1207512672914704|0.8381398639216104|-0.237167164683342|0.8690759539604187|-0.4341184496879578|0|0|0|-1|-1|3
2021-04-22 21:30:58.315 +0100|139606.93584|-0.1838226318359375|0.9314117431640625|-0.4107818603515625|139606.92586|-0.5757417339242132|-0.4939204476844829|-1.057684553222695|-0.03011614456772804|0.08739522844552994|0.1680107116699219|0.04314625263214111|0.001429319381713867|0.0138859748840332|XArbitraryZVertical|-0.5290181791417526|-0.06348055964990797|-0.1194276726235317|0.8377631370094815|-0.2327221632003784|0.8712211847305298|-0.4322199821472168|0|0|0|-1|-1|3
2021-04-22 21:30:58.335 +0100|139606.955801|-0.1815185546875|0.9087982177734375|-0.426300048828125|139606.94582|-0.5657042657586122|-0.4829803305076429|-1.060053065726975|0.07937540858983994|0.06416879594326019|0.2107027024030685|0.04740904271602631|0.05420893430709839|0.02042168378829956|XArbitraryZVertical|-0.5289677399717733|-0.06113365845438626|-0.1177151415529185|0.8382119276627942|-0.2270209491252899|0.8723814487457275|-0.432911604642868|0|0|0|-1|-1|3
2021-04-22 21:30:58.355 +0100|139606.975761|-0.2085113525390625|0.8990325927734375|-0.447235107421875|139606.965781|-0.5542052027951512|-0.4716468971128933|-1.060849851447364|0.08341620862483978|0.01979967951774597|0.2298110574483871|0.03796076774597168|0.03831666707992554|-0.002158433198928833|XArbitraryZVertical|-0.5282679584509793|-0.05928252502112319|-0.1157566736095976|0.8390583959622937|-0.2217840850353241|0.8727706074714661|-0.4348371028900146|0|0|0|-1|-1|3
2021-04-22 21:30:58.375 +0100|139606.995721|-0.2158203125|0.9100341796875|-0.4899139404296875|139606.985741|-0.5434622635994941|-0.4614089068464435|-1.061625195339995|0.07744548469781876|0.01704671420156956|0.1856997013092041|0.002953186631202698|0.01804113388061523|-0.01957476139068604|XArbitraryZVertical|-0.5276669367999676|-0.05768964179717338|-0.1138242247955515|0.8398117621822672|-0.2170194387435913|0.8731488585472107|-0.4364790320396423|0|0|0|-1|-1|3
2021-04-22 21:30:58.395 +0100|139607.015682|-0.2007598876953125|0.9161224365234375|-0.4727783203125|139607.005702|-0.5338557811397101|-0.4521194761741264|-1.062171867900709|0.1245641782879829|0.04907111823558807|0.2112241387367249|0.005943849682807922|0.03472727537155151|-0.05728316307067871|XArbitraryZVertical|-0.527081528910965|-0.05622914463199806|-0.11215092322871|0.8405032637310618|-0.2127469182014465|0.8734151721000671|-0.4380466938018799|0|0|0|-1|-1|3
2021-04-22 21:30:58.415 +0100|139607.035642|-0.24273681640625|0.951324462890625|-0.4480743408203125|139607.025662|-0.5232119160354816|-0.4413864335273466|-1.061764172209999|0.2296760529279709|0.09265316277742386|0.1793213486671448|-0.0006319284439086914|0.05749362707138062|-0.01943999528884888|XArbitraryZVertical|-0.5260295394828446|-0.05458507489542716|-0.1105648624164757|0.8414802735065474|-0.2081853002309799|0.8732165694236755|-0.4406268000602722|0|0|0|-1|-1|3
2021-04-22 21:30:58.435 +0100|139607.055603|-0.2393646240234375|0.9452667236328125|-0.4841766357421875|139607.045622|-0.5111751647953691|-0.4283191878309234|-1.058477581925788|0.3739235103130341|0.1428159326314926|0.1710821390151978|-0.04569803178310394|0.09318816661834717|-0.01556825637817383|XArbitraryZVertical|-0.5236952788141548|-0.05276762444956432|-0.1094277068844188|0.8431990128569398|-0.2036007642745972|0.8716102242469788|-0.4459176659584045|0|0|0|-1|-1|3
2021-04-22 21:30:58.455 +0100|139607.075563|-0.2610931396484375|0.92181396484375|-0.4717254638671875|139607.065583|-0.4975462008183013|-0.4135216221305253|-1.052407743592885|0.4509633481502533|0.1496551483869553|0.1810030490159988|-0.03986610472202301|0.06694376468658447|-0.02403399348258972|XArbitraryZVertical|-0.5201322075507419|-0.05102548712236877|-0.1084383044934554|0.8456359320411998|-0.1991024762392044|0.8686187267303467|-0.4537177681922913|0|0|0|-1|-1|3
2021-04-22 21:30:58.475 +0100|139607.095523|-0.275238037109375|0.877044677734375|-0.492218017578125|139607.085543|-0.4840530872395921|-0.3984753753604726|-1.044886185597522|0.4840491712093353|0.1899800896644592|0.1609599143266678|-0.07862463593482971|0.05584830045700073|-0.01891112327575684|XArbitraryZVertical|-0.5159797058299327|-0.04929134800639817|-0.1077060306207632|0.848371892989869|-0.1947830468416214|0.8648673892021179|-0.462670624256134|0|0|0|-1|-1|3
2021-04-22 21:30:58.495 +0100|139607.115484|-0.2938690185546875|0.8724517822265625|-0.49090576171875|139607.105504|-0.4708595380021099|-0.3830763477398291|-1.037466836165157|0.5165724754333496|0.2351095378398895|0.1709057539701462|-0.0896807461977005|-0.006397664546966553|-0.01556670665740967|XArbitraryZVertical|-0.5118515289913814|-0.04723372379789079|-0.107092639245773|0.8510630932194075|-0.1900288164615631|0.8611191511154175|-0.4715539813041687|0|0|0|-1|-1|3
2021-04-22 21:30:58.514 +0100|139607.135444|-0.282440185546875|0.8595428466796875|-0.5026702880859375|139607.125464|-0.4573101791233233|-0.3666820233574211|-1.028632563957589|0.6993765234947205|0.2839837968349457|0.2071861773729324|-0.1053519248962402|0.0188944935798645|-0.0113980770111084|XArbitraryZVertical|-0.507084036960359|-0.0449598827584312|-0.1066822995288049|0.8540862956278134|-0.1849930286407471|0.8565942049026489|-0.4816887676715851|0|0|0|-1|-1|3
2021-04-22 21:30:58.534 +0100|139607.155405|-0.3021697998046875|0.750946044921875|-0.4984893798828125|139607.145424|-0.4405735177923315|-0.347256226100108|-1.016691532380777|0.7724931836128235|0.2803494334220886|0.2563846111297607|-0.1019824296236038|-0.004653036594390869|-0.006903022527694702|XArbitraryZVertical|-0.500805094175767|-0.04250864785023686|-0.1059546071772115|0.8579982576096562|-0.1790699064731598|0.8503718376159668|-0.4947745501995087|0|0|0|-1|-1|3
2021-04-22 21:30:58.554 +0100|139607.175365|-0.286376953125|0.733978271484375|-0.4933929443359375|139607.165385|-0.4238485504800216|-0.3282389852429074|-1.005945070764853|0.6317722201347351|0.301028311252594|0.3382949233055115|-0.1342441290616989|-0.1143516302108765|0.007170677185058594|XArbitraryZVertical|-0.4950258198263412|-0.03991780213674232|-0.1048208269331117|0.8616082544056489|-0.1725650429725647|0.8446682095527649|-0.506712019443512|0|0|0|-1|-1|3
2021-04-22 21:30:58.574 +0100|139607.195325|-0.2501220703125|0.7031097412109375|-0.485443115234375|139607.185345|-0.4076696222639077|-0.3096260434008692|-0.997333781843205|0.5410689115524292|0.300690084695816|0.3984600007534027|-0.1074675619602203|-0.1089935898780823|0.02126228809356689|XArbitraryZVertical|-0.4901647917804087|-0.03696056173432564|-0.1034308021827727|0.8646818040801204|-0.1653145253658295|0.8400274515151978|-0.5167447924613953|0|0|0|-1|-1|3
2021-04-22 21:30:58.594 +0100|139607.215286|-0.214111328125|0.7215728759765625|-0.47467041015625|139607.205306|-0.3915782853728212|-0.2915034807779275|-0.9904300563690713|0.4520238637924194|0.2978461086750031|0.42680624127388|-0.08617377281188965|-0.1319156885147095|0.04352456331253052|XArbitraryZVertical|-0.4860590165748395|-0.03387752135927738|-0.1016542720662318|0.8673323913826815|-0.1575860977172852|0.8362618684768677|-0.5251978635787964|0|0|0|-1|-1|3
2021-04-22 21:30:58.614 +0100|139607.235246|-0.1934051513671875|0.73114013671875|-0.4547576904296875|139607.225266|-0.3762186643615751|-0.2744301893154372|-0.9854775461199958|0.3116371929645538|0.27428138256073|0.4405580163002014|-0.05897791683673859|-0.1137479543685913|0.06153213977813721|XArbitraryZVertical|-0.4828642989282983|-0.03075913411838457|-0.09964430318056872|0.8694636980532651|-0.1497172564268112|0.8335360288619995|-0.5317918658256531|0|0|0|-1|-1|3
2021-04-22 21:30:58.634 +0100|139607.255207|-0.15020751953125|0.7563018798828125|-0.439117431640625|139607.245226|-0.3640488232840716|-0.2608047397131979|-0.9822483377529696|0.1625152379274368|0.2606294751167297|0.4228263199329376|-0.04235079884529114|-0.09348112344741821|0.08324086666107178|XArbitraryZVertical|-0.4806444056542027|-0.02812152372325947|-0.09795682238026665|0.8709734530631033|-0.1431510001420975|0.8317476511001587|-0.5363802909851074|0|0|0|-1|-1|3
2021-04-22 21:30:58.654 +0100|139607.275167|-0.1231842041015625|0.8033447265625|-0.4346466064453125|139607.265187|-0.3522727051629707|-0.2471193074776395|-0.9818047812289824|0.03600873053073883|0.230963259935379|0.3412613272666931|-0.003075048327445984|-0.0704076886177063|0.102871835231781|XArbitraryZVertical|-0.4796352402202923|-0.02503343519340471|-0.09615425081478822|0.8718244548180116|-0.1358874589204788|0.831501305103302|-0.5386466979980469|0|0|0|-1|-1|3
2021-04-22 21:30:58.674 +0100|139607.295127|-0.0957489013671875|0.8586273193359375|-0.4451904296875|139607.285147|-0.3417573098425863|-0.234004874765591|-0.9836698076668876|-0.07374858856201172|0.2036047577857971|0.270713746547699|0.01140125095844269|-0.01542729139328003|0.09900879859924316|XArbitraryZVertical|-0.4796821554088561|-0.02164486639302029|-0.0945424412307891|0.8720656446669488|-0.1284521371126175|0.8325359225273132|-0.5388730764389038|0|0|0|-1|-1|3
2021-04-22 21:30:58.694 +0100|139607.315088|-0.08038330078125|0.905914306640625|-0.447479248046875|139607.305108|-0.3352113791714328|-0.2250555183339652|-0.9876781949699451|-0.2464368343353271|0.1445630192756653|0.1640759855508804|0.03323268890380859|0.03469663858413696|0.08979940414428711|XArbitraryZVertical|-0.480905802200596|-0.01891326788955608|-0.09348019329594885|0.8715696540703166|-0.122878797352314|0.8347497582435608|-0.5367438197135925|0|0|0|-1|-1|3
2021-04-22 21:30:58.714 +0100|139607.335048|-0.081207275390625|0.998199462890625|-0.4497528076171875|139607.325068|-0.334357753735238|-0.2222558373057759|-0.9955000539723934|-0.5103715062141418|0.06880930066108704|0.04712469130754471|0.0413033738732338|0.08325636386871338|0.0863959789276123|XArbitraryZVertical|-0.4841037446032528|-0.01712602205299011|-0.09309740942120522|0.8698754431112201|-0.119932621717453|0.8390311598777771|-0.5307005047798157|0|0|0|-1|-1|3
2021-04-22 21:30:58.734 +0100|139607.355009|-0.1089935302734375|1.112289428710938|-0.475250244140625|139607.345028|-0.3403168541550548|-0.2268984904780081|-1.008062680621389|-0.7268460392951965|-0.003778192680329084|-0.04442990571260452|0.03352691233158112|0.1832380890846252|0.06781589984893799|XArbitraryZVertical|-0.4897108251898272|-0.01643856565320017|-0.09344247904448968|0.8667074005741711|-0.1200144365429878|0.8457998633384705|-0.5198261737823486|0|0|0|-1|-1|3
2021-04-22 21:30:58.754 +0100|139607.374969|-0.114959716796875|1.13775634765625|-0.5006256103515625|139607.364989|-0.3496654617923529|-0.2354049559263466|-1.022533051956557|-0.7891451716423035|-0.04592617973685265|-0.09691237658262253|0.005780018866062164|0.272286593914032|0.02871310710906982|XArbitraryZVertical|-0.4963039636364437|-0.01633469126790101|-0.09406993835665851|0.8628826984303918|-0.1215644106268883|0.8534309864044189|-0.5068311095237732|0|0|0|-1|-1|3
2021-04-22 21:30:58.774 +0100|139607.39493|-0.0904541015625|1.086349487304688|-0.5646820068359375|139607.384949|-0.3599590513397224|-0.2451355492877551|-1.036338045622359|-0.6462553739547729|-0.05034452304244041|-0.07361912727355957|0.01177148520946503|0.2770442366600037|-0.02037853002548218|XArbitraryZVertical|-0.5026472640250546|-0.01649951359791463|-0.09476714110102037|0.8591232647670651|-0.1236191168427467|0.8605446815490723|-0.494147002696991|0|0|0|-1|-1|3
2021-04-22 21:30:58.794 +0100|139607.41489|-0.0563201904296875|0.9858856201171875|-0.5848388671875|139607.40491|-0.3655504675861185|-0.2510789533548272|-1.046547975916012|-0.3928410410881042|-0.04888718947768211|0.05820512771606445|0.04103541374206543|0.1940686702728271|-0.09467586874961853|XArbitraryZVertical|-0.5072405155387588|-0.01653511087302479|-0.09467111909626913|0.8564292497778618|-0.124364361166954|0.8657004237174988|-0.4848673045635223|0|0|0|-1|-1|3
2021-04-22 21:30:58.814 +0100|139607.43485|-0.0079498291015625|0.9039764404296875|-0.5510406494140625|139607.42487|-0.3631077991033556|-0.2496045646772629|-1.052249694749414|-0.1231138333678246|-0.0103072514757514|0.1862712949514389|0.08072508126497269|0.09468632936477661|-0.09534713625907898|XArbitraryZVertical|-0.5095266041429898|-0.01590627843103039|-0.09344101519942975|0.8552183566846747|-0.1224280521273613|0.8685404062271118|-0.4802592694759369|0|0|0|-1|-1|3
2021-04-22 21:30:58.834 +0100|139607.454811|0.03076171875|0.788238525390625|-0.5188751220703125|139607.444831|-0.3545574434946406|-0.2420734584734104|-1.053227867124995|0.09405552595853806|0.02398462221026421|0.2525967955589294|0.1219450384378433|0.01618379354476929|-0.06457817554473877|XArbitraryZVertical|-0.5095201299827061|-0.01475927542718053|-0.0916084292622472|0.8554411238356782|-0.1186040565371513|0.8690248131752014|-0.4803428053855896|0|0|0|-1|-1|3
2021-04-22 21:30:58.854 +0100|139607.474771|0.060272216796875|0.72625732421875|-0.498443603515625|139607.464791|-0.342893957878924|-0.2310371482013412|-1.052485216948872|0.09790675342082977|0.07891125231981277|0.2835468053817749|0.1483549028635025|-0.1152691841125488|-0.02826178073883057|XArbitraryZVertical|-0.5086290737926543|-0.01308243524430174|-0.0894960259911397|0.8562219644898733|-0.1134435012936592|0.868657112121582|-0.4822506308555603|0|0|0|-1|-1|3
2021-04-22 21:30:58.874 +0100|139607.494732|0.1026611328125|0.7113037109375|-0.4720306396484375|139607.484751|-0.3296500368998976|-0.2175933699427901|-1.0521337414042|0.09734367579221725|0.1141218692064285|0.3578476011753082|0.1781823337078094|-0.1473063826560974|-0.01012501120567322|XArbitraryZVertical|-0.5078090198878988|-0.01072483583919433|-0.08727127637291125|0.856970676227753|-0.1070160195231438|0.8684829473495483|-0.4840299487113953|0|0|0|-1|-1|3
2021-04-22 21:30:58.894 +0100|139607.514692|0.12847900390625|0.705841064453125|-0.436065673828125|139607.504712|-0.3146891479043692|-0.2021940375680364|-1.052120915281247|0.05348174646496773|0.132672905921936|0.3274064958095551|0.2066529095172882|-0.1609565615653992|0.02825021743774414|XArbitraryZVertical|-0.5070714674943061|-0.007920756220770408|-0.08476622926203413|0.8576891630870697|-0.09955216944217682|0.8684765696525574|-0.4856315851211548|0|0|0|-1|-1|3
2021-04-22 21:30:58.914 +0100|139607.534652|0.1210174560546875|0.763092041015625|-0.3902435302734375|139607.524672|-0.3021857162879497|-0.1886073666636747|-1.052637815254611|0.01485647261142731|0.1206852793693542|0.2737342417240143|0.2273358851671219|-0.1517674922943115|0.05653691291809082|XArbitraryZVertical|-0.5066790834466656|-0.005214800612840262|-0.08280476699239703|0.8581332404354692|-0.0928608775138855|0.8687326908111572|-0.486498236656189|0|0|0|-1|-1|3
2021-04-22 21:30:58.934 +0100|139607.554613|0.053070068359375|0.859405517578125|-0.4031219482421875|139607.544633|-0.2946504338853541|-0.1792039920480473|-1.053082098792887|0.04470518231391907|0.1670659333467484|0.1044518053531647|0.1928421258926392|-0.07924884557723999|0.0927601158618927|XArbitraryZVertical|-0.5064638931815102|-0.003049604603930023|-0.08191897898907914|0.8583556686080643|-0.08821330219507217|0.8689526915550232|-0.4869700372219086|0|0|0|-1|-1|3
2021-04-22 21:30:58.954 +0100|139607.57457275|0.03076171875|0.880584716796875|-0.4134063720703125|139607.564593|-0.2897482393844392|-0.1700116860611537|-1.050000700551015|0.2215972542762756|0.2365299165248871|-0.06080257147550583|0.1275354027748108|0.002175271511077881|0.08309498429298401|XArbitraryZVertical|-0.5047783212633521|-0.0006015591094297371|-0.08236490090152838|0.8593105451808553|-0.0841858834028244|0.8674235939979553|-0.4903969764709473|0|0|0|-1|-1|3
2021-04-22 21:30:58.973 +0100|139607.59453375|-0.0191802978515625|0.88641357421875|-0.4176483154296875|139607.58455275|-0.2941312988519946|-0.1687516710199697|-1.044160255730862|0.2960406541824341|0.2700074911117554|-0.2616765797138214|0.1067555248737335|0.01693689823150635|0.08243390917778015|XArbitraryZVertical|-0.5022503910490974|0.0005549362916562246|-0.08498991801740387|0.8605353536819426|-0.08441735804080963|0.8645027875900269|-0.4954884648323059|0|0|0|-1|-1|3
2021-04-22 21:30:58.993 +0100|139607.61449375|-0.0561370849609375|0.88311767578125|-0.441070556640625|139607.60451375|-0.3058661593308413|-0.1729717908729307|-1.036971971943332|0.2773680090904236|0.3145005702972412|-0.4311759471893311|0.05339451879262924|0.03555643558502197|0.07963705062866211|XArbitraryZVertical|-0.4993802276615414|0.001061292810820683|-0.08951500455829579|0.8617455956791186|-0.08757492154836655|0.860867440700531|-0.5012364983558655|0|0|0|-1|-1|3
2021-04-22 21:30:59.013 +0100|139607.63445375|-0.09197998046875|0.8338165283203125|-0.4412841796875|139607.62447375|-0.3230085939342629|-0.1816370928077189|-1.032008603282699|0.03494757413864136|0.3034951090812683|-0.5009762644767761|0.02916257828474045|-0.000146031379699707|0.05606281757354736|XArbitraryZVertical|-0.4976656407704468|0.001156006356218799|-0.09512301174600882|0.8621364727873577|-0.09268563985824585|0.8583313226699829|-0.504655122756958|0|0|0|-1|-1|3
2021-04-22 21:30:59.033 +0100|139607.65441475|-0.075164794921875|0.8865203857421875|-0.428314208984375|139607.64443475|-0.3425249048306332|-0.1921126685890265|-1.031454798003123|-0.1263175755739212|0.3199110329151154|-0.484117716550827|0.007511377334594727|-0.01084804534912109|0.06874489784240723|XArbitraryZVertical|-0.4979320771484638|0.001447723938319475|-0.1009692529120229|0.8613169619897388|-0.09805776178836823|0.8580470681190491|-0.5041230916976929|0|0|0|-1|-1|3
2021-04-22 21:30:59.054 +0100|139607.67437475|-0.059539794921875|0.83447265625|-0.4281463623046875|139607.66439475|-0.3610383308234687|-0.2019809264539745|-1.032057472267434|-0.1186998188495636|0.2699955105781555|-0.4198007583618164|0.0381496474146843|0.02468544244766235|0.0697484016418457|XArbitraryZVertical|-0.4986826846501478|0.001873275730212618|-0.1064272199671379|0.860224036982598|-0.1029239520430565|0.8583564162254333|-0.5026241540908813|0|0|0|-1|-1|3
2021-04-22 21:30:59.074 +0100|139607.69433575|-0.0738372802734375|0.8075408935546875|-0.4476470947265625|139607.68435475|-0.3744079736971958|-0.2083433005919919|-1.035303825815756|-0.1592208594083786|0.1893138140439987|-0.3280640244483948|0.04372869431972504|-0.04182553291320801|0.06907045841217041|XArbitraryZVertical|-0.5003768737826046|0.002815760261571543|-0.1102957102787229|0.8587490152062158|-0.1055427864193916|0.8600174188613892|-0.4992301166057587|0|0|0|-1|-1|3
2021-04-22 21:30:59.093 +0100|139607.71429575|-0.08404541015625|0.7969818115234375|-0.4929046630859375|139607.70431575|-0.3854718820638189|-0.2144671662479009|-1.03993081310611|-0.2868764400482178|0.1002418920397758|-0.2292314469814301|0.03429342061281204|-0.05874937772750854|0.0403209924697876|XArbitraryZVertical|-0.5026404903638332|0.003459305313377926|-0.1130824622975358|0.8570607067718012|-0.1077499762177467|0.862369179725647|-0.4946811497211456|0|0|0|-1|-1|3
2021-04-22 21:30:59.113 +0100|139607.73425575|-0.087554931640625|0.8049468994140625|-0.5213165283203125|139607.72427575|-0.3952221483034692|-0.2219967290359318|-1.04603050628546|-0.3414010107517242|-0.03966828435659409|-0.149940088391304|0.02034483104944229|-0.0605548620223999|-0.01608997583389282|XArbitraryZVertical|-0.5055994407386993|0.003366097313096686|-0.1147826342569186|0.8550924734053627|-0.1103114187717438|0.8654412627220154|-0.4887157380580902|0|0|0|-1|-1|3
2021-04-22 21:30:59.133 +0100|139607.75421675|-0.0948028564453125|0.7752685546875|-0.515838623046875|139607.74423675|-0.4025728812017937|-0.230659322089766|-1.053987472468943|-0.4298615455627441|-0.2117183357477188|-0.1068083345890045|0.0246746838092804|-0.07707202434539795|-0.03834015130996704|XArbitraryZVertical|-0.5093946283832569|0.002431076379175397|-0.114949504716824|0.8528176631143661|-0.1129627898335457|0.8694003820419312|-0.4810224175453186|0|0|0|-1|-1|3
2021-04-22 21:30:59.153 +0100|139607.77417675|-0.1220855712890625|0.8352813720703125|-0.518798828125|139607.76419675|-0.4097759548288426|-0.2421008211484827|-1.063532977659285|-0.5088260769844055|-0.3317894637584686|-0.1136623248457909|0.01511429995298386|-0.09087365865707397|-0.04275310039520264|XArbitraryZVertical|-0.5139939829547069|0.0005062330770175534|-0.1141304095207066|0.8501672046428719|-0.1164639219641685|0.8740772008895874|-0.4716198444366455|0|0|0|-1|-1|3
2021-04-22 21:30:59.173 +0100|139607.79413775|-0.1439971923828125|0.8777618408203125|-0.519378662109375|139607.78415675|-0.4175082212842923|-0.2555913163880508|-1.071091530806996|-0.3391856253147125|-0.3806926012039185|-0.1280205845832825|-0.008360341191291809|-0.02068322896957397|-0.05602157115936279|XArbitraryZVertical|-0.5178748457593716|-0.002329694791711905|-0.1131459399177389|0.8479377307061813|-0.1211417466402054|0.8777240514755249|-0.4636004269123077|0|0|0|-1|-1|3
2021-04-22 21:30:59.193 +0100|139607.81409775|-0.154052734375|0.88726806640625|-0.5157318115234375|139607.80411775|-0.4240200389789637|-0.2687412003227554|-1.073847658133052|-0.1451140493154526|-0.407616913318634|-0.1525242477655411|-0.02113646268844604|-0.002148866653442383|-0.05423593521118164|XArbitraryZVertical|-0.5197583436110237|-0.005876946000186989|-0.1121966728946683|0.8468936754658616|-0.126584604382515|0.8790413737297058|-0.4596334397792816|0|0|0|-1|-1|3
2021-04-22 21:30:59.213 +0100|139607.83405775|-0.1599578857421875|0.908294677734375|-0.532928466796875|139607.82407775|-0.429166020733275|-0.2811898740521948|-1.072608369419192|0.01502165570855141|-0.4380162060260773|-0.1896229535341263|-0.0211496502161026|0.01736354827880859|-0.05712050199508667|XArbitraryZVertical|-0.51996789454356|-0.009964637351565463|-0.1112776203426933|0.8468479993300034|-0.1325986534357071|0.8784498572349548|-0.4590681791305542|0|0|0|-1|-1|3
2021-04-22 21:30:59.233 +0100|139607.85401875|-0.1781158447265625|0.9107666015625|-0.543670654296875|139607.84403875|-0.4347520654291646|-0.2946976391156611|-1.067699537246316|0.181405782699585|-0.4816114604473114|-0.2509227991104126|-0.02121748030185699|0.03412401676177979|-0.07447081804275513|XArbitraryZVertical|-0.5187496604327361|-0.01485930658420513|-0.1106975828782863|0.847599065535278|-0.1400381326675415|0.8760936856269836|-0.461355984210968|0|0|0|-1|-1|3
2021-04-22 21:30:59.253 +0100|139607.87397875|-0.2014617919921875|0.9243621826171875|-0.533294677734375|139607.86399875|-0.4410800677096091|-0.3097410983223434|-1.060279342007737|0.2707734704017639|-0.5105276703834534|-0.2842651605606079|-0.03521917760372162|0.04334092140197754|-0.07554727792739868|XArbitraryZVertical|-0.5166131416228364|-0.02056455270911111|-0.1103614452304522|0.8488276891062573|-0.1489398628473282|0.8724920153617859|-0.4653759300708771|0|0|0|-1|-1|3
2021-04-22 21:30:59.273 +0100|139607.89393975|-0.217803955078125|0.923736572265625|-0.5167694091796875|139607.88395975|-0.4478432299243008|-0.3255671320444652|-1.052250353816517|0.3192924559116364|-0.4996084570884705|-0.2899987399578094|-0.05298128724098206|0.05652379989624023|-0.05656981468200684|XArbitraryZVertical|-0.5142960737561981|-0.02661008487312615|-0.1101304045040992|0.8500958325780503|-0.1585215181112289|0.8685407638549805|-0.4695829153060913|0|0|0|-1|-1|3
2021-04-22 21:30:59.293 +0100|139607.91389975|-0.21038818359375|0.89556884765625|-0.51019287109375|139607.90391975|-0.4525192061122275|-0.338969089198122|-1.043385066808539|0.3845364451408386|-0.4657047986984253|-0.254766970872879|-0.04759703576564789|0.05716747045516968|-0.03891980648040771|XArbitraryZVertical|-0.5114938307778225|-0.03231490566376109|-0.1097896562870011|0.8516315395308726|-0.1673542559146881|0.8641128540039062|-0.4746596217155457|0|0|0|-1|-1|3
2021-04-22 21:30:59.313 +0100|139607.93386075|-0.216583251953125|0.85296630859375|-0.51861572265625|139607.92387975|-0.4552940929091765|-0.3500821889548578|-1.034505050709848|0.3353432714939117|-0.4311856627464294|-0.2094922661781311|-0.03914308547973633|0.02190631628036499|-0.03154471516609192|XArbitraryZVertical|-0.5085361477095494|-0.03756644307704449|-0.1092707781068044|0.8532524182923932|-0.1752436012029648|0.8596095442771912|-0.4799594879150391|0|0|0|-1|-1|3
2021-04-22 21:30:59.333 +0100|139607.95382075|-0.2270050048828125|0.877593994140625|-0.5237579345703125|139607.94384075|-0.4574477631352274|-0.3602596242429211|-1.027620860488083|0.2408602684736252|-0.4155751764774323|-0.1608924120664597|-0.03676325082778931|-0.001396000385284424|-0.04085749387741089|XArbitraryZVertical|-0.5063297310324307|-0.04232383494762041|-0.1085012115906212|0.8544393701516793|-0.182201087474823|0.8560717105865479|-0.4836778044700623|0|0|0|-1|-1|3
2021-04-22 21:30:59.353 +0100|139607.97378075|-0.225738525390625|0.880340576171875|-0.51422119140625|139607.96380075|-0.4599422308806015|-0.3705272792601492|-1.02257197634571|0.1759975254535675|-0.4089902639389038|-0.1457844078540802|-0.03651541471481323|0.02637094259262085|-0.03749513626098633|XArbitraryZVertical|-0.5048845307057965|-0.04679249778331877|-0.1076376502399532|0.8551703443489692|-0.1887202858924866|0.8534513115882874|-0.4858041405677795|0|0|0|-1|-1|3
2021-04-22 21:30:59.373 +0100|139607.99374175|-0.2103424072265625|0.8433837890625|-0.4885406494140625|139607.98376175|-0.4629531087394708|-0.3812542078412115|-1.019345874259912|0.09125693887472153|-0.3894328474998474|-0.1006874069571495|-0.02832333743572235|0.01804691553115845|-0.023795485496521|XArbitraryZVertical|-0.5042205718246763|-0.051079861884904|-0.106652161880349|0.8554401547012792|-0.1949439644813538|0.851765513420105|-0.4863049387931824|0|0|0|-1|-1|3
2021-04-22 21:30:59.393 +0100|139608.01370175|-0.1860809326171875|0.8563690185546875|-0.498077392578125|139608.00372175|-0.465153752754585|-0.3903434215410791|-1.017487002371317|0.05355723202228546|-0.3303077518939972|-0.06626072525978088|-0.004815489053726196|-0.002751946449279785|0.002853572368621826|XArbitraryZVertical|-0.5040057471401068|-0.05468061132808002|-0.1055561192346049|0.8554801869761858|-0.1999581456184387|0.8507901430130005|-0.4859764873981476|0|0|0|-1|-1|3
2021-04-22 21:30:59.413 +0100|139608.03366275|-0.192840576171875|0.8254852294921875|-0.5120849609375|139608.02368175|-0.4660110372394154|-0.3977862896831926|-1.015856158052072|0.0202969778329134|-0.351198136806488|-0.03248802572488785|0.02289275825023651|-0.007753193378448486|-0.01700770854949951|XArbitraryZVertical|-0.5037585648515414|-0.05788514934352833|-0.1042731332347348|0.8555722506299724|-0.2041068226099014|0.8499319553375244|-0.4857532382011414|0|0|0|-1|-1|3
2021-04-22 21:30:59.433 +0100|139608.05362275|-0.184234619140625|0.7839508056640625|-0.523651123046875|139608.04364275|-0.4677286041034673|-0.4062706330742023|-1.015550184302495|-0.0850321426987648|-0.3568086326122284|-0.02859537117183208|0.01243045926094055|-0.02381205558776855|-0.03585195541381836|XArbitraryZVertical|-0.5041251307781881|-0.06112602436644079|-0.1029127876677124|0.8552955981284003|-0.2083234786987305|0.849770724773407|-0.4842429161071777|0|0|0|-1|-1|3
2021-04-22 21:30:59.453 +0100|139608.07358275|-0.1846160888671875|0.79058837890625|-0.5124053955078125|139608.06360275|-0.4716754904760681|-0.4171974957804264|-1.01863780065292|-0.2989718019962311|-0.3883703351020813|-0.03542522713541985|0.02609024941921234|-0.08151167631149292|-0.0415499210357666|XArbitraryZVertical|-0.5060550075172221|-0.06434226406740999|-0.1014006695912367|0.8540998382691274|-0.2125380635261536|0.8513942956924438|-0.4795368015766144|0|0|0|-1|-1|3
2021-04-22 21:30:59.473 +0100|139608.09354375|-0.209747314453125|0.87060546875|-0.51446533203125|139608.08356375|-0.4776402343092832|-0.4300822557094945|-1.023569848198641|-0.2554981112480164|-0.3950680792331696|-0.05176336318254471|0.03049768507480621|-0.04095166921615601|-0.04279488325119019|XArbitraryZVertical|-0.5088853308905912|-0.0675847656851742|-0.09995932088568768|0.852335808612529|-0.2169454991817474|0.8539709448814392|-0.4729360342025757|0|0|0|-1|-1|3
2021-04-22 21:30:59.493 +0100|139608.11350375|-0.2257232666015625|0.9148101806640625|-0.4920806884765625|139608.10352375|-0.4808926574929777|-0.4402151115174961|-1.025784487672251|-0.04569427669048309|-0.3706799745559692|-0.05918479338288307|0.001391097903251648|0.03023993968963623|-0.03493449091911316|XArbitraryZVertical|-0.5103880821097677|-0.07073429587418326|-0.09843436860559628|0.8513585593722939|-0.2209199517965317|0.8551211357116699|-0.4690013229846954|0|0|0|-1|-1|3
2021-04-22 21:30:59.512 +0100|139608.13346475|-0.2001190185546875|0.90875244140625|-0.48468017578125|139608.12348375|-0.4802420278512929|-0.4459240413314194|-1.023307805964296|0.1489945650100708|-0.3197794556617737|-0.05104093626141548|0.002841532230377197|0.06830024719238281|-0.01966074109077454|XArbitraryZVertical|-0.5096525634690831|-0.07371102670970543|-0.09707280388116725|0.8517029878919765|-0.2245066165924072|0.8538345694541931|-0.4696418941020966|0|0|0|-1|-1|3
2021-04-22 21:30:59.532 +0100|139608.15342475|-0.189666748046875|0.8666534423828125|-0.4699554443359375|139608.14344475|-0.4775424816662496|-0.4496157970026722|-1.018909575377382|0.1152273193001747|-0.3482542634010315|-0.0574372299015522|0.03281502425670624|0.04993754625320435|-0.006937652826309204|XArbitraryZVertical|-0.507968199509942|-0.07664622472997097|-0.09564569272661867|0.8526110371745724|-0.2278687804937363|0.8515368103981018|-0.472187340259552|0|0|0|-1|-1|3
2021-04-22 21:30:59.552 +0100|139608.17338575|-0.171630859375|0.7979888916015625|-0.43975830078125|139608.16340475|-0.4768906791111572|-0.4558228851106308|-1.016809278535123|-0.05770211666822433|-0.3920618891716003|-0.03544511273503304|0.04498171806335449|6.097555160522461e-05|0.00780060887336731|XArbitraryZVertical|-0.5073959349461981|-0.0797809556210666|-0.09411001766337579|0.8528351204267166|-0.2315820753574371|0.8504337668418884|-0.4723687171936035|0|0|0|-1|-1|3
2021-04-22 21:30:59.572 +0100|139608.19334575|-0.16229248046875|0.841827392578125|-0.4498443603515625|139608.18336575|-0.4777924790912026|-0.4639881005064165|-1.018268410687181|-0.09674485772848129|-0.3781054615974426|0.01456017792224884|0.06597566604614258|-0.05553048849105835|0.03623229265213013|XArbitraryZVertical|-0.5083964600272779|-0.08280701989168218|-0.09219797944127241|0.8521595231232764|-0.2348758280277252|0.8512004613876343|-0.4693520665168762|0|0|0|-1|-1|3
2021-04-22 21:30:59.592 +0100|139608.21330575|-0.17437744140625|0.8007659912109375|-0.432342529296875|139608.20332575|-0.4759253505678853|-0.4698268341676706|-1.020396473267939|-0.05619604885578156|-0.3950980603694916|0.1136908456683159|0.07629898190498352|-0.01825433969497681|0.01362913846969604|XArbitraryZVertical|-0.5094329941515775|-0.08543889664825403|-0.08958892320951316|0.851558716301724|-0.236791580915451|0.8523154258728027|-0.4663564264774323|0|0|0|-1|-1|3
2021-04-22 21:30:59.612 +0100|139608.23326675|-0.191253662109375|0.8516082763671875|-0.4088287353515625|139608.22328575|-0.4725109005521113|-0.4741791550990286|-1.023631788577839|-0.1335992962121964|-0.3661171793937683|0.1092898845672607|0.05011913180351257|-0.03318667411804199|0.03398793935775757|XArbitraryZVertical|-0.5107669038689001|-0.0876600656083461|-0.08652430354561146|0.8508505526918504|-0.2375587373971939|0.8540031313896179|-0.4628657698631287|0|0|0|-1|-1|3
2021-04-22 21:30:59.632 +0100|139608.25322675|-0.199859619140625|0.9185791015625|-0.39654541015625|139608.24324675|-0.4701819359672348|-0.478850832543557|-1.028289842855895|-0.2005687654018402|-0.3394306004047394|0.1153501719236374|0.04856650531291962|-0.003084421157836914|0.04981467127799988|XArbitraryZVertical|-0.5127169536037918|-0.08951940150163927|-0.08361371719132069|0.8497743331518658|-0.2378829270601273|0.8564172983169556|-0.458215206861496|0|0|0|-1|-1|3
2021-04-22 21:30:59.652 +0100|139608.27318775|-0.19659423828125|0.87835693359375|-0.29534912109375|139608.26320675|-0.468039422379341|-0.4829929882051615|-1.032022845043701|-0.1048057302832603|-0.3093613982200623|0.06540293991565704|0.03650958836078644|0.06809914112091064|0.06692603230476379|XArbitraryZVertical|-0.5142741515974136|-0.09124891111595528|-0.08105658997719656|0.8488967233454049|-0.2382924258708954|0.8583386540412903|-0.4543914794921875|0|0|0|-1|-1|3
2021-04-22 21:30:59.672 +0100|139608.29314775|-0.0380706787109375|0.7839202880859375|-0.1501922607421875|139608.28316775|-0.4646768418219191|-0.4846053884715026|-1.033414506059534|0.09422441571950912|-0.2174506932497025|0.04331130906939507|0.06602786481380463|0.01266789436340332|0.1867301464080811|XArbitraryZVertical|-0.5147367180214037|-0.09258240909722266|-0.07899664234461154|0.8486661322302836|-0.2384680509567261|0.8590518236160278|-0.4529492259025574|0|0|0|-1|-1|3
2021-04-22 21:30:59.692 +0100|139608.31310775|0.1477203369140625|0.5776519775390625|-0.129425048828125|139608.30312775|-0.4555905649716156|-0.4808606438804814|-1.028012013719854|0.4872504472732544|-0.3769403398036957|0.08948963135480881|0.2654021084308624|-0.1015279293060303|0.3220228552818298|XArbitraryZVertical|-0.5120169289309695|-0.09415448088349916|-0.0769403154776301|0.8503257848771237|-0.2389134466648102|0.8562738299369812|-0.4579471945762634|0|0|0|-1|-1|3
2021-04-22 21:30:59.712 +0100|139608.33306875|-0.1791229248046875|0.4723052978515625|-0.057220458984375|139608.32308875|-0.4458225977372836|-0.488937408863463|-1.023551172508782|0.07190527766942978|-1.242257237434387|0.06856713443994522|0.3531752824783325|-0.3398769497871399|0.3478599488735199|XArbitraryZVertical|-0.5100603404124221|-0.1007638512646304|-0.07141351292581218|0.8512257671524405|-0.2443959712982178|0.8539612293243408|-0.4593701958656311|0|0|0|-1|-1|3
2021-04-22 21:30:59.732 +0100|139608.35302875|-0.327301025390625|0.2255096435546875|0.6098480224609375|139608.34304875|-0.4575572182888664|-0.5302226368492603|-1.03119580451029|-1.111781597137451|-1.850305914878845|-0.1590271592140198|-0.0005533397197723389|-0.4279970526695251|0.47077476978302|XArbitraryZVertical|-0.5151283855281172|-0.1141020568784518|-0.06458955702617929|0.8470253493374648|-0.2598384916782379|0.8579139709472656|-0.4432469308376312|0|0|0|-1|-1|3
2021-04-22 21:30:59.752 +0100|139608.37298975|0.1134490966796875|0.809051513671875|1.031753540039062|139608.36300875|-0.4892999641555334|-0.595906644431242|-1.046417398373102|-0.7288862466812134|-2.045206308364868|-0.3711541593074799|0.02040344476699829|-0.4989049434661865|1.226727485656738|XArbitraryZVertical|-0.5250170046852809|-0.1310251346799003|-0.05825351395570616|0.8389256014816157|-0.2810088396072388|0.8656350374221802|-0.4143791198730469|0|0|0|-1|-1|3
2021-04-22 21:30:59.772 +0100|139608.39294975|0.1439056396484375|0.3340606689453125|0.7415313720703125|139608.38296975|-0.5032021951496386|-0.6563994591913819|-1.0386114340428|0.7691410183906555|-2.968839168548584|-0.6474508047103882|0.4947037100791931|-0.02565574645996094|1.404507398605347|XArbitraryZVertical|-0.5246653703185643|-0.1540764609544579|-0.04966430642014076|0.8357752641948952|-0.3096608817577362|0.8617004752159119|-0.4019733965396881|0|0|0|-1|-1|3
2021-04-22 21:30:59.792 +0100|139608.41290975|-0.1267547607421875|-0.1015167236328125|0.02569580078125|139608.40292975|-0.5064015008055833|-0.7311904643615055|-1.021592889326382|0.1734881699085236|-4.160039901733398|-0.5350444316864014|0.4163990318775177|-0.7088972330093384|0.9612968564033508|XArbitraryZVertical|-0.5201309590145317|-0.1875569376007767|-0.03488439593978813|0.8325078622460182|-0.348574161529541|0.8529406189918518|-0.3885723650455475|0|0|0|-1|-1|3
2021-04-22 21:30:59.812 +0100|139608.43287075|-0.0197906494140625|0.6153717041015625|-0.4647369384765625|139608.42289075|-0.5246623714894502|-0.8362090028573909|-1.02133160516481|-0.5662462115287781|-4.718900680541992|-0.1509531438350677|0.2609642148017883|-0.9211479425430298|0.2483122646808624|XArbitraryZVertical|-0.5232384159876906|-0.2262760159724578|-0.01509738370016549|0.8214577795554069|-0.3875514566898346|0.8528041839599609|-0.3500414490699768|0|0|0|-1|-1|3
2021-04-22 21:30:59.832 +0100|139608.45283075|-0.468841552734375|1.802963256835938|-1.352630615234375|139608.44285075|-0.5305795917322522|-0.9365412337563627|-1.023157243730452|0.2777010500431061|-4.719489097595215|0.09241458028554916|0.3616849780082703|0.1087077260017395|-0.350791722536087|XArbitraryZVertical|-0.5247581198485031|-0.2652531492318652|0.009216835080903695|0.8088170005566204|-0.419409304857254|0.8537561893463135|-0.3085393607616425|0|0|0|-1|-1|3
2021-04-22 21:30:59.852 +0100|139608.47279175|-0.857940673828125|2.306060791015625|-2.625595092773438|139608.46281175|-0.5123972733617255|-1.00766041795785|-1.025828090836623|0.2294800281524658|-3.778494834899902|0.8231119513511658|-0.1961623728275299|1.123158693313599|-1.389779806137085|XArbitraryZVertical|-0.5223117323772182|-0.2980290569726444|0.03581755566960935|0.7981769899457886|-0.4383440017700195|0.8551437854766846|-0.2767382562160492|0|0|0|-1|-1|3
2021-04-22 21:30:59.872 +0100|139608.49275175|-0.9568023681640625|2.421066284179688|-3.813751220703125|139608.48277175|-0.4739046835946738|-1.03397814318749|-1.046797976643421|0.5743416547775269|-2.095524549484253|1.936472535133362|-0.4451240301132202|1.470966935157776|-2.698022842407227|XArbitraryZVertical|-0.5228557946593493|-0.3141372083358085|0.06339954032160926|0.7898862808853241|-0.4299677014350891|0.8658255338668823|-0.2558792531490326|0|0|0|-1|-1|3
2021-04-22 21:30:59.892 +0100|139608.51271175|-0.92950439453125|1.97625732421875|-4.015457153320312|139608.50273175|-0.3865715827474251|-0.981607088634368|-1.073536699251547|1.674116611480713|-0.3225281536579132|2.456649541854858|-0.5416123270988464|1.437223672866821|-3.740479469299316|XArbitraryZVertical|-0.520402776446302|-0.3108765947660901|0.09094914026544197|0.7901045005892645|-0.3965896368026733|0.8788930773735046|-0.2650733888149261|0|0|0|-1|-1|3
2021-04-22 21:30:59.911 +0100|139608.53267275|-0.8429718017578125|1.710357666015625|-3.050857543945312|139608.52269275|-0.2479420893422233|-0.8481506577234132|-1.081042202620756|3.204473972320557|1.432028532028198|2.056104421615601|-0.5813848972320557|1.052274823188782|-3.534022092819214|XArbitraryZVertical|-0.5090287354094895|-0.2921166687891253|0.1134805780702544|0.8016732198176898|-0.3528344631195068|0.8824485540390015|-0.3111152052879333|0|0|0|-1|-1|3
2021-04-22 21:30:59.931 +0100|139608.55263275|-0.4118194580078125|1.549530029296875|-2.103622436523438|139608.54265275|-0.08123061137745316|-0.6570671840977433|-1.040558879481228|5.327425479888916|2.984092712402344|1.069346785545349|-0.4492293000221252|0.8335416316986084|-2.363325119018555|XArbitraryZVertical|-0.481514243526553|-0.2606251548819431|0.1269198161198656|0.8271095049625565|-0.308903694152832|0.8626869916915894|-0.4004371166229248|0|0|0|-1|-1|3
2021-04-22 21:30:59.951 +0100|139608.5725939167|-0.1019439697265625|1.507675170898438|-1.152603149414062|139608.56261375|0.05068647627828811|-0.4786392704858312|-0.9438897863056257|6.248216152191162|3.577004909515381|-0.1797277182340622|-0.04883989691734314|0.6647944450378418|-1.318225383758545|XArbitraryZVertical|-0.4361704963751555|-0.2222537959091128|0.1296562680268752|0.8622923208280531|-0.2701910138130188|0.8098461627960205|-0.5207170844078064|0|0|0|-1|-1|3
2021-04-22 21:30:59.972 +0100|139608.5925539167|-0.2394256591796875|0.12384033203125|0.246917724609375|139608.5825739167|0.1124614867612952|-0.3628420425765238|-0.8279664580183682|4.86613130569458|3.0839684009552|-0.8784264326095581|0.1736916601657867|1.069381952285767|-0.2156840562820435|XArbitraryZVertical|-0.3857484852871847|-0.1871612838937956|0.12307301143353|0.8949982679847018|-0.2400676012039185|0.7365574836730957|-0.6323375105857849|0|0|0|-1|-1|3
2021-04-22 21:30:59.992 +0100|139608.6125149167|-0.2997589111328125|0.78277587890625|-0.191802978515625|139608.6025339167|0.116396691811275|-0.2940223592027614|-0.7481393716101118|3.171558856964111|3.117798805236816|-1.313571572303772|-0.1190378665924072|0.5719982385635376|0.8874157667160034|XArbitraryZVertical|-0.3529221372754558|-0.1571465942470523|0.106994143496478|0.916135006880029|-0.2124137878417969|0.6802761554718018|-0.7015018463134766|0|0|0|-1|-1|3
2021-04-22 21:31:00.012 +0100|139608.6324749167|-0.9013519287109375|1.086669921875|-0.244049072265625|139608.6224949167|0.09662341892013296|-0.2490379830238818|-0.6918178151651533|1.730116009712219|2.818686246871948|-1.566873669624329|-0.3256526291370392|-0.03626793622970581|0.4867792129516602|XArbitraryZVertical|-0.3303916306927652|-0.1329516476958518|0.08714089381937652|0.9303611298052313|-0.1898048520088196|0.6379381418228149|-0.7463304400444031|0|0|0|-1|-1|3
2021-04-22 21:31:00.031 +0100|139608.6524349167|-1.34698486328125|1.480682373046875|0.2883453369140625|139608.6424549167|0.06306589563985006|-0.2171769110897544|-0.6553501778573901|1.431739807128906|2.464835643768311|-1.933282375335693|-0.7886379957199097|0.5546569228172302|0.6424975395202637|XArbitraryZVertical|-0.3165529535156164|-0.1126450588189281|0.06453682355938889|0.9396491149751036|-0.170835018157959|0.6094369292259216|-0.7742106318473816|0|0|0|-1|-1|3
2021-04-22 21:31:00.051 +0100|139608.6723959167|-1.681564331054688|1.326904296875|0.783172607421875|139608.6624159167|0.01706796038054786|-0.1981004132618443|-0.6194092436889325|1.201600551605225|2.243558883666992|-2.326311826705933|-1.344928503036499|0.972760796546936|1.256549835205078|XArbitraryZVertical|-0.3024686477882915|-0.09676832133533159|0.03822583943888018|0.947463743605676|-0.1602447181940079|0.5805542469024658|-0.7982972264289856|0|0|0|-1|-1|3
2021-04-22 21:31:00.072 +0100|139608.6923559167|-1.4139404296875|0.9390106201171875|0.9804534912109375|139608.6823759167|-0.03420587066981401|-0.1841229455866718|-0.5944034360942759|0.4865735471248627|2.070422172546387|-2.212302207946777|-1.498113751411438|0.6520376205444336|1.66268527507782|XArbitraryZVertical|-0.2930662765552769|-0.08290125217705144|0.01063471012765703|0.9524319145062317|-0.1516822427511215|0.5600146055221558|-0.8144790530204773|0|0|0|-1|-1|3
2021-04-22 21:31:00.092 +0100|139608.7123169167|-1.12127685546875|0.7093658447265625|0.7717742919921875|139608.7023359167|-0.08009999575053607|-0.1713150025283974|-0.5825873221438421|0.01428587362170219|1.721609354019165|-1.726784348487854|-1.181008338928223|0.3461005687713623|1.794712066650391|XArbitraryZVertical|-0.2891903614953773|-0.07042621227593847|-0.01366160956483797|0.9545798248422531|-0.1423565000295639|0.5501862764358521|-0.8228181600570679|0|0|0|-1|-1|3
2021-04-22 21:31:00.111 +0100|139608.7322769167|-1.083816528320312|0.497955322265625|0.5129547119140625|139608.7222969167|-0.1133727192590214|-0.161211125918114|-0.5852275360667449|-0.7856456637382507|1.098545074462891|-0.9451194405555725|-0.9554624557495117|0.06228154897689819|1.507272481918335|XArbitraryZVertical|-0.2914253611507442|-0.06068219608174127|-0.03088293515128523|0.9541673965159554|-0.1338020861148834|0.5523890852928162|-0.8227778673171997|0|0|0|-1|-1|3
2021-04-22 21:31:00.131 +0100|139608.7522369167|-0.9795684814453125|0.4832763671875|0.4038543701171875|139608.7422569167|-0.1320056821034892|-0.1550225603617542|-0.6069852529340468|-1.536513805389404|0.5977187752723694|-0.2295984327793121|-0.950495183467865|-0.07291078567504883|1.291029691696167|XArbitraryZVertical|-0.3021826632751121|-0.05408217547732818|-0.03966065342646604|0.9508879359361504|-0.1268216967582703|0.5703938007354736|-0.8115215301513672|0|0|0|-1|-1|3
2021-04-22 21:31:00.151 +0100|139608.7721979167|-0.81195068359375|0.585723876953125|0.2961578369140625|139608.7622179167|-0.1366088378677609|-0.1493263357471586|-0.6409007854839412|-1.837166666984558|0.2385542839765549|0.3205333948135376|-0.8117815852165222|-0.09083688259124756|1.178487062454224|XArbitraryZVertical|-0.3182159285176797|-0.04919256709258567|-0.04115460648348228|0.945846299207781|-0.1192493140697479|0.5979177355766296|-0.7926374077796936|0|0|0|-1|-1|3
2021-04-22 21:31:00.171 +0100|139608.7921579167|-0.6982879638671875|0.5583648681640625|0.2362518310546875|139608.7821779167|-0.1318289257056502|-0.1450986967909369|-0.6791230540785179|-1.894160747528076|-0.0869341716170311|0.5951146483421326|-0.6723579168319702|-0.03220862150192261|1.038777112960815|XArbitraryZVertical|-0.3359778694751359|-0.04631765646290442|-0.03785177557281711|0.939968613351769|-0.1125090047717094|0.6281108856201172|-0.7699471116065979|0|0|0|-1|-1|3
2021-04-22 21:31:00.191 +0100|139608.8121189167|-0.5618743896484375|0.4232940673828125|0.1633758544921875|139608.8021389167|-0.1213849643167375|-0.1418778023806673|-0.7182009725699366|-1.834680676460266|-0.2478031069040298|0.7379067540168762|-0.5557726621627808|-0.1312969326972961|0.9678683280944824|XArbitraryZVertical|-0.3539278341362793|-0.04497348480476504|-0.03177996263305859|0.9336502163913697|-0.1064746379852295|0.6580311059951782|-0.7454249262809753|0|0|0|-1|-1|3
2021-04-22 21:31:00.211 +0100|139608.8320789167|-0.420928955078125|0.377655029296875|0.0635833740234375|139608.8220989167|-0.1084533164725959|-0.1391480423206397|-0.7569324332390195|-1.909816145896912|-0.3666296601295471|0.7244794964790344|-0.4265173077583313|-0.2899349331855774|0.8691361546516418|XArbitraryZVertical|-0.3715611021771096|-0.04452509350912143|-0.0245938296257854|0.9270141646611398|-0.1008270084857941|0.6866947412490845|-0.719919741153717|0|0|0|-1|-1|3
2021-04-22 21:31:00.231 +0100|139608.8520399167|-0.36773681640625|0.4295654296875|-0.16986083984375|139608.8420589167|-0.09650162374129258|-0.1402114857669402|-0.800299387571498|-2.301264762878418|-0.6388506293296814|0.7311617136001587|-0.2917784452438354|-0.330128014087677|0.7024750709533691|XArbitraryZVertical|-0.3912586858149343|-0.04569665800242265|-0.01705676735195819|0.9189872898381735|-0.09733651578426361|0.7175646424293518|-0.6896569132804871|0|0|0|-1|-1|3
2021-04-22 21:31:00.251 +0100|139608.8719999167|-0.4345245361328125|0.3928680419921875|-0.40264892578125|139608.8620199167|-0.08491631102430185|-0.1471089916804893|-0.8531605512714765|-2.829043388366699|-0.8639652132987976|0.8359594941139221|-0.286330372095108|-0.3139849901199341|0.4336303472518921|XArbitraryZVertical|-0.4151089664687897|-0.04932760395335122|-0.008158154294539508|0.9083969093265486|-0.09639113396406174|0.7533625364303589|-0.6505026817321777|0|0|0|-1|-1|3
2021-04-22 21:31:00.271 +0100|139608.8919599167|-0.3504638671875|0.4936676025390625|-0.4763946533203125|139608.8819799167|-0.07106803818352786|-0.1545527833529344|-0.9159804836325133|-3.23805832862854|-0.8803415894508362|0.9783167839050293|-0.3462372720241547|-0.419670045375824|0.156427264213562|XArbitraryZVertical|-0.4430085066275268|-0.05353878084015443|0.002341741546971991|0.8949143590429957|-0.09375042468309402|0.793160080909729|-0.6017541289329529|0|0|0|-1|-1|3
2021-04-22 21:31:00.291 +0100|139608.9119209167|-0.0951995849609375|0.914642333984375|-0.532257080078125|139608.9019409167|-0.05611178590644611|-0.1576314690392406|-0.9779097459826255|-2.526253461837769|-0.6720923781394958|0.7820186614990234|-0.2046301960945129|-0.2100679874420166|0.0487789511680603|XArbitraryZVertical|-0.4700109340268391|-0.05634575183294967|0.01227885954764853|0.880774738787898|-0.08771343529224396|0.8293312191963196|-0.5518297553062439|0|0|0|-1|-1|3
2021-04-22 21:31:00.311 +0100|139608.9318809167|-0.0592193603515625|1.003494262695312|-0.555511474609375|139608.9219009167|-0.04321362552891062|-0.1598095274551261|-1.016582292698254|-1.256272673606873|-0.5992487072944641|0.4892727136611938|0.02254277467727661|0.1014379858970642|0.00112229585647583|XArbitraryZVertical|-0.4865255063646133|-0.05923111908179021|0.02002448171476642|0.871426247102997|-0.08374626189470291|0.8503143191337585|-0.5195692181587219|0|0|0|-1|-1|3
2021-04-22 21:31:00.331 +0100|139608.9518419167|-0.1614532470703125|1.113265991210938|-0.79150390625|139608.9418609167|-0.03592718022366418|-0.1637933086038235|-1.036167438467428|-0.7635696530342102|-0.3986728489398956|0.1971070766448975|0.001036643981933594|0.160996675491333|-0.08691143989562988|XArbitraryZVertical|-0.4947533037826741|-0.06219278318646347|0.0249515918950353|0.866446119254566|-0.0830836296081543|0.8604577779769897|-0.5027024745941162|0|0|0|-1|-1|3
2021-04-22 21:31:00.351 +0100|139608.9718019167|-0.072509765625|1.213165283203125|-0.938079833984375|139608.9618219167|-0.03690431988368622|-0.170130371146903|-1.051232815317902|-0.7325195074081421|-0.1839116364717484|0.05709796398878098|-0.0578136220574379|0.2670201063156128|-0.3709411323070526|XArbitraryZVertical|-0.5012029922436425|-0.06425712268890245|0.02671965385868125|0.8625268969923854|-0.08406305313110352|0.8680359721183777|-0.4893331527709961|0|0|0|-1|-1|3
2021-04-22 21:31:00.371 +0100|139608.9917619167|-0.0238189697265625|1.21630859375|-0.6640777587890625|139608.9817819167|-0.04225355712501042|-0.177378233421969|-1.063745401842057|-0.5793954133987427|-0.09500296413898468|-0.1018813028931618|0.03908336907625198|0.3682518601417542|-0.4279158115386963|XArbitraryZVertical|-0.5066548222665386|-0.06564878684611203|0.02677415743505372|0.8592289677089259|-0.0856841653585434|0.8741803765296936|-0.4779822528362274|0|0|0|-1|-1|3
2021-04-22 21:31:00.391 +0100|139609.0117229167|0.0328521728515625|1.188034057617188|-0.668975830078125|139609.0017429167|-0.05581303602095601|-0.1894927782640103|-1.072485222638841|-0.3671678602695465|0.07232749462127686|-0.3760574758052826|0.07557514309883118|0.3246886730194092|-0.1299156546592712|XArbitraryZVertical|-0.5106893118986401|-0.0671018699920628|0.02443691675296686|0.8567943989617022|-0.09002567082643509|0.8783910274505615|-0.4693875312805176|0|0|0|-1|-1|3
2021-04-22 21:31:00.411 +0100|139609.0316829167|-0.0512542724609375|1.20098876953125|-1.045196533203125|139609.0217029167|-0.07570386492217281|-0.2042345216704896|-1.073014240482088|0.1026871725916862|0.1714294701814651|-0.5626178383827209|0.1303640902042389|0.2933691740036011|-0.3165021538734436|XArbitraryZVertical|-0.5114256428601769|-0.06831234500693194|0.01971140042715026|0.8563812503958602|-0.0968409925699234|0.8786437511444092|-0.4675544798374176|0|0|0|-1|-1|3
2021-04-22 21:31:00.431 +0100|139609.0516439167|-0.118255615234375|1.184906005859375|-1.11553955078125|139609.0416629167|-0.1010621892901982|-0.2225134382763656|-1.06565427382424|0.3147676587104797|0.2283417582511902|-0.743191659450531|0.02378669381141663|0.3387162089347839|-0.6212291121482849|XArbitraryZVertical|-0.509016031294062|-0.07001527397356067|0.01308792515831407|0.857805035885314|-0.1067949831485748|0.8751057386398315|-0.4720010757446289|0|0|0|-1|-1|3
2021-04-22 21:31:00.451 +0100|139609.0716039167|-0.05767822265625|1.10711669921875|-0.8418731689453125|139609.0616239167|-0.1285831678200126|-0.2411092549991779|-1.054424642552483|0.4825121462345123|0.3156142234802246|-0.8511832356452942|0.006151802837848663|0.2970101833343506|-0.5923298597335815|XArbitraryZVertical|-0.5051199411832586|-0.07162808264578895|0.005261984327499849|0.8600556213948995|-0.1178924068808556|0.8696163296699524|-0.4794465303421021|0|0|0|-1|-1|3
2021-04-22 21:31:00.471 +0100|139609.0915649167|-0.0148162841796875|0.9698486328125|-0.574798583984375|139609.0815839167|-0.1585106201942323|-0.2607304409064846|-1.039675070841177|0.4939508438110352|0.2995131313800812|-0.9417626857757568|0.09046836197376251|0.2054336667060852|-0.2765320539474487|XArbitraryZVertical|-0.499910398476425|-0.07347529926792928|-0.003759109546481136|0.8629467420815277|-0.1305689811706543|0.8622397184371948|-0.4893819391727448|0|0|0|-1|-1|3
2021-04-22 21:31:00.490 +0100|139609.1115249167|0.1319427490234375|0.891510009765625|-0.5479278564453125|139609.1015449167|-0.1902529948188392|-0.2821929117818803|-1.027540920449633|0.2063528001308441|0.2647517323493958|-0.8960781693458557|0.150459349155426|0.1054568886756897|-0.0419105589389801|XArbitraryZVertical|-0.4960134316823321|-0.07570262504764405|-0.01309695503361907|0.8649094065253208|-0.1439443528652191|0.8560304045677185|-0.4964795708656311|0|0|0|-1|-1|3
2021-04-22 21:31:00.510 +0100|139609.1314849167|0.1463775634765625|0.9083709716796875|-0.806610107421875|139609.1215049167|-0.2182946966586908|-0.3031148364559829|-1.019774635147953|0.1567512154579163|0.02219178155064583|-0.7481994032859802|0.310850203037262|0.0195467472076416|-0.1138956546783447|XArbitraryZVertical|-0.493967119861951|-0.0784319235812653|-0.02073429043639024|0.865687692762072|-0.1562792211771011|0.8519900441169739|-0.4996898472309113|0|0|0|-1|-1|3
2021-04-22 21:31:00.531 +0100|139609.1514459167|0.0411834716796875|0.8499755859375|-0.9059906005859375|139609.1414659167|-0.2412531522648773|-0.3247129841710509|-1.013227674333333|0.1535743772983551|-0.1942622661590576|-0.6124425530433655|0.2963274717330933|0.04032665491104126|-0.3472646474838257|XArbitraryZVertical|-0.492366621750532|-0.082692763458956|-0.02597276383765266|0.8660615741418173|-0.1688102930784225|0.8485441207885742|-0.5014740228652954|0|0|0|-1|-1|3
2021-04-22 21:31:00.550 +0100|139609.1714059167|0.016998291015625|0.7638092041015625|-0.761962890625|139609.1614259167|-0.2571564477288436|-0.3415567251257307|-1.00459800243932|0.4026009738445282|-0.1327187567949295|-0.4857272505760193|0.2014372646808624|-0.0007450580596923828|-0.3826199173927307|XArbitraryZVertical|-0.4896215673005709|-0.0868928807872726|-0.0296055048884548|0.8670894669251638|-0.1796787977218628|0.8439463973045349|-0.5054407119750977|0|0|0|-1|-1|3
2021-04-22 21:31:00.570 +0100|139609.1913669167|-0.0043792724609375|0.7358856201171875|-0.51348876953125|139609.1813859167|-0.267814937050686|-0.3527454076563428|-0.994193914485204|0.3283841609954834|-0.08420619368553162|-0.4358148872852325|0.2059845477342606|-0.09924459457397461|-0.1956633925437927|XArbitraryZVertical|-0.4858650999589125|-0.09016440510488875|-0.03260536832125897|0.8687591115006951|-0.1883459240198135|0.8383197784423828|-0.5116109848022461|0|0|0|-1|-1|3
2021-04-22 21:31:00.590 +0100|139609.2113269167|0.0631103515625|0.79705810546875|-0.4113006591796875|139609.2013469167|-0.279572612013971|-0.3632430300046552|-0.9864436224704672|0.1765967905521393|-0.003204015083611012|-0.4224165380001068|0.1964813321828842|-0.08252763748168945|0.05297237634658813|XArbitraryZVertical|-0.4833033627325426|-0.09266080893003308|-0.03602083819890254|0.8697899211101284|-0.1960088610649109|0.8340693712234497|-0.5156636834144592|0|0|0|-1|-1|3
2021-04-22 21:31:00.610 +0100|139609.2312869167|0.031463623046875|0.7890167236328125|-0.475860595703125|139609.2213069167|-0.2921120940535722|-0.3740947957365144|-0.9815353191991615|0.01364396885037422|-0.05461005493998528|-0.4141624867916107|0.2653877437114716|-0.02112466096878052|0.1036002635955811|XArbitraryZVertical|-0.4820214021715808|-0.09486813978434074|-0.03941113919892815|0.8701162623551703|-0.203086644411087|0.8313515782356262|-0.5173107981681824|0|0|0|-1|-1|3
2021-04-22 21:31:00.630 +0100|139609.2512479167|-0.01055908203125|0.7475433349609375|-0.513641357421875|139609.2412679167|-0.3058251913418592|-0.387311244390361|-0.9810898521934224|-0.2542608380317688|-0.1400300860404968|-0.3277009427547455|0.2353288233280182|-0.06462395191192627|0.03570783138275146|XArbitraryZVertical|-0.4827624175922883|-0.09735621716719889|-0.04223870915189219|0.8692975267846991|-0.2100455611944199|0.8311039209365845|-0.5149244070053101|0|0|0|-1|-1|3
2021-04-22 21:31:00.650 +0100|139609.2712079167|-0.0861968994140625|0.760528564453125|-0.5947723388671875|139609.2612279167|-0.3201644711990363|-0.4026172803469185|-0.9849519558915941|-0.3885888755321503|-0.2062303721904755|-0.2651162147521973|0.1920145750045776|-0.07910984754562378|-0.02093923091888428|XArbitraryZVertical|-0.4854224591742212|-0.1000941712325983|-0.04429051600216793|0.8674011232057049|-0.2166428118944168|0.8332455158233643|-0.5086923837661743|0|0|0|-1|-1|3
2021-04-22 21:31:00.670 +0100|139609.2911689167|-0.191253662109375|0.9053192138671875|-0.576019287109375|139609.2811879167|-0.334849231130371|-0.4187909877554651|-0.9898250387318426|-0.3167255222797394|-0.17579485476017|-0.2942782640457153|0.1043364107608795|-0.0476299524307251|-0.09763729572296143|XArbitraryZVertical|-0.4885674716446783|-0.1029494438515748|-0.04609707794937563|0.8652042475948845|-0.223187655210495|0.8359299898147583|-0.5014064908027649|0|0|0|-1|-1|3
2021-04-22 21:31:00.690 +0100|139609.3111289167|-0.19561767578125|0.9723358154296875|-0.4597015380859375|139609.3011489167|-0.3464366865135364|-0.4308752033751336|-0.9895439891277998|0.1292082965373993|-0.06065010279417038|-0.3058155477046967|0.02894949913024902|0.09870356321334839|-0.04562246799468994|XArbitraryZVertical|-0.4893390060253231|-0.1053760839725888|-0.04818988326427928|0.8643617155980449|-0.2293284833431244|0.8357756733894348|-0.4988864362239838|0|0|0|-1|-1|3
2021-04-22 21:31:00.710 +0100|139609.3310899167|-0.1960296630859375|0.8580169677734375|-0.3850555419921875|139609.3211089167|-0.3532681453755462|-0.4371224013679003|-0.9809770692721254|0.4156147539615631|-0.002375612501055002|-0.4029601812362671|0.04611626267433167|0.1307666301727295|0.06354480981826782|XArbitraryZVertical|-0.4863035985387129|-0.1074827235349158|-0.05076526507555163|0.8656670483512477|-0.2354631721973419|0.8310412168502808|-0.5039125680923462|0|0|0|-1|-1|3
2021-04-22 21:31:00.730 +0100|139609.3510499167|-0.17974853515625|0.7932281494140625|-0.4521636962890625|139609.3410699167|-0.3583134986880882|-0.4398950578849698|-0.9719697166141074|0.1865928173065186|-0.02036707662045956|-0.4101371169090271|0.04156577587127686|0.01477742195129395|0.1355145573616028|XArbitraryZVertical|-0.4829087643842557|-0.108600649302086|-0.05349558395669838|0.8672620631367411|-0.2400374263525009|0.8259975910186768|-0.5100100636482239|0|0|0|-1|-1|3
2021-04-22 21:31:00.750 +0100|139609.3710099167|-0.224517822265625|0.7488250732421875|-0.56219482421875|139609.3610299167|-0.3691538465734401|-0.4504779219072269|-0.9688598623907102|-0.1801339983940125|-0.1481896042823792|-0.2788422107696533|0.06773537397384644|-0.04283756017684937|0.01825129985809326|XArbitraryZVertical|-0.4825032869663364|-0.110972840622101|-0.05606802707692201|0.8670248857869306|-0.246538445353508|0.8242406845092773|-0.5097512006759644|0|0|0|-1|-1|3
2021-04-22 21:31:00.770 +0100|139609.3909709167|-0.242401123046875|0.7974090576171875|-0.5358734130859375|139609.3809909167|-0.37814026457468|-0.4606525150057299|-0.9724933793048895|-0.3098317384719849|-0.1736152172088623|-0.1448816806077957|0.004208475351333618|-0.08329594135284424|-0.05531364679336548|XArbitraryZVertical|-0.4847961237441597|-0.1127277127773721|-0.0569898467283657|0.865457955361055|-0.2503791153430939|0.8262926340103149|-0.5045303702354431|0|0|0|-1|-1|3
2021-04-22 21:31:00.790 +0100|139609.4109309167|-0.2407684326171875|0.855255126953125|-0.495361328125|139609.4009509167|-0.3832230646912293|-0.4679392561795646|-0.9773993394107803|-0.06132082268595695|-0.1667219549417496|-0.06042494252324104|0.02057307958602905|-0.01016724109649658|-0.02197235822677612|XArbitraryZVertical|-0.4873123686987212|-0.1139841969474725|-0.05671530440522392|0.8638968431449664|-0.2522173225879669|0.8290459513664246|-0.4990685284137726|0|0|0|-1|-1|3
2021-04-22 21:31:00.810 +0100|139609.4308919167|-0.25079345703125|0.8599700927734375|-0.4535064697265625|139609.4209109167|-0.3843119611200653|-0.4721016464516602|-0.9792758477225845|0.04383812099695206|-0.1711719334125519|-0.04583214968442917|0.0008068382740020752|0.03277593851089478|0.01574811339378357|XArbitraryZVertical|-0.4882630977314983|-0.1152614901883026|-0.05589919490861649|0.8632434404258496|-0.2535844743251801|0.8300938010215759|-0.4966278672218323|0|0|0|-1|-1|3
2021-04-22 21:31:00.830 +0100|139609.4508519167|-0.29547119140625|0.7883453369140625|-0.4641265869140625|139609.4408719167|-0.3852843556700604|-0.4765490423226622|-0.9800323534604699|-0.1183928921818733|-0.2440055459737778|-0.09492086619138718|0.002374023199081421|0.007604598999023438|0.041553795337677|XArbitraryZVertical|-0.4887533155260878|-0.1168400239711789|-0.05512248713907364|0.8628037808744015|-0.2555026113986969|0.8305153846740723|-0.4949372112751007|0|0|0|-1|-1|3
2021-04-22 21:31:00.850 +0100|139609.4708119167|-0.308990478515625|0.744598388671875|-0.4655303955078125|139609.4608319167|-0.3906406454588831|-0.4853927547246185|-0.9814951656975704|-0.3228384256362915|-0.260922908782959|-0.1226911619305611|-0.04050272703170776|-0.0619349479675293|0.01941606402397156|XArbitraryZVertical|-0.489912074473996|-0.1191412623095113|-0.05505283465262457|0.8618356796214116|-0.2593024671077728|0.8313292860984802|-0.4915830492973328|0|0|0|-1|-1|3
2021-04-22 21:31:00.870 +0100|139609.4907729167|-0.2847137451171875|0.800201416015625|-0.428955078125|139609.4807929167|-0.3995897200129058|-0.4974478479174361|-0.9850682666845195|-0.2924114167690277|-0.2262064665555954|-0.1440386176109314|-0.04349157214164734|-0.0933648943901062|0.02772486209869385|XArbitraryZVertical|-0.4922413155809544|-0.1216325726495564|-0.05540917231584724|0.860135998509914|-0.263790488243103|0.8333098292350769|-0.4858080148696899|0|0|0|-1|-1|3
2021-04-22 21:31:00.890 +0100|139609.5107329167|-0.277801513671875|0.8085479736328125|-0.4120635986328125|139609.5007529167|-0.4072481263098925|-0.5078399494430488|-0.9875578776990531|-0.1670976728200912|-0.2239643037319183|-0.1684495061635971|-0.007454097270965576|-0.01730024814605713|0.06141209602355957|XArbitraryZVertical|-0.4940112916448311|-0.1238537365732344|-0.05575640614746875|0.8587807728331097|-0.2678149938583374|0.8346835374832153|-0.4812262058258057|0|0|0|-1|-1|3
2021-04-22 21:31:00.910 +0100|139609.5306939167|-0.2974395751953125|0.88861083984375|-0.4851531982421875|139609.5207129167|-0.4169508875559353|-0.5204936035110226|-0.9894223172187137|-0.1934953033924103|-0.2421668916940689|-0.2304407060146332|-0.01159071922302246|-0.009399175643920898|0.05588626861572266|XArbitraryZVertical|-0.4957278216807856|-0.1266093149134072|-0.05649651049632584|0.8573402603580822|-0.2731083035469055|0.8357088565826416|-0.4764480292797089|0|0|0|-1|-1|3
2021-04-22 21:31:00.930 +0100|139609.5506539167|-0.3343048095703125|0.935577392578125|-0.5403594970703125|139609.5406739167|-0.4279934787819905|-0.5349163960884115|-0.9894835161300193|-0.1219640076160431|-0.233118012547493|-0.2283012866973877|-0.02384722232818604|0.05370801687240601|-0.03376325964927673|XArbitraryZVertical|-0.4968725513102015|-0.1300380648247766|-0.05763786923895998|0.8560874507485178|-0.2799252569675446|0.8357424736022949|-0.4724155366420746|0|0|0|-1|-1|3
2021-04-22 21:31:00.949 +0100|139609.5706150417|-0.286376953125|0.9255523681640625|-0.5644683837890625|139609.5606339167|-0.4359054556602931|-0.5456128556031432|-0.9866992113123592|0.05391304194927216|-0.1523522734642029|-0.1769790649414062|-0.04424557089805603|0.1256137490272522|-0.07938331365585327|XArbitraryZVertical|-0.4965883568340904|-0.133075766037415|-0.05882300549720425|0.8557048706532716|-0.2861688137054443|0.8342103362083435|-0.4713816940784454|0|0|0|-1|-1|3
2021-04-22 21:31:00.970 +0100|139609.5905750417|-0.24114990234375|0.886810302734375|-0.5640869140625|139609.5805950417|-0.4399666082989959|-0.5518269983953913|-0.9845816014538867|-0.002177288988605142|-0.1087670847773552|-0.1099548488855362|0.01456576585769653|0.07493400573730469|-0.09721493721008301|XArbitraryZVertical|-0.4961971629548361|-0.1350538880088253|-0.05936958512526468|0.855584181415907|-0.2900179922580719|0.833040714263916|-0.4710976481437683|0|0|0|-1|-1|3
2021-04-22 21:31:00.990 +0100|139609.6105350417|-0.1944427490234375|0.9053802490234375|-0.5295257568359375|139609.6005550417|-0.4448040646309905|-0.5581335948969983|-0.9868678759795727|-0.2564209699630737|-0.09075064212083817|-0.02360718324780464|0.06490719318389893|0.04547315835952759|-0.08399224281311035|XArbitraryZVertical|-0.497625059268321|-0.1361912465342355|-0.05948758085305036|0.85456577765617|-0.2919737696647644|0.8343033194541931|-0.4676424860954285|0|0|0|-1|-1|3
2021-04-22 21:31:01.009 +0100|139609.6304960417|-0.188201904296875|0.9609375|-0.5747528076171875|139609.6205160417|-0.4505433464579078|-0.5642302156208584|-0.992541011723955|-0.3404055237770081|-0.04196035861968994|0.03742785006761551|0.1067208647727966|0.08575493097305298|-0.07419347763061523|XArbitraryZVertical|-0.5004535917968629|-0.1364654074873065|-0.05945485773023555|0.8528708577934898|-0.2922835350036621|0.8374174833297729|-0.461846798658371|0|0|0|-1|-1|3
2021-04-22 21:31:01.030 +0100|139609.6504560417|-0.23419189453125|1.000732421875|-0.614105224609375|139609.6404760417|-0.455042353257401|-0.5680272393330956|-0.9981160057072385|-0.3031375706195831|0.02932910621166229|0.06602958589792252|0.09051433205604553|0.1345396637916565|-0.136469691991806|XArbitraryZVertical|-0.5030815081909009|-0.1360643482848818|-0.05946563475093421|0.851386760698853|-0.291518896818161|0.8404515385627747|-0.4567909836769104|0|0|0|-1|-1|3
2021-04-22 21:31:01.050 +0100|139609.6704170417|-0.226043701171875|1.03289794921875|-0.5997467041015625|139609.6604360417|-0.4573495377217693|-0.5683487163765324|-1.003042105167982|-0.1495491415262222|0.1249271556735039|0.09141723066568375|0.05560752749443054|0.1668536067008972|-0.1618478894233704|XArbitraryZVertical|-0.5051933242369553|-0.1348278456045909|-0.05951959855702114|0.8503284805312695|-0.2894337177276611|0.8431107401847839|-0.4532023072242737|0|0|0|-1|-1|3
2021-04-22 21:31:01.070 +0100|139609.6903770417|-0.237640380859375|0.95428466796875|-0.600555419921875|139609.6803970417|-0.4551346062622564|-0.5635503814353744|-1.004671066484835|0.05903368815779686|0.1577453911304474|0.1018360480666161|0.06153044104576111|0.1805356740951538|-0.1487169563770294|XArbitraryZVertical|-0.5055452637249116|-0.1330857426272898|-0.05951104122588972|0.8503944034275805|-0.2865217924118042|0.8439855575561523|-0.453424334526062|0|0|0|-1|-1|3
2021-04-22 21:31:01.090 +0100|139609.7103370417|-0.2618255615234375|0.919921875|-0.5477752685546875|139609.7003570417|-0.4494068058177199|-0.5554376828509483|-1.003883522642628|0.1579502820968628|0.1770987957715988|0.1243217438459396|0.03611350059509277|0.09743177890777588|-0.1336357295513153|XArbitraryZVertical|-0.5046143354498727|-0.1312063753038849|-0.05925686728224452|0.8512566999544307|-0.2831843495368958|0.84356290102005|-0.4562985301017761|0|0|0|-1|-1|3
2021-04-22 21:31:01.109 +0100|139609.7302980417|-0.271728515625|0.8505859375|-0.4870758056640625|139609.7203180417|-0.4411183397582093|-0.5447233127456169|-1.001953433871027|0.2367522865533829|0.1852268278598785|0.1499479115009308|0.01689958572387695|0.06592297554016113|-0.07085603475570679|XArbitraryZVertical|-0.5029924164424795|-0.1290330692334326|-0.05874803091991259|0.8525831333840324|-0.2791224718093872|0.8425248265266418|-0.4606981873512268|0|0|0|-1|-1|3
2021-04-22 21:31:01.129 +0100|139609.7502580417|-0.28680419921875|0.7676849365234375|-0.431121826171875|139609.7402780417|-0.4316315034514844|-0.5330032469033111|-0.999354941982758|0.2355275899171829|0.1905976682901382|0.1575524061918259|-0.003429114818572998|-0.0134393572807312|-0.001660764217376709|XArbitraryZVertical|-0.5010064928921781|-0.1268133688030542|-0.05806819565218896|0.8541305777409263|-0.2748154401779175|0.8411222696304321|-0.4658217132091522|0|0|0|-1|-1|3
2021-04-22 21:31:01.149 +0100|139609.7702190417|-0.3041534423828125|0.7407379150390625|-0.3914031982421875|139609.7602380417|-0.4223330647890667|-0.5213544233171956|-0.9971007156219094|0.2127244621515274|0.1954517066478729|0.1585454046726227|-0.02457752823829651|-0.07639646530151367|0.05130863189697266|XArbitraryZVertical|-0.4991820699223098|-0.1244991757323509|-0.05736888644385689|0.8555853364420368|-0.2703143656253815|0.8399009704589844|-0.4706344306468964|0|0|0|-1|-1|3
2021-04-22 21:31:01.169 +0100|139609.7901790417|-0.3137359619140625|0.725372314453125|-0.3410797119140625|139609.7801990417|-0.4140527585209159|-0.5105620030658218|-0.9958369134760749|0.1147027537226677|0.1894837915897369|0.1562913060188293|-0.040720134973526|-0.1166797280311584|0.09731477499008179|XArbitraryZVertical|-0.4978546910300236|-0.1221298355356147|-0.05671347077766282|0.8567431454057889|-0.265737920999527|0.8392143845558167|-0.474450021982193|0|0|0|-1|-1|3
2021-04-22 21:31:01.189 +0100|139609.8101400417|-0.2975616455078125|0.7313232421875|-0.338653564453125|139609.8001590417|-0.4080888391973473|-0.501943235217719|-0.9959779694534298|0.04191560298204422|0.1663769781589508|0.1374222636222839|-0.05088812112808228|-0.1006431579589844|0.1437951028347015|XArbitraryZVertical|-0.497307444602688|-0.119899620155476|-0.05628009588876133|0.8574042130951622|-0.2615818977355957|0.8392910957336426|-0.476618766784668|0|0|0|-1|-1|3
2021-04-22 21:31:01.209 +0100|139609.8301000417|-0.302215576171875|0.7543487548828125|-0.36981201171875|139609.8201200417|-0.4036435268258184|-0.4955177134679457|-0.9968516001371749|-0.01661852933466434|0.1035520434379578|0.1120814010500908|-0.03573480248451233|-0.1117684841156006|0.1340633928775787|XArbitraryZVertical|-0.4972166416453203|-0.1181243012631549|-0.05583808093675087|0.8577321498883506|-0.2581652700901031|0.839765727519989|-0.4776445329189301|0|0|0|-1|-1|3
2021-04-22 21:31:01.229 +0100|139609.8500600417|-0.296051025390625|0.7808074951171875|-0.3799285888671875|139609.8400800417|-0.4031592924750704|-0.4944227452665784|-0.998584057517062|-0.08016929030418396|0.03509527817368507|0.08727459609508514|-0.04769095778465271|-0.08286172151565552|0.09970861673355103|XArbitraryZVertical|-0.4978598468376719|-0.1175280285890073|-0.05563976347958402|0.8574537326060757|-0.2569513022899628|0.8407050967216492|-0.4766454696655273|0|0|0|-1|-1|3
2021-04-22 21:31:01.249 +0100|139609.8700210417|-0.2743682861328125|0.7935791015625|-0.345062255859375|139609.8600410417|-0.4031344464850414|-0.4946257792658604|-1.000560050876811|-0.08361992985010147|-0.015925083309412|0.06875017285346985|-0.0353369414806366|-0.05615895986557007|0.1030763387680054|XArbitraryZVertical|-0.4986644833370607|-0.1173393876559568|-0.05527871297919964|0.8570353602771339|-0.2562590837478638|0.8417734503746033|-0.4751304090023041|0|0|0|-1|-1|3
2021-04-22 21:31:01.269 +0100|139609.8899810417|-0.246185302734375|0.8609771728515625|-0.348388671875|139609.8800010417|-0.4033880123967993|-0.4954307230812941|-1.002396083483569|-0.06592895835638046|-0.04082947224378586|0.01209195982664824|-0.01304563879966736|-0.02884364128112793|0.1307606101036072|XArbitraryZVertical|-0.4994447971213818|-0.1173588260745243|-0.05490764162702898|0.8566021461506234|-0.2559063136577606|0.8427631855010986|-0.4735636115074158|0|0|0|-1|-1|3
2021-04-22 21:31:01.289 +0100|139609.9099420417|-0.2641448974609375|0.85906982421875|-0.3826446533203125|139609.8999610417|-0.4044126242122373|-0.497312638075867|-1.002635196496078|0.009120238944888115|-0.06324562430381775|-0.04513679444789886|0.0147874653339386|0.01704812049865723|0.1120345592498779|XArbitraryZVertical|-0.4996535225812798|-0.1178746113955767|-0.05483994164117256|0.8564137939092251|-0.2567008137702942|0.8428918719291687|-0.4729038774967194|0|0|0|-1|-1|3
2021-04-22 21:31:01.309 +0100|139609.9299020417|-0.3274383544921875|0.88104248046875|-0.39569091796875|139609.9199220417|-0.4057910236546197|-0.4993284445026759|-1.001051818052616|0.1194820627570152|-0.02019460871815681|-0.0922657772898674|-0.0190214216709137|0.03479266166687012|0.08403119444847107|XArbitraryZVertical|-0.4991500873080223|-0.1186209116995322|-0.05516875437177974|0.8565831966967637|-0.2582923471927643|0.8420388102531433|-0.4735565483570099|0|0|0|-1|-1|3
2021-04-22 21:31:01.329 +0100|139609.9498620417|-0.3839111328125|0.767791748046875|-0.31903076171875|139609.9398820417|-0.4060285907336886|-0.4997065018220986|-0.9974001331486232|0.2065129727125168|-0.00214322516694665|-0.08447808027267456|-0.0952669084072113|0.008737623691558838|0.09428909420967102|XArbitraryZVertical|-0.4976972418708394|-0.1192484763975588|-0.05573516273103396|0.8573044243963809|-0.2599429786205292|0.8400634527206421|-0.4761545062065125|0|0|0|-1|-1|3
2021-04-22 21:31:01.349 +0100|139609.9698230417|-0.4098052978515625|0.65478515625|-0.18798828125|139609.9598430417|-0.4048805079962101|-0.5016851130661637|-0.9935506091153088|0.177935317158699|-0.4007439911365509|-0.1028587743639946|-0.1204057335853577|-0.08503872156143188|0.1709922552108765|XArbitraryZVertical|-0.4961241238836507|-0.1209351086148192|-0.05534090418803093|0.8580052485351185|-0.2624378204345703|0.8379688858985901|-0.4784711003303528|0|0|0|-1|-1|3
