loggingTime(txt)|accelerometerTimestamp_sinceReboot(s)|accelerometerAccelerationX(G)|accelerometerAccelerationY(G)|accelerometerAccelerationZ(G)|motionTimestamp_sinceReboot(s)|motionYaw(rad)|motionRoll(rad)|motionPitch(rad)|motionRotationRateX(rad/s)|motionRotationRateY(rad/s)|motionRotationRateZ(rad/s)|motionUserAccelerationX(G)|motionUserAccelerationY(G)|motionUserAccelerationZ(G)|motionAttitudeReferenceFrame(txt)|motionQuaternionX(R)|motionQuaternionY(R)|motionQuaternionZ(R)|motionQuaternionW(R)|motionGravityX(G)|motionGravityY(G)|motionGravityZ(G)|motionMagneticFieldX(µT)|motionMagneticFieldY(µT)|motionMagneticFieldZ(µT)|motionHeading(°)|motionMagneticFieldCalibrationAccuracy(Z)|label
2021-04-22 22:03:17.309 +0100|141123.738326375|0.1076202392578125|-0.365447998046875|-0.9073638916015625|141123.718365375|1.242476861273172|0.03984115515950799|0.3352567095776499|-0.08216483891010284|0.09508181363344193|0.39356929063797|0.01103267073631287|-0.05570751428604126|0.04852622747421265|XArbitraryZVertical|0.1242126477888109|0.1130617683517766|0.5764728886844378|0.7996669958471742|0.03761308267712593|-0.3290115892887115|-0.9435765147209167|0|0|0|-1|-1|3
2021-04-22 22:03:17.332 +0100|141123.758287375|0.0736541748046875|-0.3593597412109375|-0.892486572265625|141123.738326375|1.249929350275674|0.03799834159593601|0.3322936548995293|-0.1975618898868561|-0.07371360063552856|0.3233918845653534|0.09320956468582153|-0.03946405649185181|0.02016031742095947|XArbitraryZVertical|0.123137021658631|0.1119381274046559|0.5794557682129384|0.7978334984715867|0.03591106086969376|-0.326212078332901|-0.9446142315864563|0|0|0|-1|-1|3
2021-04-22 22:03:17.342 +0100|141123.778249375|0.0478057861328125|-0.333160400390625|-0.858428955078125|141123.758287375|1.257167292909838|0.03591380028016513|0.330294849236431|0.03899780288338661|-0.005354885943233967|0.3955340981483459|0.03926244378089905|-0.03496074676513672|0.04987454414367676|XArbitraryZVertical|0.1225390790068185|0.1109764712389324|0.5822936295256873|0.7959916595167842|0.03396524116396904|-0.3243219554424286|-0.9453368186950684|0|0|0|-1|-1|3
2021-04-22 22:03:17.343 +0100|141123.798210375|0.049407958984375|-0.3274688720703125|-0.85418701171875|141123.778249375|1.264866774863445|0.03595568726089232|0.3317078343834836|0.1277686208486557|0.02680805698037148|0.4284220039844513|0.02335496246814728|-0.01487141847610474|0.08852249383926392|XArbitraryZVertical|0.1226618922547168|0.1118741664234678|0.5852975388769269|0.7936404964990111|0.03398833051323891|-0.3256582319736481|-0.9448764324188232|0|0|0|-1|-1|3
2021-04-22 22:03:17.346 +0100|141123.818171375|-0.0543670654296875|-0.340423583984375|-0.77813720703125|141123.798210375|1.274368273206513|0.03466524486219127|0.3381977670325755|0.3729732036590576|0.08226732164621353|0.4990832805633545|0.01946024596691132|0.004655033349990845|0.08336639404296875|XArbitraryZVertical|0.1250859908604129|0.113841049918855|0.5887051941709728|0.7904556368685055|0.03269505500793457|-0.331787496805191|-0.9427874088287354|0|0|0|-1|-1|3
2021-04-22 22:03:17.365 +0100|141123.838133375|-0.2078094482421875|-0.57171630859375|-0.9531097412109375|141123.818171375|1.281714361850821|0.03400804085819369|0.3446113312229639|-0.537670373916626|-0.4028210043907166|-0.1367276906967163|-0.01724641025066376|0.003526806831359863|0.1040077209472656|XArbitraryZVertical|0.1273997143015244|0.1159224014509245|0.5912810182014108|0.78785676656832|0.03200243040919304|-0.3378308713436127|-0.9406626224517822|0|0|0|-1|-1|3
2021-04-22 22:03:17.385 +0100|141123.858094375|0.0130157470703125|-0.317413330078125|-0.8140411376953125|141123.838133375|1.276837818474291|0.03742942089107648|0.3155583178371207|-1.705792427062988|0.09634985029697418|-0.5218398571014404|-0.2009316980838776|-0.3639226257801056|0.1348479986190796|XArbitraryZVertical|0.1151422575932936|0.1084598554862838|0.5907824894249247|0.7911730516865223|0.03557297214865685|-0.3103472590446472|-0.9499574303627014|0|0|0|-1|-1|3
2021-04-22 22:03:17.405 +0100|141123.878055375|-0.072479248046875|-0.0887908935546875|-0.778045654296875|141123.858094375|1.273371104238196|0.04400864089549082|0.2791674557898134|-1.548590302467346|0.3320181965827942|0.04968009889125824|-0.02842019498348236|-0.1734336912631989|0.2263912558555603|XArbitraryZVertical|0.09888997813949975|0.1002175072395471|0.5910701403674039|0.7942376090742356|0.04229120165109634|-0.275555431842804|-0.9603544473648071|0|0|0|-1|-1|3
2021-04-22 22:03:17.425 +0100|141123.898017375|-0.153900146484375|-0.2078399658203125|-0.7546539306640625|141123.878055375|1.272310892631051|0.04805305641060096|0.2541284015006636|-1.000857472419739|0.09129373729228973|-0.3515655994415283|-0.07870236039161682|0.1758717000484467|0.1984395980834961|XArbitraryZVertical|0.08774650790566951|0.09443400943957039|0.5915965400072007|0.7958620570668595|0.0464918278157711|-0.2514019012451172|-0.9667655229568481|0|0|0|-1|-1|3
2021-04-22 22:03:17.445 +0100|141123.917978375|-0.215301513671875|-0.2147674560546875|-0.7213287353515625|141123.898017375|1.263329712222222|0.05204955293552503|0.2372966888506164|-0.727931797504425|0.1009989306330681|-0.5593888163566589|-0.197097510099411|0.03977945446968079|0.1989167928695679|XArbitraryZVertical|0.08024017775132133|0.09072577508443411|0.5886250754725272|0.7992816284688828|0.05056812986731529|-0.2350759357213974|-0.9706606864929199|0|0|0|-1|-1|3
2021-04-22 22:03:17.465 +0100|141123.937939375|-0.24676513671875|-0.1575164794921875|-0.6965179443359375|141123.917978375|1.250528126762984|0.05682054640775896|0.2207016242421173|-0.9051068425178528|0.07096699625253677|-0.7897788882255554|-0.2539896070957184|0.00306423008441925|0.2443718910217285|XArbitraryZVertical|0.07273038456303103|0.08732466001493155|0.5840529476068784|0.8037207087500071|0.05541248247027397|-0.2189142853021622|-0.9741693735122681|0|0|0|-1|-1|3
2021-04-22 22:03:17.485 +0100|141123.957901375|-0.2379913330078125|-0.07501220703125|-0.6822357177734375|141123.937939375|1.233867005373845|0.06045557425080304|0.1991399832103599|-1.13934862613678|-0.0430225282907486|-0.9588285684585571|-0.3035934567451477|0.01627811789512634|0.2755042910575867|XArbitraryZVertical|0.06364511325040732|0.08201310244115476|0.5778587056924958|0.8095076589613056|0.05922470241785049|-0.1978263854980469|-0.9784463047981262|0|0|0|-1|-1|3
2021-04-22 22:03:17.505 +0100|141123.977862375|-0.2681732177734375|-0.03558349609375|-0.67535400390625|141123.957901375|1.21370166568248|0.06192661607605301|0.1740069894755859|-1.228928089141846|-0.2133614122867584|-1.197922468185425|-0.2982106804847717|0.08372978866100311|0.3039337992668152|XArbitraryZVertical|0.05375624269964516|0.07486481102511122|0.5700638031894431|0.8164146701106667|0.06095248460769653|-0.173130214214325|-0.9830110669136047|0|0|0|-1|-1|3
2021-04-22 22:03:17.525 +0100|141123.997823375|-0.3009033203125|-0.0064239501953125|-0.732513427734375|141123.977862375|1.188543898196001|0.05887700405531426|0.1475320206273341|-1.270791292190552|-0.5000296831130981|-1.444027543067932|-0.3132842481136322|0.1038311421871185|0.3090323805809021|XArbitraryZVertical|0.04460183970118879|0.06556829130830792|0.5599384469261888|0.8247305414501288|0.05820377543568611|-0.146997407078743|-0.9874229431152344|0|0|0|-1|-1|3
2021-04-22 22:03:17.545 +0100|141124.017785375|-0.2667083740234375|0.247802734375|-0.6575927734375|141123.997823375|1.1590985362288|0.04856360310084716|0.1217923955070058|-1.04469895362854|-0.954426646232605|-1.574481725692749|-0.3506745100021362|0.1009998321533203|0.2801947593688965|XArbitraryZVertical|0.03763403651818639|0.05359633858616722|0.5477069230667427|0.8341033037483294|0.04818492010235786|-0.1214915215969086|-0.9914222359657288|0|0|0|-1|-1|3
2021-04-22 22:03:17.565 +0100|141124.037746375|-0.135040283203125|0.2483978271484375|-0.84490966796875|141124.017785375|1.127448323484196|0.03143008226777363|0.0986608818726729|-1.279963254928589|-1.077494621276855|-1.683393478393555|-0.3184113502502441|0.2897402048110962|0.3332989811897278|XArbitraryZVertical|0.03328895516176241|0.03961193699355416|0.5342768754161001|0.8437245220361413|0.03127208724617958|-0.09850089997053146|-0.9946454763412476|0|0|0|-1|-1|3
2021-04-22 22:03:17.585 +0100|141124.057707375|-0.105499267578125|0.3248443603515625|-0.96527099609375|141124.037746375|1.093187094256488|0.01048338738017609|0.07519144939302586|-0.8786377906799316|-1.357161998748779|-1.744311571121216|-0.1740119457244873|0.3201166689395905|0.1890293955802917|XArbitraryZVertical|0.02938743273087668|0.02401142841554919|0.5195739759488635|0.853582395094231|0.01045357435941696|-0.07512062042951584|-0.997119665145874|0|0|0|-1|-1|3
2021-04-22 22:03:17.605 +0100|141124.077669375|-0.11376953125|0.33599853515625|-1.232269287109375|141124.057707375|1.059784335824197|-0.01751011191120756|0.06227996887827412|-0.5001075863838196|-1.675423622131348|-1.599145889282227|-0.08790136873722076|0.3568878769874573|0.05877548456192017|XArbitraryZVertical|0.03128707908230095|0.008185611902476391|0.5049406792336142|0.8625480475335923|-0.01747527159750462|-0.06223971396684647|-0.9979082345962524|0|0|0|-1|-1|3
2021-04-22 22:03:17.625 +0100|141124.097630375|-0.0418701171875|0.25238037109375|-1.49700927734375|141124.077669375|1.028606425239632|-0.05088423441184511|0.05625458934683514|-0.1719777286052704|-1.803968787193298|-1.472471952438354|-0.06384168565273285|0.4022952318191528|-0.1585901975631714|XArbitraryZVertical|0.03698686850258146|-0.008309355839308114|0.4909516879371553|0.8703617101246752|-0.05078181996941566|-0.05622492358088493|-0.9971258640289307|0|0|0|-1|-1|3
2021-04-22 22:03:17.645 +0100|141124.117592375|0.0775909423828125|0.0322418212890625|-1.671188354492188|141124.097630375|1.002095529865999|-0.08426086544558735|0.05800613597748228|0.2243012189865112|-1.693214893341064|-1.204679131507874|0.01552342623472214|0.3459537029266357|-0.4277092218399048|XArbitraryZVertical|0.04563450562313749|-0.02300812498187553|0.4786454529203038|0.8765196442287894|-0.08401964604854584|-0.05797361209988594|-0.9947762489318848|0|0|0|-1|-1|3
2021-04-22 22:03:17.665 +0100|141124.137553375|0.07977294921875|-0.130767822265625|-1.557281494140625|141124.117592375|0.9799015477727658|-0.1162026762359137|0.07026470563675527|0.7767617702484131|-1.665428400039673|-1.14422070980072|0.1635072827339172|0.1756003499031067|-0.6467681527137756|XArbitraryZVertical|0.05824978405441731|-0.03470423514373926|0.4676987429281899|0.8812835809216035|-0.115655243396759|-0.0702069029211998|-0.9908051490783691|0|0|0|-1|-1|3
2021-04-22 22:03:17.685 +0100|141124.157514375|0.013702392578125|-0.1851959228515625|-1.442840576171875|141124.137553375|0.9590451205982335|-0.1468812384308167|0.08885240869580414|0.7046193480491638|-1.551382303237915|-1.173327445983887|0.2422275543212891|-0.008339881896972656|-0.5998294353485107|XArbitraryZVertical|0.07311481297493293|-0.04460054680642548|0.4567668628180426|0.8854542738383079|-0.1457763314247131|-0.08873554319143295|-0.9853300452232361|0|0|0|-1|-1|3
2021-04-22 22:03:17.705 +0100|141124.177475375|-0.0177001953125|-0.1391448974609375|-1.346893310546875|141124.157514375|0.9371490477054373|-0.1736825356146953|0.1046952747139687|0.4828901290893555|-1.343533158302307|-1.242111921310425|0.2032673954963684|-0.08685535192489624|-0.4991217255592346|XArbitraryZVertical|0.08562386047776721|-0.05373642339886722|0.4452477577979591|0.8896828532817805|-0.1718644201755524|-0.1045041158795357|-0.9795619249343872|0|0|0|-1|-1|3
2021-04-22 22:03:17.725 +0100|141124.197436375|-0.0267486572265625|-0.07904052734375|-1.265274047851562|141124.177475375|0.9139817243456229|-0.1953876020072128|0.1176996109691001|0.3882162868976593|-1.100864171981812|-1.251956939697266|0.1762481331825256|-0.04544325172901154|-0.3979612588882446|XArbitraryZVertical|0.09549305220892851|-0.06154924720184026|0.4332373933471488|0.8940907916972036|-0.1928035467863083|-0.1174280494451523|-0.9741855263710022|0|0|0|-1|-1|3
2021-04-22 22:03:17.745 +0100|141124.217397375|-0.05780029296875|-0.064666748046875|-1.1927490234375|141124.197436375|0.8909649248316653|-0.2130086138784963|0.1306308312158692|0.4286500513553619|-0.9589536190032959|-1.257324814796448|0.1870023608207703|0.04104249179363251|-0.3121936917304993|XArbitraryZVertical|0.104272789093572|-0.06775903982528955|0.421277033565522|0.8983661087312711|-0.2096003144979477|-0.1302596181631088|-0.9690718054771423|0|0|0|-1|-1|3
2021-04-22 22:03:17.765 +0100|141124.237359375|-0.0925750732421875|-0.088592529296875|-1.134124755859375|141124.217397375|0.8677009651369892|-0.2280189070777702|0.1447461560922392|0.4236092567443848|-0.8735419511795044|-1.315960288047791|0.1727354824542999|0.08065889775753021|-0.2430257797241211|XArbitraryZVertical|0.1128816608095057|-0.07275333312862355|0.4090812630518594|0.9025615603355657|-0.2236842662096024|-0.1442412436008453|-0.9639293551445007|0|0|0|-1|-1|3
2021-04-22 22:03:17.787 +0100|141124.257320375|-0.1696624755859375|-0.0750732421875|-1.068801879882812|141124.237359375|0.8424202884347594|-0.2412550141303548|0.1585089867260822|0.329672783613205|-0.846474289894104|-1.445399284362793|0.155054971575737|0.0760294646024704|-0.1941954493522644|XArbitraryZVertical|0.1207729369349693|-0.07733728514989668|0.3959255344377146|0.907014760731665|-0.2359263002872467|-0.157846063375473|-0.9588657021522522|0|0|0|-1|-1|3
2021-04-22 22:03:17.805 +0100|141124.277281375|-0.256866455078125|-0.025390625|-1.014205932617188|141124.257320375|0.8147255589468552|-0.2534010313501812|0.1707976489533604|0.1954019963741302|-0.824018120765686|-1.491124272346497|0.09803295135498047|0.08496275544166565|-0.1335908770561218|XArbitraryZVertical|0.1275682506374768|-0.08207654392604422|0.3816852152280388|0.9117599846572849|-0.2470500469207764|-0.1699684411287308|-0.9539795517921448|0|0|0|-1|-1|3
2021-04-22 22:03:17.825 +0100|141124.297243375|-0.2984161376953125|-0.014739990234375|-0.94268798828125|141124.277281375|0.786042623262653|-0.2643840559540424|0.1812685859476849|0.1397331207990646|-0.7802248597145081|-1.504615426063538|0.01772996783256531|0.1525533348321915|-0.06595760583877563|XArbitraryZVertical|0.1331524665962761|-0.08689682151674201|0.3670611610277318|0.9165073015453218|-0.2570333480834961|-0.1802775263786316|-0.949438750743866|0|0|0|-1|-1|3
2021-04-22 22:03:17.845 +0100|141124.317204375|-0.319122314453125|-0.0221710205078125|-0.80548095703125|141124.297243375|0.7570218793652913|-0.2740719948582845|0.191273921425092|0.0326845645904541|-0.7213058471679688|-1.529378890991211|-0.02592337131500244|0.1768661588430405|-0.01331502199172974|XArbitraryZVertical|0.1381510012861821|-0.09140104189078092|0.3522785853297947|0.9211189015135204|-0.2657177448272705|-0.1901097446680069|-0.9451202750205994|0|0|0|-1|-1|3
2021-04-22 22:03:17.865 +0100|141124.337165375|-0.44354248046875|-0.0680084228515625|-0.6322021484375|141124.317204375|0.7253080193355812|-0.2833125916602728|0.1984180722406671|-0.2278879433870316|-0.8736193180084229|-1.692699074745178|-0.0351051390171051|0.1709509193897247|0.0863615870475769|XArbitraryZVertical|0.1415160387833083|-0.09656577349197917|0.3364023588473375|0.9260031532760772|-0.2740530669689178|-0.1971186846494675|-0.9412965178489685|0|0|0|-1|-1|3
2021-04-22 22:03:17.885 +0100|141124.357127375|-0.573272705078125|-0.1027679443359375|-0.4044952392578125|141124.337165375|0.687834557970266|-0.2976423289760736|0.200825046081084|-0.6439625024795532|-1.282504320144653|-1.851514101028442|-0.1157030761241913|0.1488197147846222|0.2527800798416138|XArbitraryZVertical|0.1430728331296687|-0.105460250182115|0.3177779213461459|0.931356902357791|-0.2873730361461639|-0.1994778662919998|-0.9368165731430054|0|0|0|-1|-1|3
2021-04-22 22:03:17.905 +0100|141124.377088375|-0.65313720703125|-0.15484619140625|-0.2090301513671875|141124.357127375|0.6450378877024671|-0.3166130723192035|0.1947770424121943|-1.245165467262268|-1.49147641658783|-2.016233444213867|-0.2442049384117126|0.1056734919548035|0.4661546349525452|XArbitraryZVertical|0.1407982739702092|-0.1183756272229789|0.296971840934803|0.9370010248083778|-0.3054624199867249|-0.1935478001832962|-0.9323261380195618|0|0|0|-1|-1|3
2021-04-22 22:03:17.925 +0100|141124.397049375|-0.7487945556640625|-0.11273193359375|-0.021240234375|141124.377088375|0.5934491612141642|-0.3396115886958185|0.1751919787617148|-2.309372663497925|-1.786201119422913|-2.127735614776611|-0.3023950457572937|0.02561661601066589|0.6788785457611084|XArbitraryZVertical|0.1316793702662745|-0.1357747934252875|0.2729413696101134|0.9432544240425712|-0.3280218541622162|-0.1742971837520599|-0.9284514784812927|0|0|0|-1|-1|3
2021-04-22 22:03:17.945 +0100|141124.417011375|-0.8061065673828125|-0.0844268798828125|0.1249237060546875|141124.397049375|0.5324427188385766|-0.3695946936374536|0.1357091983940898|-3.483305931091309|-2.160773515701294|-2.167693614959717|-0.3698671162128448|0.006769329309463501|0.8541827797889709|XArbitraryZVertical|0.1125306436902754|-0.1593320076357806|0.245993562481636|0.9494405793758098|-0.3579161763191223|-0.1352930217981339|-0.923900306224823|0|0|0|-1|-1|3
2021-04-22 22:03:17.965 +0100|141124.436972375|-0.8511810302734375|-0.121368408203125|0.1940155029296875|141124.417011375|0.4602461974143257|-0.4077091920892008|0.07799557644519295|-4.591264247894287|-2.419770479202271|-2.31634783744812|-0.3999100029468536|-0.005197003483772278|1.011142134666443|XArbitraryZVertical|0.08331629437456108|-0.1882500360221292|0.2155195829580382|0.9545531378648321|-0.3953019082546234|-0.07791652530431747|-0.9152406454086304|0|0|0|-1|-1|3
2021-04-22 22:03:17.985 +0100|141124.456933375|-0.9032135009765625|0.057891845703125|0.2523193359375|141124.436972375|0.3740362764346397|-0.4547118444878243|0.005142145932104499|-5.623757839202881|-2.674409866333008|-2.438820600509644|-0.4013024270534515|-0.1159657910466194|1.069091200828552|XArbitraryZVertical|0.04437008726063371|-0.2210054519356796|0.1805750608078555|0.9573822631476729|-0.4391976594924927|-0.005142123438417912|-0.8983757495880127|0|0|0|-1|-1|3
2021-04-22 22:03:18.005 +0100|141124.476895375|-0.976593017578125|0.6282958984375|-0.055267333984375|141124.456933375|0.2756820286191413|-0.5144402738208909|-0.07803032051232189|-6.213659763336182|-2.925723552703857|-2.378916025161743|-0.3931015729904175|-0.1175313740968704|1.153396248817444|XArbitraryZVertical|-0.002435964278777763|-0.2569716241097146|0.1426118506368231|0.9558355666897984|-0.4905504286289215|0.07795116305351257|-0.8679193258285522|0|0|0|-1|-1|3
2021-04-22 22:03:18.024 +0100|141124.496856375|-0.99365234375|0.920257568359375|-0.5412139892578125|141124.476895375|0.1722747862948955|-0.5856780928857331|-0.156919622771537|-5.727364063262939|-2.918060302734375|-2.318984985351562|-0.4164907336235046|0.3388112783432007|0.8484285473823547|XArbitraryZVertical|-0.05000608680851647|-0.2931724879409289|0.1046570096031666|0.9489975861301676|-0.545973002910614|0.1562764197587967|-0.8230985403060913|0|0|0|-1|-1|3
2021-04-22 22:03:18.044 +0100|141124.516817375|-0.9957733154296875|0.6771087646484375|-0.837066650390625|141124.496856375|0.07176080282572335|-0.6623641784762445|-0.2138069165925547|-4.693746089935303|-2.904788732528687|-2.361292123794556|-0.3898652195930481|0.6780781149864197|0.3480092883110046|XArbitraryZVertical|-0.08923896283149935|-0.3267163416493154|0.06840199954946456|0.9384105046979228|-0.6009798645973206|0.2121816575527191|-0.7705856561660767|0|0|0|-1|-1|3
2021-04-22 22:03:18.064 +0100|141124.536779375|-0.9359588623046875|0.346588134765625|-1.016311645507812|141124.516817375|-0.02170925992734722|-0.7405034616225609|-0.2523735618876534|-4.439088344573975|-2.743608951568604|-2.076183319091797|-0.3389150500297546|0.5139392614364624|-0.05719459056854248|XArbitraryZVertical|-0.1212134800819186|-0.357678396854214|0.03549850288480547|0.9252639987881258|-0.6532880663871765|0.2497030347585678|-0.71474689245224|0|0|0|-1|-1|3
2021-04-22 22:03:18.084 +0100|141124.556740375|-0.77899169921875|0.4184722900390625|-1.079986572265625|141124.536779375|-0.1219663320358527|-0.8187616093039755|-0.2939691798492606|-5.405902862548828|-2.376567125320435|-1.8972088098526|-0.2720676064491272|0.1101193130016327|-0.3497183322906494|XArbitraryZVertical|-0.15810131807757|-0.384829156445045|0.002880686243888171|0.9093417571812543|-0.6989715695381165|0.2897534072399139|-0.6538209915161133|0|0|0|-1|-1|3
2021-04-22 22:03:18.104 +0100|141124.576701375|-0.7883453369140625|0.7271270751953125|-1.125625610351562|141124.556740375|-0.2447482136629659|-0.9013919779846628|-0.3449141233627611|-6.706265449523926|-2.033744096755981|-1.859564185142517|-0.07305991649627686|0.03967726230621338|-0.4673411250114441|XArbitraryZVertical|-0.2056961797976554|-0.4070656605742502|-0.03405955374591839|0.8892844034690954|-0.7380061149597168|0.3381158709526062|-0.5839732885360718|0|0|0|-1|-1|3
2021-04-22 22:03:18.124 +0100|141124.596663375|-0.8501129150390625|0.8752288818359375|-0.923431396484375|141124.576701375|-0.3941491204725568|-0.9928528527293728|-0.3998694474323116|-7.800341129302979|-1.635620355606079|-1.809340119361877|0.002804577350616455|0.2745209336280823|-0.6310858130455017|XArbitraryZVertical|-0.2626512534835119|-0.4235698391540981|-0.07597456398997636|0.8636150671162937|-0.7715122103691101|0.3892980813980103|-0.5032058358192444|0|0|0|-1|-1|3
2021-04-22 22:03:18.144 +0100|141124.616624375|-0.8765411376953125|1.194580078125|-0.748748779296875|141124.596663375|-0.5691611555863704|-1.092609285737898|-0.4507282104662167|-8.475946426391602|-1.140470862388611|-1.813547611236572|-0.04531955718994141|0.4080836176872253|-0.5560463070869446|XArbitraryZVertical|-0.3254300087670549|-0.4324218770939071|-0.1223988131460357|0.8319407679231445|-0.799163281917572|0.4356211423873901|-0.4142132699489594|0|0|0|-1|-1|3
2021-04-22 22:03:18.164 +0100|141124.636585375|-1.003463745117188|1.491455078125|-0.6173553466796875|141124.616624375|-0.7572705410097953|-1.198758043259161|-0.4909115383776815|-8.600860595703125|-0.9430875778198242|-1.345041513442993|-0.0337148904800415|0.5793821215629578|-0.5053871870040894|XArbitraryZVertical|-0.3887107970992393|-0.434294039932299|-0.1686956604447828|0.7948801746684125|-0.8215711116790771|0.4714299738407135|-0.3205852210521698|0|0|0|-1|-1|3
2021-04-22 22:03:18.184 +0100|141124.656547375|-0.8874359130859375|1.956634521484375|-0.4759979248046875|141124.636585375|-0.9696653549400748|-1.318979468527048|-0.5338633635521044|-10.13375091552734|-0.6610133051872253|-0.3504193723201752|-0.169003427028656|1.068835020065308|-0.5681756734848022|XArbitraryZVertical|-0.459884869390784|-0.4257461773417572|-0.2122939278911009|0.7497850006200448|-0.8336977362632751|0.5088629126548767|-0.2144922018051147|0|0|0|-1|-1|3
2021-04-22 22:03:18.204 +0100|141124.676508375|-0.7440338134765625|2.924118041992188|-1.4324951171875|141124.656547375|-1.20430061320342|-1.461571830632542|-0.5718851325752108|-9.231742858886719|-1.113727688789368|0.5160027146339417|-0.06277990341186523|1.137095928192139|-0.2474324107170105|XArbitraryZVertical|-0.5358024695800785|-0.408759693592723|-0.2495040281634989|0.6953985903464222|-0.8358715772628784|0.5412181615829468|-0.0916624516248703|0|0|0|-1|-1|3
2021-04-22 22:03:18.224 +0100|141124.696470375|-0.695526123046875|1.337493896484375|-1.775543212890625|141124.676508375|-1.350684644819167|-1.556384999688482|-0.5948614841685758|-3.070569515228271|-0.2689151763916016|0.9271553158760071|-0.002487421035766602|2.3162841796875|-1.193522930145264|XArbitraryZVertical|-0.5824932722670382|-0.3933622672224387|-0.2651125950403375|0.6600630916816596|-0.8281404376029968|0.5603940486907959|-0.01193542871624231|0|0|0|-1|-1|3
2021-04-22 22:03:18.244 +0100|141124.716431375|-0.82672119140625|0.3345184326171875|-0.6903076171875|141124.696470375|-1.37968988487935|-1.576576215027749|-0.6159584147163631|0.1370135992765427|-0.1299048662185669|1.084593772888184|0.1858810782432556|1.208162546157837|-1.886674404144287|XArbitraryZVertical|-0.5949361363928499|-0.385239940316114|-0.2617869084456103|0.6550641011386088|-0.816206693649292|0.5777410864830017|0.004717635922133923|0|0|0|-1|-1|3
2021-04-22 22:03:18.264 +0100|141124.736392375|-0.675323486328125|0.6518096923828125|-0.2772216796875|141124.716431375|-1.377215561974064|-1.578282581087506|-0.63843061075772|-0.4545957744121552|-0.3124512434005737|1.232727885246277|-0.02108734846115112|-0.1052440404891968|-1.018888831138611|XArbitraryZVertical|-0.598931841852135|-0.3798505914731292|-0.2530600793763175|0.6579930240525073|-0.803009569644928|0.5959358811378479|0.006011646240949631|0|0|0|-1|-1|3
2021-04-22 22:03:18.288 +0100|141124.756354375|-0.2357330322265625|0.985748291015625|-0.0516204833984375|141124.736392375|-1.409864055496524|-1.609141381923967|-0.6647447934381626|-1.828632831573486|-0.7397766709327698|1.429264187812805|0.02125203609466553|-0.1920080780982971|-0.4478354454040527|XArbitraryZVertical|-0.6136673314414177|-0.3721544200857256|-0.2456676697338244|0.6515834098233887|-0.7864957451820374|0.6168583035469055|0.03017301298677921|0|0|0|-1|-1|3
2021-04-22 22:03:18.304 +0100|141124.776315375|-0.2109222412109375|0.9681396484375|-0.054931640625|141124.756354375|-1.45204793545232|-1.657176692348314|-0.6928585996012709|-1.16502857208252|-1.489016532897949|1.514801740646362|0.4642472863197327|0.3354731798171997|-0.06554007530212402|XArbitraryZVertical|-0.6318391173613485|-0.3660185236772174|-0.234952594232798|0.6415662176372318|-0.7665547132492065|0.638739287853241|0.06638045608997345|0|0|0|-1|-1|3
2021-04-22 22:03:18.324 +0100|141124.796276375|-0.2211456298828125|1.012588500976562|-0.34381103515625|141124.796276375|-1.45600424488587|-1.727130533742949|-0.7537464169883754|1.902561783790588|-1.618350148200989|1.477007746696472|0.5098651051521301|0.3013423085212708|-0.3562445640563965|XArbitraryZVertical|-0.6487980314327707|-0.3685420433607263|-0.1931418549052748|0.6371296838799406|-0.7202382683753967|0.6843751668930054|0.1135242432355881|0|0|0|-1|-1|3
2021-04-22 22:03:18.343 +0100|141124.816238375|-0.177886962890625|0.8892059326171875|-0.4704132080078125||||||||||||||||||||||||3
2021-04-22 22:03:18.364 +0100|141124.836199375|-0.14208984375|0.447967529296875|-0.3201751708984375|141124.816238375|-1.376280004300286|-1.697534177849932|-0.7932279817112839|4.099331378936768|-0.988372802734375|1.640822887420654|0.4965658187866211|0.2569674849510193|-0.5597430467605591|XArbitraryZVertical|-0.6368307882850157|-0.3725372816251516|-0.1632319219315292|0.6549946513869004|-0.6959220767021179|0.7126215696334839|0.08867495507001877|0|0|0|-1|-1|3
2021-04-22 22:03:18.384 +0100|141124.856160375|-0.167144775390625|0.42041015625|-0.2266387939453125|141124.836199375|-1.256497735316576|-1.62562639421783|-0.8356670597657005|4.071583271026611|-0.5854145884513855|1.847879767417908|0.5287449359893799|-0.2043144106864929|-0.4047806262969971|XArbitraryZVertical|-0.6157962597689288|-0.3730583786680826|-0.1308598505845124|0.6815409938457087|-0.6696751713752747|0.7417440414428711|0.03675517439842224|0|0|0|-1|-1|3
2021-04-22 22:03:18.403 +0100|141124.876122375|-0.1996002197265625|0.7280731201171875|-0.097869873046875|141124.856160375|-1.154794263705407|-1.558455637157172|-0.8761638537228785|2.714405059814453|-0.3679482936859131|2.06074857711792|0.482202410697937|-0.3853390216827393|-0.2395972013473511|XArbitraryZVertical|-0.6002347251179017|-0.3684680654807452|-0.1018980733095764|0.7025429764487435|-0.6400548219680786|0.7682890295982361|-0.007899118587374687|0|0|0|-1|-1|3
2021-04-22 22:03:18.425 +0100|141124.896083375|-0.2682952880859375|0.9588165283203125|0.0017852783203125|141124.876122375|-1.07934934187029|-1.504484995951454|-0.9163380218083279|1.998376965522766|-0.1757871359586716|2.122164487838745|0.4111637473106384|-0.1475189328193665|-0.08634114265441895|XArbitraryZVertical|-0.5919496223305597|-0.3597604633563212|-0.07723482148340355|0.7170794849420148|-0.6073919534683228|0.7933778166770935|-0.04033610597252846|0|0|0|-1|-1|3
2021-04-22 22:03:18.444 +0100|141124.916044375|-0.4482269287109375|0.9322662353515625|0.023223876953125|141124.896083375|-1.010572982285685|-1.452138735541167|-0.9558381247438028|1.719287276268005|-0.1216393634676933|2.164784908294678|0.3368448615074158|0.1138208508491516|0.05218392610549927|XArbitraryZVertical|-0.5863270895271743|-0.3493888402077041|-0.05421042475166246|0.7288411298049542|-0.5728679895401001|0.8167975544929504|-0.06829596310853958|0|0|0|-1|-1|3
2021-04-22 22:03:18.466 +0100|141124.936006375|-0.642364501953125|1.177200317382812|0.1971435546875|141124.916044375|-0.9443695944714879|-1.399197737343813|-0.9919718174407949|1.386255264282227|-0.09142931550741196|2.002614498138428|0.1301925182342529|0.09175741672515869|0.08857554197311401|XArbitraryZVertical|-0.5818492082364092|-0.3387415084298883|-0.0331547331579946|0.7386518924067895|-0.539006233215332|0.8371062874794006|-0.09341137856245041|0|0|0|-1|-1|3
2021-04-22 22:03:18.483 +0100|141124.955967375|-0.794891357421875|1.682418823242188|0.265350341796875|141124.936006375|-0.8869934698361106|-1.351917863029089|-1.027872038402064|1.017072916030884|-0.02529461309313774|2.107968091964722|-0.08987665176391602|0.2292783856391907|0.3030850291252136|XArbitraryZVertical|-0.5801892645897226|-0.327551322019826|-0.01368382174698302|0.7455893230664062|-0.504315972328186|0.8562015295028687|-0.1121810972690582|0|0|0|-1|-1|3
2021-04-22 22:03:18.503 +0100|141124.975928375|-0.9020538330078125|1.802886962890625|0.130218505859375|141124.955967375|-0.8050393655436058|-1.283039107454705|-1.060697868917716|2.134474754333496|-0.1624670028686523|2.141784906387329|-0.2785780131816864|0.6410976648330688|0.4133517742156982|XArbitraryZVertical|-0.5750967535204468|-0.3161939077530128|0.007764227743555084|0.7544699480446204|-0.4681872427463531|0.8726964592933655|-0.1385702788829803|0|0|0|-1|-1|3
2021-04-22 22:03:18.523 +0100|141124.995890375|-0.765350341796875|1.373855590820312|0.1151580810546875|141124.975928375|-0.664721722495965|-1.159526315352706|-1.080027377007336|3.738873720169067|0.1910942047834396|1.940856337547302|-0.4714840650558472|1.001879692077637|0.3456581830978394|XArbitraryZVertical|-0.5599003841504046|-0.3038156886871655|0.03213120904936084|0.7701787708288774|-0.4320042431354523|0.8819707036018372|-0.1884151697158813|0|0|0|-1|-1|3
2021-04-22 22:03:18.543 +0100|141125.015851375|-0.64678955078125|1.029541015625|0.0609130859375|141124.995890375|-0.459651509777551|-0.9716677501366561|-1.068728767081996|5.179856777191162|0.5134825110435486|1.838905215263367|-0.4177346229553223|0.6029946804046631|0.3988702297210693|XArbitraryZVertical|-0.5300643960794351|-0.2886880437773391|0.0581956729016118|0.7951757015039003|-0.3974205255508423|0.8765894174575806|-0.2713818848133087|0|0|0|-1|-1|3
2021-04-22 22:03:18.563 +0100|141125.035812375|-0.5986785888671875|0.744903564453125|0.05621337890625|141125.015851375|-0.2468506394703834|-0.7757844310550869|-1.026687973923681|5.588051795959473|0.632403552532196|1.718622922897339|-0.2934277653694153|0.2671835422515869|0.432513952255249|XArbitraryZVertical|-0.4917142029226877|-0.2710115104729466|0.08506035748270971|0.823125018614805|-0.3625019490718842|0.8555892109870911|-0.3695397973060608|0|0|0|-1|-1|3
2021-04-22 22:03:18.583 +0100|141125.055774375|-0.497283935546875|0.6792449951171875|-0.0537567138671875|141125.035812375|-0.07445580905599239|-0.6162795907880488|-0.9630129743282612|5.166739463806152|0.855063796043396|1.448571801185608|-0.2873175740242004|-0.02986907958984375|0.5396207571029663|XArbitraryZVertical|-0.4510006759549328|-0.2521911192739588|0.1089254392311861|0.8491958353184794|-0.3300684094429016|0.8209158778190613|-0.4659960567951202|0|0|0|-1|-1|3
2021-04-22 22:03:18.603 +0100|141125.075735375|-0.428680419921875|0.7947235107421875|-0.518798828125|141125.055774375|0.04614741825361258|-0.5008110204815219|-0.8991814753475833|4.108866691589355|0.9283221364021301|1.235559225082397|-0.2276778221130371|-0.1116746664047241|0.5384349226951599|XArbitraryZVertical|-0.4157817504375399|-0.2328267935015651|0.1277939575379751|0.8698194770541851|-0.2987657785415649|0.7828178405761719|-0.5458344221115112|0|0|0|-1|-1|3
2021-04-22 22:03:18.623 +0100|141125.095696375|-0.4404296875|0.8351898193359375|-0.5687713623046875|141125.075735375|0.1323147796535892|-0.4171622805974011|-0.8326280812154782|4.587191581726074|0.9662359952926636|0.8415173292160034|-0.1557393968105316|0.01325851678848267|0.1576605439186096|XArbitraryZVertical|-0.3822415849563388|-0.2151253516173011|0.1427070653422191|0.8872695442841495|-0.272651195526123|0.7397024631500244|-0.6152248978614807|0|0|0|-1|-1|3
2021-04-22 22:03:18.643 +0100|141125.115658375|-0.4216766357421875|0.5593109130859375|-0.6651153564453125|141125.095696375|0.2002622072825163|-0.3453504913524423|-0.7442976546199667|5.145761013031006|1.322953820228577|0.338898777961731|-0.2042545676231384|0.1762747764587402|0.1194419264793396|XArbitraryZVertical|-0.3404162995631012|-0.1950634975935731|0.1538996187896038|0.9068528190946691|-0.2490078806877136|0.6774553656578064|-0.6921339631080627|0|0|0|-1|-1|3
2021-04-22 22:03:18.663 +0100|141125.135619375|-0.2121124267578125|0.34271240234375|-0.451812744140625|141125.115658375|0.2405223276854929|-0.2905590122562917|-0.6630047126865412|3.21660041809082|1.571066379547119|0.08641636371612549|-0.1980186104774475|0.03201985359191895|0.1222834587097168|XArbitraryZVertical|-0.3032868232080143|-0.1745333032140349|0.1590212850410235|0.9231834639909916|-0.2257944047451019|0.6154877543449402|-0.7551104426383972|0|0|0|-1|-1|3
2021-04-22 22:03:18.683 +0100|141125.155581375|-0.0783843994140625|0.34320068359375|-0.2623138427734375|141125.135619375|0.2576634822274073|-0.2460303955055775|-0.6274780816354958|0.6272914409637451|1.728036880493164|0.2071426063776016|-0.1031320691108704|-0.2340462803840637|0.279626190662384|XArbitraryZVertical|-0.288751714222178|-0.155098363128442|0.1588358723976199|0.9313100374284793|-0.1971610635519028|0.5871050953865051|-0.7851338982582092|0|0|0|-1|-1|3
2021-04-22 22:03:18.703 +0100|141125.1755425|-0.1515045166015625|0.3731231689453125|-0.4056549072265625|141125.155581375|0.2571954462546751|-0.2172302922842368|-0.63844086350449|-1.622880339622498|1.227238893508911|0.0463213212788105|0.1010053902864456|-0.2389638423919678|0.4536334276199341|XArbitraryZVertical|-0.2962015321830341|-0.142084459628995|0.1547856170405123|0.9317285998791985|-0.1730728298425674|0.5959441661834717|-0.7841533422470093|0|0|0|-1|-1|3
2021-04-22 22:03:18.723 +0100|141125.1955035|-0.2437286376953125|0.5977630615234375|-0.49847412109375|141125.1755425|0.2465573611268017|-0.2025120641035961|-0.6901021644919262|-3.43265962600708|0.9748409390449524|0.1491046845912933|0.0398889034986496|-0.2792084813117981|0.4575554728507996|XArbitraryZVertical|-0.3222611590663722|-0.1357829189255495|0.1490573942658613|0.9249285244652443|-0.155108168721199|0.6366159915924072|-0.7554214596748352|0|0|0|-1|-1|3
2021-04-22 22:03:18.743 +0100|141125.2154655|-0.0457305908203125|0.2977142333984375|-0.3860015869140625|141125.1955035|0.2296804188574761|-0.1921006390366283|-0.7677756750134099|-4.513408184051514|1.195206999778748|0.2010982930660248|-0.1129456162452698|-0.1346603035926819|0.1007248163223267|XArbitraryZVertical|-0.3601567456623465|-0.1310553176872685|0.1414396424425441|0.9127467756303353|-0.1373597532510757|0.6945366263389587|-0.7062232494354248|0|0|0|-1|-1|3
2021-04-22 22:03:18.763 +0100|141125.2354265|-0.082916259765625|-0.1572113037109375|-0.3241119384765625|141125.2154655|0.2043112072925263|-0.1856907011260398|-0.8666708649813182|-5.613184928894043|1.24062705039978|-0.1389334946870804|0.03150760382413864|-0.374527633190155|0.2455841302871704|XArbitraryZVertical|-0.4073313120605083|-0.1263401291437448|0.130880395173661|0.8949804214996838|-0.119520515203476|0.7621780037879944|-0.6362387537956238|0|0|0|-1|-1|3
2021-04-22 22:03:18.783 +0100|141125.2553875|-0.142181396484375|0.091705322265625|0.17010498046875|141125.2354265|0.151715687442034|-0.2050528504684452|-0.9916837518239386|-7.158629894256592|1.064733862876892|-0.5354248285293579|0.0537278950214386|-0.9121584892272949|0.138920783996582|XArbitraryZVertical|-0.4650905084104809|-0.1256292959397405|0.1148618979563324|0.8687433921874592|-0.1114368811249733|0.8369486331939697|-0.5358161926269531|0|0|0|-1|-1|3
2021-04-22 22:03:18.803 +0100|141125.2753495|-0.30938720703125|0.810760498046875|0.4141693115234375|141125.2553875|0.05260274293458433|-0.2721663173996974|-1.136778912457107|-8.113471031188965|0.8958330750465393|-0.6417548656463623|-0.009118728339672089|-0.9392350912094116|0.5008817911148071|XArbitraryZVertical|-0.5301078107442089|-0.1283183467538041|0.0949576003140333|0.832768404660484|-0.1130433976650238|0.9072836637496948|-0.4050402343273163|0|0|0|-1|-1|3
2021-04-22 22:03:18.823 +0100|141125.2953105|-0.298248291015625|1.482986450195312|0.4836273193359375|141125.2753495|-0.1422219099801117|-0.4378244996753572|-1.290457745549471|-8.398262023925781|0.934644341468811|-0.3821016848087311|-0.1621144562959671|-0.3633966445922852|0.5787864923477173|XArbitraryZVertical|-0.5978730249323467|-0.1313614399934594|0.07485823221597666|0.7872029718471658|-0.1173047944903374|0.9609618186950684|-0.2505840361118317|0|0|0|-1|-1|3
2021-04-22 22:03:18.843 +0100|141125.3152715|-0.2942962646484375|1.33154296875|0.41094970703125|141125.2953105|-0.6040597748341932|-0.8705259769940832|-1.412757176633893|-6.847898960113525|0.9275039434432983|-0.3576588332653046|-0.1861115396022797|0.4022635817527771|0.6328104734420776|XArbitraryZVertical|-0.65733179732938|-0.1311638161267427|0.05611284555167141|0.7399747269071018|-0.120346300303936|0.9875378012657166|-0.1014219224452972|0|0|0|-1|-1|3
2021-04-22 22:03:18.863 +0100|141125.3352335|-0.230194091796875|1.169586181640625|0.5533905029296875|141125.3152715|-1.406040604039885|-1.647138410988394|-1.441186026721064|-4.873349666595459|0.8687914609909058|-0.5536238551139832|-0.1726409196853638|0.4125778079032898|0.3534096479415894|XArbitraryZVertical|-0.6984778879318062|-0.1306041300922254|0.03910815666669246|0.7025254343992352|-0.1288730800151825|0.9916123151779175|0.009857597760856152|0|0|0|-1|-1|3
2021-04-22 22:03:18.883 +0100|141125.3551945|-0.332244873046875|1.1810302734375|0.542999267578125|141125.3352335|-1.93686717059766|-2.156765232978294|-1.401495859772968|-3.865442276000977|0.6561760306358337|-0.4887318015098572|-0.09605078399181366|0.196624219417572|0.4487545490264893|XArbitraryZVertical|-0.7277167543099121|-0.1304501083276662|0.02417257457678118|0.6729240728906811|-0.1403844654560089|0.9857028722763062|0.09317781031131744|0|0|0|-1|-1|3
2021-04-22 22:03:18.903 +0100|141125.3751555|-0.4360809326171875|1.203079223632812|0.549041748046875|141125.3551945|-2.185367887857048|-2.388979275458145|-1.349463233438371|-3.147754907608032|0.5871042609214783|-0.3578190505504608|-0.1490585505962372|0.1969863176345825|0.3650332689285278|XArbitraryZVertical|-0.7504230133752053|-0.130320919688805|0.01252630111718572|0.6478617834938795|-0.1500598341226578|0.9756056666374207|0.1602364778518677|0|0|0|-1|-1|3
2021-04-22 22:03:18.923 +0100|141125.3951175|-0.4344635009765625|1.05181884765625|0.52752685546875|141125.3751555|-2.311283356403184|-2.499536254802694|-1.30318188446169|-2.421800374984741|0.618984043598175|-0.3062876164913177|-0.2563650906085968|0.2440916895866394|0.3378780484199524|XArbitraryZVertical|-0.7675891613564501|-0.1292073583158377|0.002523051040390456|0.6277788377117219|-0.1583539545536041|0.9644044637680054|0.2117753177881241|0|0|0|-1|-1|3
2021-04-22 22:03:18.943 +0100|141125.4150785|-0.385162353515625|1.02838134765625|0.4890289306640625|141125.3951175|-2.380811866828269|-2.553053859089369|-1.263447492903715|-1.969868540763855|0.7013627290725708|-0.3802647888660431|-0.2809487581253052|0.1384133696556091|0.2831587195396423|XArbitraryZVertical|-0.7807084013246837|-0.1277129953019244|-0.007503540661918281|0.6116596035854779|-0.167949914932251|0.9531390070915222|0.251632422208786|0|0|0|-1|-1|3
2021-04-22 22:03:18.963 +0100|141125.4350395|-0.4320068359375|1.208724975585938|0.4481048583984375|141125.4150785|-2.423871652384523|-2.578858278725903|-1.228206647392482|-1.777081489562988|0.7666975259780884|-0.3615592122077942|-0.2141543328762054|0.07460647821426392|0.2213822305202484|XArbitraryZVertical|-0.7913291995591925|-0.1259434350765742|-0.01806327717243425|0.5980050928597703|-0.1792176216840744|0.9418878555297852|0.2841272950172424|0|0|0|-1|-1|3
2021-04-22 22:03:18.982 +0100|141125.4550015|-0.477691650390625|1.312835693359375|0.415557861328125|141125.4350395|-2.45797313400421|-2.595617968011561|-1.197047020283884|-1.417539596557617|0.7894094586372375|-0.2285803705453873|-0.2210004031658173|0.223438560962677|0.142530232667923|XArbitraryZVertical|-0.8004682390482439|-0.1235547552444225|-0.02799511609680815|0.5858338922005715|-0.1895835250616074|0.9309650063514709|0.3120303452014923|0|0|0|-1|-1|3
2021-04-22 22:03:19.002 +0100|141125.4749625|-0.395721435546875|1.190277099609375|0.33544921875|141125.4550015|-2.477778276835827|-2.595946124876164|-1.178938064614373|-0.5446674227714539|1.025186896324158|-0.115942157804966|-0.2808059453964233|0.3848958611488342|0.09522718191146851|XArbitraryZVertical|-0.805612794108535|-0.1192196619300865|-0.03730873440172401|0.5791224083208446|-0.1981983482837677|0.9242009520530701|0.3264506161212921|0|0|0|-1|-1|3
2021-04-22 22:03:19.022 +0100|141125.4949235|-0.278564453125|1.140609741210938|0.20208740234375|141125.4749625|-2.479051976912305|-2.574250793736946|-1.17344504965013|-0.0349440798163414|1.239708423614502|-0.1256603896617889|-0.2234533429145813|0.3074331283569336|0.03023287653923035|XArbitraryZVertical|-0.8064077888700077|-0.1134984850235138|-0.04753183491428543|0.5784162916611038|-0.2079588323831558|0.9220892190933228|0.3263508677482605|0|0|0|-1|-1|3
2021-04-22 22:03:19.042 +0100|141125.5148855|-0.2411346435546875|1.083526611328125|0.1684722900390625|141125.4949235|-2.473728949875426|-2.543928957129217|-1.172394334689123|0.01977350935339928|1.290110349655151|-0.09842884540557861|-0.07785588502883911|0.2202548384666443|-0.08622932434082031|XArbitraryZVertical|-0.8055332718406947|-0.107072988301916|-0.05842566963595628|0.5798604266509962|-0.2183024138212204|0.9216821193695068|0.3206969499588013|0|0|0|-1|-1|3
2021-04-22 22:03:19.063 +0100|141125.5348465|-0.204345703125|1.055435180664062|0.190826416015625|141125.5148855|-2.468650946522486|-2.513217187818613|-1.171558173440417|-0.03207192569971085|1.321708202362061|-0.1289369612932205|-0.02183617651462555|0.1758407354354858|-0.1518515646457672|XArbitraryZVertical|-0.8044613494703214|-0.1003730531535054|-0.06948828950535739|0.5813249498582543|-0.2285000085830688|0.9213573932647705|0.3144656121730804|0|0|0|-1|-1|3
2021-04-22 22:03:19.082 +0100|141125.5548085|-0.149932861328125|1.173812866210938|0.2085418701171875|141125.5348465|-2.468283083170267|-2.48667211501993|-1.166140339745128|-0.3994941711425781|1.291135430335999|-0.1961762756109238|0.02532504498958588|0.1240510940551758|-0.1318692862987518|XArbitraryZVertical|-0.80454688328174|-0.09394996642313458|-0.08121237405109802|0.5807602449172616|-0.23980313539505|0.9192379117012024|0.3122445642948151|0|0|0|-1|-1|3
2021-04-22 22:03:19.102 +0100|141125.5747695|-0.087127685546875|1.302108764648438|0.12078857421875|141125.5548085|-2.474771105663183|-2.467857603034769|-1.155679425235389|-0.5171852111816406|1.176294207572937|-0.2448805123567581|0.08641356229782104|0.2285156846046448|-0.09819459915161133|XArbitraryZVertical|-0.8061150699966104|-0.0881267091757854|-0.09291036206299297|0.5777369660313646|-0.2516210079193115|0.9150691628456116|0.3151756525039673|0|0|0|-1|-1|3
2021-04-22 22:03:19.122 +0100|141125.5947305|0.0745391845703125|1.316818237304688|-0.10113525390625|141125.5747695|-2.475283186570265|-2.446159667983637|-1.146189197100743|-0.1552038788795471|1.035124182701111|-0.3595083057880402|0.1552939116954803|0.3562246561050415|-0.1650343835353851|XArbitraryZVertical|-0.8069313768065637|-0.08372354781626906|-0.1038539202119794|0.5753839268327057|-0.2639523446559906|0.9112006425857544|0.3162957727909088|0|0|0|-1|-1|3
2021-04-22 22:03:19.142 +0100|141125.6146925|0.0684661865234375|0.880950927734375|-0.14215087890625|141125.5947305|-2.451248881763453|-2.406325767847027|-1.142023308457731|0.6434064507484436|0.6637389063835144|-0.7102970480918884|0.3072331547737122|0.470024585723877|-0.3633073270320892|XArbitraryZVertical|-0.8045540003434658|-0.08286100557685697|-0.1138966475390212|0.5769356309569041|-0.2788829505443573|0.9094765782356262|0.3083461821079254|0|0|0|-1|-1|3
2021-04-22 22:03:19.162 +0100|141125.6346535|0.0570831298828125|1.083587646484375|-0.213653564453125|141125.6146925|-2.399012681201711|-2.350989274485835|-1.141317823408672|0.4438787400722504|0.180773064494133|-0.8464068174362183|0.3801480233669281|0.03220760822296143|-0.4570231735706329|XArbitraryZVertical|-0.7991980079521623|-0.08793666771756284|-0.1211112241261955|0.5821356212500117|-0.2959658205509186|0.9091830253601074|0.2929006218910217|0|0|0|-1|-1|3
2021-04-22 22:03:19.182 +0100|141125.6546145|-0.0084228515625|1.387771606445312|-0.3182830810546875|141125.6346535|-2.37023680159224|-2.325391428036731|-1.129943481823169|-0.218058243393898|-0.2066797912120819|-0.7880940437316895|0.3729829490184784|0.08889782428741455|-0.4781000316143036|XArbitraryZVertical|-0.7982273917042876|-0.09476504154386536|-0.125705672466431|0.5814214659216508|-0.3108802735805511|0.9043880701065063|0.2922947704792023|0|0|0|-1|-1|3
2021-04-22 22:03:19.202 +0100|141125.6745765|-0.1334991455078125|1.421615600585938|-0.237701416015625|141125.6546145|-2.346339662050212|-2.310319356199082|-1.118935181068651|0.4006401598453522|-0.4269642531871796|-0.7258131504058838|0.3314356505870819|0.4415044188499451|-0.6058056354522705|XArbitraryZVertical|-0.7978672855812826|-0.1026732011265956|-0.1274947707305884|0.5801820793190183|-0.3225861191749573|0.8996360301971436|0.2942679822444916|0|0|0|-1|-1|3
2021-04-22 22:03:19.222 +0100|141125.6945375|-0.13775634765625|1.273773193359375|-0.1196746826171875|141125.6745765|-2.296399073300547|-2.274296055197294|-1.120432859415918|1.305974245071411|-0.4205162525177002|-0.6187975406646729|0.2286597192287445|0.5286046266555786|-0.5317078828811646|XArbitraryZVertical|-0.7926716164659264|-0.1116474537968366|-0.1268817577882114|0.5857539100592445|-0.33194699883461|0.9002889394760132|0.2815868854522705|0|0|0|-1|-1|3
2021-04-22 22:03:19.242 +0100|141125.7144985|-0.1479339599609375|1.147994995117188|-0.0092010498046875|141125.6945375|-2.220643721228519|-2.214047064211566|-1.131169452665816|1.818099498748779|-0.4278803169727325|-0.5862585306167603|0.1929925084114075|0.4121819138526917|-0.4129897952079773|XArbitraryZVertical|-0.7829740080830374|-0.1207876644753419|-0.1253399598863937|0.5972034586428421|-0.3405454754829407|0.9049105048179626|0.2552759051322937|0|0|0|-1|-1|3
2021-04-22 22:03:19.262 +0100|141125.7344605|-0.2446746826171875|1.208221435546875|0.0855865478515625|141125.7144985|-2.136889357449355|-2.147705762389187|-1.143380539833059|1.72612476348877|-0.5512958765029907|-0.3731322288513184|0.2012978196144104|0.2412812113761902|-0.2643168866634369|XArbitraryZVertical|-0.7721272241161965|-0.1298727928685943|-0.1223984641163873|0.609894605235355|-0.3474318087100983|0.910040020942688|0.2260947823524475|0|0|0|-1|-1|3
2021-04-22 22:03:19.286 +0100|141125.7544215|-0.3023529052734375|1.144363403320312|0.1472015380859375|141125.7344605|-2.056993118356317|-2.086997109889596|-1.156920890773375|1.81619930267334|-0.6370763182640076|-0.1721439957618713|0.1337248682975769|0.285495400428772|-0.1329453587532043|XArbitraryZVertical|-0.7617486575220616|-0.1377971955232528|-0.1170346000602913|0.6221364649603019|-0.3497592210769653|0.9155691266059875|0.1984981745481491|0|0|0|-1|-1|3
2021-04-22 22:03:19.302 +0100|141125.7743825|-0.3377532958984375|1.042572021484375|0.2043609619140625|141125.7544215|-1.96683708222033|-2.016241529511492|-1.173546676062915|2.079805374145508|-0.5957674384117126|-0.003336691297590733|0.05381238460540771|0.2556666731834412|-0.03925025463104248|XArbitraryZVertical|-0.7499811489118894|-0.1444805874592362|-0.1102366914910083|0.636004432069629|-0.3491314649581909|0.9221285581588745|0.1666927337646484|0|0|0|-1|-1|3
2021-04-22 22:03:19.322 +0100|141125.7943445|-0.3212890625|0.956329345703125|0.1849212646484375|141125.7743825|-1.867654420853945|-1.936266467249626|-1.191570089737643|2.05872654914856|-0.5867840647697449|0.1700892448425293|0.01364463567733765|0.1317784190177917|0.06573891639709473|XArbitraryZVertical|-0.7373583992372126|-0.1498519748082316|-0.1022148083952921|0.65069140382742|-0.3457526862621307|0.9289513826370239|0.1323060393333435|0|0|0|-1|-1|3
2021-04-22 22:03:19.342 +0100|141125.8143055|-0.35064697265625|0.8702239990234375|0.1753387451171875|141125.7943445|-1.765350979414063|-1.853011226405996|-1.208918935207706|2.018215179443359|-0.6363242268562317|0.2830108404159546|0.01435717940330505|0.0460587739944458|0.09528744220733643|XArbitraryZVertical|-0.7249424393183158|-0.1541245985068667|-0.09317085048660603|0.6648484111431101|-0.3400259912014008|0.9352338314056396|0.09859186410903931|0|0|0|-1|-1|3
2021-04-22 22:03:19.362 +0100|141125.8342675|-0.396636962890625|0.832122802734375|0.151702880859375|141125.8143055|-1.661411329888427|-1.76868586942211|-1.224913908422539|1.845391750335693|-0.6624974012374878|0.4202751219272614|-0.005113899707794189|-0.0591239333152771|0.1150498390197754|XArbitraryZVertical|-0.7130487474866539|-0.1577592382496484|-0.0830720280840533|0.6780654327232692|-0.332410991191864|0.9407766461372375|0.06665298342704773|0|0|0|-1|-1|3
2021-04-22 22:03:19.382 +0100|141125.8542285|-0.423370361328125|0.756256103515625|0.159820556640625|141125.8342675|-1.559180311345594|-1.684919137864517|-1.23956715138834|1.743579864501953|-0.5976271033287048|0.4861230254173279|-0.0646357536315918|-0.09281444549560547|0.1131604909896851|XArbitraryZVertical|-0.7020258418019363|-0.1602378621078323|-0.07260138604028216|0.690081651778253|-0.323090523481369|0.9456433057785034|0.03703290969133377|0|0|0|-1|-1|3
2021-04-22 22:03:19.402 +0100|141125.8741895|-0.4345245361328125|0.6921539306640625|0.178466796875|141125.8542285|-1.458979782724436|-1.600673379621324|-1.251968304261437|1.53163743019104|-0.4682709872722626|0.5121626257896423|-0.107462614774704|-0.1777376532554626|0.1526553630828857|XArbitraryZVertical|-0.6917922422672637|-0.1615714660586882|-0.06273208769538882|0.7009870901368839|-0.3133141696453094|0.9496034383773804|0.009363690391182899|0|0|0|-1|-1|3
2021-04-22 22:03:19.422 +0100|141125.8941515|-0.4249420166015625|0.6854248046875|0.16131591796875|141125.8741895|-1.367186096554069|-1.521330081688521|-1.262010672585527|1.278371334075928|-0.3279946446418762|0.5194613933563232|-0.1257454454898834|-0.2532404661178589|0.1861400008201599|XArbitraryZVertical|-0.6828986972687503|-0.1616662729803991|-0.05407311120319996|0.7103446784178123|-0.3035304546356201|0.9527032971382141|-0.0150267705321312|0|0|0|-1|-1|3
2021-04-22 22:03:19.442 +0100|141125.9141125|-0.4451446533203125|0.6820526123046875|0.1533355712890625|141125.8941515|-1.287391824027626|-1.450565450094756|-1.270109689059297|1.051903128623962|-0.2244682759046555|0.4854916930198669|-0.1349474489688873|-0.2655428647994995|0.2042414546012878|XArbitraryZVertical|-0.6755753361329119|-0.1607359402189716|-0.0467828209422668|0.7180344353473844|-0.2940385341644287|0.955133318901062|-0.03552384674549103|0|0|0|-1|-1|3
2021-04-22 22:03:19.462 +0100|141125.9340735|-0.4579315185546875|0.726776123046875|0.136566162109375|141125.9141125|-1.221653983966951|-1.391253050258455|-1.27670323348668|0.7334832549095154|-0.1298995316028595|0.4501798450946808|-0.1538897454738617|-0.2815282940864563|0.2103054523468018|XArbitraryZVertical|-0.6698933177911601|-0.159248872226323|-0.04076057101481297|0.7240313844708198|-0.2852128446102142|0.9570654034614563|-0.05176547914743423|0|0|0|-1|-1|3
2021-04-22 22:03:19.482 +0100|141125.9540355|-0.4694976806640625|0.765533447265625|0.14166259765625|141125.9340735|-1.177535628162014|-1.350584376550683|-1.282774114366005|0.4028259515762329|-0.03480417653918266|0.3939551711082458|-0.1811009347438812|-0.2438417077064514|0.2013165354728699|XArbitraryZVertical|-0.6665274855403416|-0.1572161833656949|-0.03626996583371126|0.7278109500307208|-0.2771971821784973|0.9588075280189514|-0.06204836443066597|0|0|0|-1|-1|3
2021-04-22 22:03:19.502 +0100|141125.9739965|-0.462890625|0.7907867431640625|0.13946533203125|141125.9540355|-1.154943004416788|-1.328819682391433|-1.288498093373506|0.08231379091739655|0.05652760341763496|0.3128224313259125|-0.1921526789665222|-0.2026814818382263|0.2062776684761047|XArbitraryZVertical|-0.665298006584904|-0.1549306333783281|-0.03335728455158573|0.7295632121497057|-0.2704484462738037|0.9604177474975586|-0.06675012409687042|0|0|0|-1|-1|3
2021-04-22 22:03:19.521 +0100|141125.9939575|-0.428955078125|0.8812255859375|0.0826416015625|141125.9739965|-1.154497338834803|-1.326049638164731|-1.2938878910156|-0.1915617883205414|0.1748521625995636|0.2229163348674774|-0.2047500908374786|-0.1783358454704285|0.2096316814422607|XArbitraryZVertical|-0.6660938391160118|-0.152306106484061|-0.03230842918580439|0.7294368304149768|-0.2652362585067749|0.9619052410125732|-0.06624369323253632|0|0|0|-1|-1|3
2021-04-22 22:03:19.542 +0100|141126.0139195|-0.4048919677734375|0.9508209228515625|0.0318450927734375|141125.9939575|-1.170918905531783|-1.337166625207596|-1.299086026126078|-0.3312275409698486|0.2882580459117889|0.1865639090538025|-0.1754345893859863|-0.1123151779174805|0.1627352237701416|XArbitraryZVertical|-0.6683418284408745|-0.149173701875868|-0.03283609422754734|0.7280031101670729|-0.2610892951488495|0.9633132815361023|-0.0621328130364418|0|0|0|-1|-1|3
2021-04-22 22:03:19.562 +0100|141126.0338805|-0.348236083984375|0.905517578125|0.0284881591796875|141126.0139195|-1.188404434048015|-1.347375776595467|-1.303493090717282|-0.2053600400686264|0.3769862651824951|0.1462700217962265|-0.1569231748580933|-0.01842647790908813|0.09763222932815552|XArbitraryZVertical|-0.670481167184322|-0.1455802834927928|-0.034290337381762|0.7266950545747242|-0.2575669884681702|0.9644867181777954|-0.05852277204394341|0|0|0|-1|-1|3
2021-04-22 22:03:19.581 +0100|141126.0538415|-0.273101806640625|0.8649444580078125|0.0183563232421875|141126.0338805|-1.198078879295334|-1.348278908110002|-1.307255933638826|-0.1517432779073715|0.4628323316574097|0.1653012335300446|-0.1114009022712708|-0.0499463677406311|0.08553558588027954|XArbitraryZVertical|-0.6717567862496197|-0.1414158363823671|-0.03622805457473732|0.7262451370146458|-0.2540780007839203|0.9654737710952759|-0.05748876184225082|0|0|0|-1|-1|3
2021-04-22 22:03:19.601 +0100|141126.0738035|-0.2116546630859375|0.849273681640625|-0.00750732421875|141126.0538415|-1.208923311288908|-1.349192444568017|-1.311430735419633|-0.2135433852672577|0.4863994717597961|0.1827469766139984|-0.03958374261856079|-0.09059149026870728|0.08116698265075684|XArbitraryZVertical|-0.6731447703250105|-0.1367149646184991|-0.03844319539179206|0.7257461106718968|-0.2501963675022125|0.9665528535842896|-0.05637027323246002|0|0|0|-1|-1|3
2021-04-22 22:03:19.621 +0100|141126.0937645|-0.17730712890625|0.8733673095703125|-0.025054931640625|141126.0738035|-1.225955843553195|-1.355981414835785|-1.316236426550143|-0.308399498462677|0.4797326922416687|0.1882024705410004|0.01951473951339722|-0.1195076107978821|0.05619842186570168|XArbitraryZVertical|-0.6751149162157239|-0.1318334869622426|-0.04069949293533581|0.7246953842634127|-0.2460319101810455|0.9677742123603821|-0.05367956310510635|0|0|0|-1|-1|3
2021-04-22 22:03:19.641 +0100|141126.1137265|-0.1611328125|0.893768310546875|-0.023345947265625|141126.0937645|-1.248920370547085|-1.369115244152961|-1.321194665397797|-0.3467357754707336|0.4474093019962311|0.178862139582634|0.06101164221763611|-0.1013197898864746|0.01991152763366699|XArbitraryZVertical|-0.6775614182274107|-0.1271595617001018|-0.04288073230569633|0.7231198967906276|-0.2420118749141693|0.9690108895301819|-0.04948193952441216|0|0|0|-1|-1|3
2021-04-22 22:03:19.661 +0100|141126.1336875|-0.1236572265625|0.888763427734375|-0.035614013671875|141126.1137265|-1.272805481135867|-1.383167983467099|-1.325980628613896|-0.2946642935276031|0.4693193137645721|0.1733028739690781|0.07104039192199707|-0.08439385890960693|0.02218633517622948|XArbitraryZVertical|-0.6799888461653213|-0.1225145294310748|-0.04509969095510272|0.7215065014897226|-0.2381246387958527|0.9701820015907288|-0.04521071910858154|0|0|0|-1|-1|3
2021-04-22 22:03:19.681 +0100|141126.1536485|-0.1242218017578125|0.891815185546875|-0.0389556884765625|141126.1336875|-1.29032874387607|-1.390828116914107|-1.329794385035488|-0.2128020077943802|0.4544023275375366|0.1184698194265366|0.1039312183856964|-0.07971131801605225|0.01055830717086792|XArbitraryZVertical|-0.6816967241507421|-0.1180179885182301|-0.04749921010870008|0.7204896333024683|-0.2348215878009796|0.971099317073822|-0.0427226610481739|0|0|0|-1|-1|3
2021-04-22 22:03:19.701 +0100|141126.1736111667|-0.1414947509765625|0.9608154296875|-0.053619384765625|141126.1536485|-1.308204420685438|-1.399666919731847|-1.332618526275306|-0.2793230414390564|0.406232625246048|0.09309522062540054|0.1133605390787125|-0.09127634763717651|0.002200249582529068|XArbitraryZVertical|-0.6832885399479021|-0.1141387483781146|-0.04994544469983345|0.7194405197838801|-0.2324863821268082|0.9717695116996765|-0.04017823562026024|0|0|0|-1|-1|3
2021-04-22 22:03:19.721 +0100|141126.1935721667|-0.1468658447265625|0.94061279296875|-0.0355987548828125|141126.1736111667|-1.330545669495178|-1.413326698095602|-1.335001958875113|-0.2464750856161118|0.3975729644298553|0.04260851815342903|0.08851297199726105|-0.02629941701889038|-0.01238977536559105|XArbitraryZVertical|-0.6851657362320076|-0.1105899469556203|-0.05247785964778947|0.7180278193393889|-0.2307253777980804|0.9723290801048279|-0.03663555532693863|0|0|0|-1|-1|3
2021-04-22 22:03:19.741 +0100|141126.2135331667|-0.1611480712890625|0.9644012451171875|-0.035064697265625|141126.1935721667|-1.348239013349961|-1.422607717198733|-1.335813338059628|-0.2065092623233795|0.4001237452030182|-0.02114613726735115|0.08662824332714081|-0.02336061000823975|-0.008576270192861557|XArbitraryZVertical|-0.686469048772073|-0.1075740673631774|-0.05536203058220927|0.7170238348844183|-0.2302749752998352|0.9725183248519897|-0.03437612950801849|0|0|0|-1|-1|3
2021-04-22 22:03:19.761 +0100|141126.2334951667|-0.1430511474609375|0.992950439453125|-0.0768280029296875|141126.2135331667|-1.369075941057256|-1.434888313252347|-1.335785094091946|-0.2616793215274811|0.3996345698833466|-0.05399729311466217|0.06952860951423645|-0.02759581804275513|-0.001988176256418228|XArbitraryZVertical|-0.6879224404822202|-0.1048234463649017|-0.05861632487707347|0.7157786970131351|-0.2307077497243881|0.9725117087364197|-0.03154952079057693|0|0|0|-1|-1|3
2021-04-22 22:03:19.781 +0100|141126.2534561667|-0.1435546875|0.92547607421875|-0.0636749267578125|141126.2334951667|-1.387537580414657|-1.445571001546883|-1.334228831312333|-0.13297438621521|0.3063969314098358|-0.1699646413326263|0.08610862493515015|0.02917939424514771|-0.03954386711120605|XArbitraryZVertical|-0.6890506743261042|-0.1028256036049246|-0.06208223083019529|0.7146901445817769|-0.2325325012207031|0.9721481800079346|-0.02927212603390217|0|0|0|-1|-1|3
2021-04-22 22:03:19.801 +0100|141126.2734171667|-0.172821044921875|0.9611663818359375|-0.054534912109375|141126.2534561667|-1.402277799134509|-1.454885065596736|-1.331085793686879|-0.2389137893915176|0.1867755651473999|-0.2572951912879944|0.09193800389766693|-0.03418135643005371|-0.03751248121261597|XArbitraryZVertical|-0.6898076053166806|-0.1021582783566983|-0.06523045109964887|0.7137746777279237|-0.2358289062976837|0.9714067578315735|-0.02745830826461315|0|0|0|-1|-1|3
2021-04-22 22:03:19.821 +0100|141126.2933791667|-0.16583251953125|0.9850616455078125|-0.0544281005859375|141126.2734171667|-1.430852163578011|-1.479707034977978|-1.32844326468191|-0.4392960369586945|0.09607949107885361|-0.2709243893623352|0.07422810792922974|-0.02828633785247803|-0.03136086463928223|XArbitraryZVertical|-0.6918603301434696|-0.1020501137578664|-0.06776123326064223|0.711564167976535|-0.2389930337667465|0.9707759618759155|-0.02183011546730995|0|0|0|-1|-1|3
2021-04-22 22:03:19.841 +0100|141126.3133401667|-0.1567840576171875|1.007720947265625|-0.051910400390625|141126.2933791667|-1.468115537143485|-1.514723157786793|-1.324823364241512|-0.4653382301330566|0.003577142488211393|-0.3005985617637634|0.07218840718269348|0.01314657926559448|-0.04824179410934448|XArbitraryZVertical|-0.6946968386900778|-0.1028248727091507|-0.07012019982677652|0.7084536836922081|-0.2431178838014603|0.9699008464813232|-0.0136466957628727|0|0|0|-1|-1|3
2021-04-22 22:03:19.861 +0100|141126.3333021667|-0.161895751953125|1.045684814453125|-0.0689849853515625|141126.3133401667|-1.505097704502706|-1.551199552994248|-1.32119320321964|-0.5017896294593811|-0.09129993617534637|-0.2907075881958008|0.08895164728164673|0.03202694654464722|-0.04477995634078979|XArbitraryZVertical|-0.6976681036128586|-0.104110415911633|-0.07176789228172163|0.7051734910435713|-0.2469721436500549|0.9690105319023132|-0.004840476904064417|0|0|0|-1|-1|3
2021-04-22 22:03:19.881 +0100|141126.3532631667|-0.1639862060546875|1.02740478515625|-0.090545654296875|141126.3333021667|-1.537606172467817|-1.585308707340197|-1.317548654183584|-0.438344806432724|-0.2038509249687195|-0.2834128141403198|0.09175550937652588|0.06792217493057251|-0.06985795497894287|XArbitraryZVertical|-0.7004121438519161|-0.1060226600075195|-0.07256509693263344|0.7020801424965243|-0.2505237460136414|0.96810382604599|0.003635951317846775|0|0|0|-1|-1|3
2021-04-22 22:03:19.901 +0100|141126.3732241667|-0.15972900390625|1.017776489257812|-0.114501953125|141126.3532631667|-1.560873474772998|-1.612577465028592|-1.313439472495702|-0.2991679310798645|-0.2987902462482452|-0.2835758328437805|0.08872970938682556|0.07391887903213501|-0.09639978408813477|XArbitraryZVertical|-0.7024716670699201|-0.1088539943882226|-0.07260005778586415|0.6995810376665762|-0.2543033361434937|0.9670661091804504|0.01063127070665359|0|0|0|-1|-1|3
2021-04-22 22:03:19.921 +0100|141126.3931861667|-0.201385498046875|1.038040161132812|-0.1492919921875|141126.3732241667|-1.573474602119388|-1.631206388348464|-1.309450838049333|-0.18199323117733|-0.3835162818431854|-0.2680717706680298|0.09900441765785217|0.05087876319885254|-0.1209906339645386|XArbitraryZVertical|-0.7036921238907774|-0.1123257047831149|-0.07185681929702241|0.6978804415302851|-0.2579099833965302|0.96604323387146|0.01559933833777905|0|0|0|-1|-1|3
2021-04-22 22:03:19.941 +0100|141126.4131471667|-0.22259521484375|0.9836883544921875|-0.1725311279296875|141126.4131471667|-1.546222657371003|-1.621552868411751|-1.303368877191604|0.4697969257831573|-0.4690655767917633|-0.3082810640335083|0.03905755281448364|0.04279410839080811|-0.1816947460174561|XArbitraryZVertical|-0.7015318925164977|-0.1206498307509183|-0.06787128231483616|0.6990638732606678|-0.2639116048812866|0.9644538760185242|0.01340675540268421|0|0|0|-1|-1|3
2021-04-22 22:03:19.961 +0100|141126.4331081667|-0.179718017578125|0.8903961181640625|-0.2062835693359375|141126.4331081667|-1.489080175556709|-1.576712572150425|-1.298970366064212|0.8847126364707947|-0.6206671595573425|-0.408755898475647|0.07834658026695251|-0.04767858982086182|-0.2012943029403687|XArbitraryZVertical|-0.6962831178026081|-0.1264280275996987|-0.06505365009283838|0.7035438840372075|-0.2684868574142456|0.9632822275161743|0.001588452607393265|0|0|0|-1|-1|3
2021-04-22 22:03:19.981 +0100|141126.4530701667|-0.11370849609375|0.795074462890625|-0.2296142578125||||||||||||||||||||||||3
2021-04-22 22:03:20.001 +0100|141126.4730311667|0.0065765380859375|0.7275238037109375|-0.3235626220703125|141126.4530701667|-1.403121332455015|-1.50832007440458|-1.290883518364649|1.319301605224609|-0.8794322609901428|-0.5816236138343811|0.1383275091648102|-0.1486558318138123|-0.1998516321182251|XArbitraryZVertical|-0.6878981363114112|-0.1348018423070961|-0.06117640868853478|0.7105506354299418|-0.2757333517074585|0.9610795378684998|-0.01724923402070999|0|0|0|-1|-1|3
2021-04-22 22:03:20.021 +0100|141126.4929921667|0.0480194091796875|0.7450103759765625|-0.444549560546875|141126.4730311667|-1.293260527503777|-1.424296798812503|-1.274126109025899|2.032243967056274|-1.295206069946289|-0.7522071003913879|0.2699187994003296|-0.2067577242851257|-0.2491793632507324|XArbitraryZVertical|-0.675850000730528|-0.1479513941490813|-0.05637781847327733|0.7198324789193059|-0.289206326007843|0.9563152194023132|-0.04267432168126106|0|0|0|-1|-1|3
2021-04-22 22:03:20.041 +0100|141126.5129541667|-0.017486572265625|0.7794952392578125|-0.6325531005859375|141126.4929921667|-1.146483582436477|-1.313592126188211|-1.248318105726894|2.901594400405884|-1.596659660339355|-0.8554559946060181|0.3581894934177399|-0.2102785110473633|-0.3153017163276672|XArbitraryZVertical|-0.6575615390382549|-0.1652403236379609|-0.0487450890563061|0.7334387656668826|-0.3064931035041809|0.9484529495239258|-0.08061691373586655|0|0|0|-1|-1|3
2021-04-22 22:03:20.060 +0100|141126.5329151667|0.0349884033203125|0.862091064453125|-0.855255126953125|141126.5129541667|-0.9726073263637707|-1.183123146443885|-1.209425594215789|3.820139169692993|-1.707977533340454|-0.9853265285491943|0.3219944536685944|-0.1686128973960876|-0.4481898546218872|XArbitraryZVertical|-0.6316150268575972|-0.1850240370734187|-0.03886043298002587|0.7518767436069421|-0.3273202180862427|0.9354130625724792|-0.1336571276187897|0|0|0|-1|-1|3
2021-04-22 22:03:20.081 +0100|141126.5528771667|-0.064361572265625|0.924041748046875|-0.9897918701171875|141126.5329151667|-0.7925853014423143|-1.051800545177322|-1.153293906424384|4.736742496490479|-1.890337347984314|-1.033965349197388|0.3745754659175873|-0.07392489910125732|-0.6033976078033447|XArbitraryZVertical|-0.5974330353514279|-0.20618763338148|-0.0273755845324964|0.7744746815061234|-0.3520843684673309|0.9141045212745667|-0.2011208534240723|0|0|0|-1|-1|3
2021-04-22 22:03:20.100 +0100|141126.5728381667|-0.2676544189453125|0.9246368408203125|-1.157440185546875|141126.5528771667|-0.6214287517412556|-0.9392390626723458|-1.080710681502749|5.480502128601074|-2.205665349960327|-0.9564039707183838|0.3720488846302032|0.03177016973495483|-0.6715127229690552|XArbitraryZVertical|-0.555429031978376|-0.2292312168574883|-0.01213499176345478|0.7992524113990047|-0.3799074590206146|0.8822925686836243|-0.277903288602829|0|0|0|-1|-1|3
2021-04-22 22:03:20.120 +0100|141126.5927991667|-0.31475830078125|0.951873779296875|-1.382232666015625|141126.5728381667|-0.4694857462879521|-0.8527614205376904|-0.9958548688887007|5.783154964447021|-2.196906089782715|-0.8000367283821106|0.1895846426486969|0.1106206178665161|-0.737804651260376|XArbitraryZVertical|-0.5074336897077391|-0.2522519739422656|0.006055518440253265|0.823919580243026|-0.4095251262187958|0.8392241597175598|-0.3577599823474884|0|0|0|-1|-1|3
2021-04-22 22:03:20.141 +0100|141126.6127611667|-0.2712860107421875|0.93353271484375|-1.531600952148438|141126.5927991667|-0.3368888961567523|-0.7870095239684363|-0.9085202787761757|5.83961820602417|-2.02596378326416|-0.2777285575866699|0.1241994500160217|0.1466017365455627|-0.9009431600570679|XArbitraryZVertical|-0.4572871645211959|-0.2717247358845599|0.02673264135290782|0.846368456524959|-0.4355095028877258|0.7885947227478027|-0.4341082274913788|0|0|0|-1|-1|3
2021-04-22 22:03:20.160 +0100|141126.6327221667|-0.0324249267578125|0.847503662109375|-1.752120971679688|141126.6127611667|-0.2133147484562895|-0.7290437222738942|-0.8236175758888783|5.81373405456543|-1.605403780937195|0.2208024859428406|0.1313357949256897|0.2237128019332886|-0.9774497151374817|XArbitraryZVertical|-0.406621363204996|-0.2850310866029004|0.05074004105698743|0.8665113454833991|-0.4527013599872589|0.7336090207099915|-0.5068327188491821|0|0|0|-1|-1|3
2021-04-22 22:03:20.180 +0100|141126.6526831667|-0.08135986328125|0.8859710693359375|-2.029266357421875|141126.6327221667|-0.0985237558417352|-0.6780303350386819|-0.7428972355475146|5.567860126495361|-1.381665468215942|0.7458387613296509|0.3970736563205719|0.1591017246246338|-1.14061450958252|XArbitraryZVertical|-0.357150326910936|-0.2926470322677269|0.07728862758311855|0.8836447477134711|-0.4619846940040588|0.6764246225357056|-0.5736027359962463|0|0|0|-1|-1|3
2021-04-22 22:03:20.200 +0100|141126.6726451667|-0.1536865234375|0.9460906982421875|-2.35748291015625|141126.6526831667|0.005767691669869187|-0.6300394589457596|-0.6689486789603568|5.213637828826904|-0.4839785695075989|1.002934217453003|0.3880970180034637|0.2496512532234192|-1.29884946346283|XArbitraryZVertical|-0.3112731616535205|-0.2935639604909767|0.1042999826077526|0.8978033327436179|-0.4621938467025757|0.6201615929603577|-0.6338584423065186|0|0|0|-1|-1|3
2021-04-22 22:03:20.220 +0100|141126.6926061667|-0.230621337890625|0.713836669921875|-2.222061157226562|141126.6726451667|0.09885688605363001|-0.5718662023739917|-0.5940578034783097|5.274293899536133|0.8304177522659302|0.8675271272659302|0.3277691006660461|0.3875229954719543|-1.60338830947876|XArbitraryZVertical|-0.267128889584167|-0.2832461032071346|0.1277770784618526|0.9121879494938792|-0.4484814703464508|0.55972820520401|-0.6968275904655457|0|0|0|-1|-1|3
2021-04-22 22:03:20.240 +0100|141126.7125671667|-0.1877899169921875|0.5446624755859375|-1.616806030273438|141126.6926061667|0.1721625984096141|-0.5020359256330241|-0.5106775835829644|4.961016654968262|2.28762674331665|0.231928288936615|0.1799163818359375|0.2894612550735474|-1.522606372833252|XArbitraryZVertical|-0.2230887322063594|-0.2604813115192853|0.1430848199884558|0.9283898942080212|-0.4198152124881744|0.4887684881687164|-0.7647618055343628|0|0|0|-1|-1|3
2021-04-22 22:03:20.260 +0100|141126.7325291667|-0.1027984619140625|0.2876129150390625|-1.043365478515625|141126.7125671667|0.2147082385181151|-0.4252136688642914|-0.4271306667644548|4.189680099487305|3.465407609939575|-0.6617092490196228|0.2194940447807312|0.1951455771923065|-0.9664225578308105|XArbitraryZVertical|-0.1838852294759166|-0.2272259919395847|0.1468209608767934|0.9449858706834859|-0.3754542768001556|0.4142609536647797|-0.8291091322898865|0|0|0|-1|-1|3
2021-04-22 22:03:20.280 +0100|141126.7524901667|0.0563507080078125|0.0312957763671875|-0.64312744140625|141126.7325291667|0.2206588685776089|-0.3418573736465427|-0.3548668209555508|2.625835418701172|4.538994789123535|-1.555238604545593|0.1438784003257751|0.02814590930938721|-0.2524471282958984|XArbitraryZVertical|-0.1544395084694904|-0.1855599357925497|0.136638052356915|0.9607528338659654|-0.3143498301506042|0.3474654853343964|-0.8834319114685059|0|0|0|-1|-1|3
2021-04-22 22:03:20.300 +0100|141126.7724511667|-0.376220703125|0.0337371826171875|0.095489501953125|141126.7524901667|0.1886318177639113|-0.2631063906632211|-0.3179750910586831|-0.274170994758606|4.144629001617432|-2.405358076095581|0.318759560585022|-0.2462670207023621|0.1533277630805969|XArbitraryZVertical|-0.1440553815725548|-0.1437250500555761|0.1128598895981761|0.9725503209957186|-0.2470435351133347|0.3126437962055206|-0.9171823263168335|0|0|0|-1|-1|3
2021-04-22 22:03:20.320 +0100|141126.7924131667|-1.119491577148438|0.288421630859375|0.725616455078125|141126.7724511667|0.1281267029586231|-0.2096870462343339|-0.3504835640607815|-4.184727191925049|3.140175342559814|-2.506200551986694|-0.03535111248493195|-0.3361793756484985|0.815561830997467|XArbitraryZVertical|-0.1664360492328729|-0.1139376277028021|0.08090105722501345|0.9761006303940662|-0.1954994797706604|0.3433520197868347|-0.9186345338821411|0|0|0|-1|-1|3
2021-04-22 22:03:20.340 +0100|141126.8123741667|-1.569900512695312|1.138320922851562|0.8286895751953125|141126.7924131667|0.04455855913092988|-0.1909245540086926|-0.4602369587760975|-8.054903030395508|2.39971923828125|-2.378273248672485|-0.7798237800598145|-0.2579106986522675|1.445982456207275|XArbitraryZVertical|-0.2249305451105273|-0.09783987662503604|0.04332724043651557|0.968481532979949|-0.1700209826231003|0.4441604316234589|-0.8796672224998474|0|0|0|-1|-1|3
2021-04-22 22:03:20.360 +0100|141126.8323361667|-1.908340454101562|1.758544921875|0.7670135498046875|141126.8123741667|-0.03890515536151291|-0.1842601129351641|-0.6268147239705573|-9.199028968811035|2.573562860488892|-1.61999785900116|-1.338839650154114|0.3341786861419678|1.590898990631104|XArbitraryZVertical|-0.308638551504884|-0.08153032426154534|0.009932953004994865|0.9476267729782413|-0.1483892500400543|0.5865679979324341|-0.796190083026886|0|0|0|-1|-1|3
2021-04-22 22:03:20.380 +0100|141126.8522971667|-2.0225830078125|1.70037841796875|0.6630859375|141126.8323361667|-0.1180307190088392|-0.1832750019893681|-0.792817458015842|-8.067192077636719|2.555547952651978|-1.313169598579407|-1.716190457344055|0.9287804961204529|1.480828642845154|XArbitraryZVertical|-0.3887973922194233|-0.06158859294707292|-0.01890809279246268|0.9190680865767665|-0.1279110610485077|0.7123335003852844|-0.690086841583252|0|0|0|-1|-1|3
2021-04-22 22:03:20.400 +0100|141126.8722581667|-1.566070556640625|1.300827026367188|0.5022430419921875|141126.8522971667|-0.1988329084440272|-0.1965140084212097|-0.9277569272574026|-6.20684814453125|2.283596515655518|-1.310111165046692|-1.951265811920166|0.9717420935630798|1.275712728500366|XArbitraryZVertical|-0.4517710525978126|-0.0431055795196441|-0.04466126406241169|0.889972072124229|-0.1170788556337357|0.8002769351005554|-0.588089644908905|0|0|0|-1|-1|3
2021-04-22 22:03:20.420 +0100|141126.8922201667|-1.325302124023438|0.8264007568359375|0.4318084716796875|141126.8722581667|-0.2780337487180871|-0.221536308334835|-1.030882050958256|-4.886248111724854|1.730914235115051|-0.7833415865898132|-1.544379711151123|0.5650992393493652|1.038548588752747|XArbitraryZVertical|-0.4984991474691884|-0.02736690391600165|-0.06586462062638818|0.8639510999680762|-0.1129542514681816|0.8577527403831482|-0.5014992952346802|0|0|0|-1|-1|3
2021-04-22 22:03:20.440 +0100|141126.9121811667|-1.060440063476562|0.5577392578125|0.3487548828125|141126.8922201667|-0.3371036805865255|-0.244523500300593|-1.115444195802264|-4.12205982208252|1.150237679481506|-0.04347239434719086|-1.293648838996887|0.03637295961380005|0.885025680065155|XArbitraryZVertical|-0.5352185094228631|-0.01388761030678274|-0.07763950123563332|0.8410234909816551|-0.1064678058028221|0.8981062173843384|-0.4266965687274933|0|0|0|-1|-1|3
2021-04-22 22:03:20.460 +0100|141126.9321421667|-1.08795166015625|0.4750518798828125|0.349029541015625|141126.9121811667|-0.3742337239612911|-0.265444364061334|-1.194910660916502|-4.025741100311279|0.1444577872753143|0.5688605308532715|-0.9959518313407898|-0.3292455673217773|0.7025225162506104|XArbitraryZVertical|-0.5682129066440987|-0.003771824906046045|-0.07930560616730105|0.8190425672877478|-0.09630350768566132|0.9301828742027283|-0.3542397320270538|0|0|0|-1|-1|3
2021-04-22 22:03:20.480 +0100|141126.9521041667|-1.010635375976562|0.5516357421875|0.239959716796875|141126.9321421667|-0.3938124641952468|-0.2884675102786287|-1.276702617044221|-4.050422668457031|-0.5534877777099609|1.006652474403381|-1.001795768737793|-0.4746431708335876|0.6330904960632324|XArbitraryZVertical|-0.6008723665347476|0.002164310994334879|-0.07148785228079864|0.7961389584813979|-0.08246396481990814|0.957065224647522|-0.2778954207897186|0|0|0|-1|-1|3
2021-04-22 22:03:20.500 +0100|141126.9720651667|-0.9532928466796875|0.7246856689453125|0.029693603515625|141126.9521041667|-0.4054069152183158|-0.3163665130976359|-1.360429064923891|-3.946268558502197|-1.10879111289978|1.161822199821472|-0.9720820188522339|-0.4628478288650513|0.4786544442176819|XArbitraryZVertical|-0.6330450377495533|0.005082050596390965|-0.05751033858222826|0.7719590947016312|-0.06496699899435043|0.9779542684555054|-0.1984563022851944|0|0|0|-1|-1|3
2021-04-22 22:03:20.520 +0100|141126.9920271667|-0.9260711669921875|0.7659912109375|-0.1721954345703125|141126.9720651667|-0.4181186788822527|-0.3550800570509558|-1.435716934914645|-3.14783501625061|-1.470152258872986|1.070167899131775|-0.9169869422912598|-0.294158935546875|0.20880426466465|XArbitraryZVertical|-0.6609446404279008|0.004240028577950251|-0.04022600400724242|0.7493437901617749|-0.04681984707713127|0.9908906221389771|-0.1262684017419815|0|0|0|-1|-1|3
2021-04-22 22:03:20.539 +0100|141127.0119881667|-0.9147186279296875|0.7501068115234375|-0.27728271484375|141126.9920271667|-0.4308505846207205|-0.3986509977396928|-1.490811577557719|-2.01605486869812|-1.588180780410767|0.8279814720153809|-0.9015563130378723|-0.2296518683433533|-0.05682569742202759|XArbitraryZVertical|-0.6805748097485983|-1.786724624442899e-05|-0.02276718598361526|0.7323248849665727|-0.03101571649312973|0.9968029260635376|-0.07363585382699966|0|0|0|-1|-1|3
2021-04-22 22:03:20.560 +0100|141127.0319491667|-0.929840087890625|0.67071533203125|-0.2706756591796875|141127.0119881667|-0.4141573499492454|-0.4131177268235152|-1.523633463331431|-1.010523557662964|-1.501814603805542|0.5539076328277588|-0.8930431008338928|-0.2327439785003662|-0.2191285490989685|XArbitraryZVertical|-0.6916413634047092|-0.006334923106391324|-0.007069839477777857|0.7221789101463502|-0.01892948336899281|0.9988880157470703|-0.04318418726325035|0|0|0|-1|-1|3
2021-04-22 22:03:20.579 +0100|141127.0519111667|-0.7409515380859375|0.611236572265625|-0.248992919921875|141127.0319491667|-0.3633493132985617|-0.3902590261968822|-1.539955998618259|-0.4889332056045532|-1.266569852828979|0.2539493441581726|-0.925372302532196|-0.3122074604034424|-0.2446579933166504|XArbitraryZVertical|-0.6968196181011571|-0.01352473833315942|0.005500425606093888|0.7170978436717652|-0.01173151284456253|0.9995244741439819|-0.02851900272071362|0|0|0|-1|-1|3
2021-04-22 22:03:20.599 +0100|141127.0718721667|-0.529388427734375|0.623748779296875|-0.2223968505859375|141127.0519111667|-0.4425476457558821|-0.4922285889816883|-1.546759622136145|-0.259370356798172|-1.05647349357605|-0.1740182489156723|-0.7958752512931824|-0.3804941177368164|-0.2359694838523865|XArbitraryZVertical|-0.6992492508934454|-0.02139140767826444|0.01373200456257945|0.714425962724158|-0.0113609666004777|0.9997111558914185|-0.02118578553199768|0|0|0|-1|-1|3
2021-04-22 22:03:20.619 +0100|141127.0918331667|-0.469970703125|0.7600250244140625|-0.19635009765625|141127.0718721667|-0.8238268529624391|-0.8944120798035231|-1.546263633763622|-0.3199467360973358|-1.055266499519348|-0.5490907430648804|-0.5450797080993652|-0.3865551948547363|-0.2130217552185059|XArbitraryZVertical|-0.7009486228072244|-0.03151670660580023|0.01838046702257433|0.7122779562693939|-0.01912978477776051|0.9996991157531738|-0.01535545103251934|0|0|0|-1|-1|3
2021-04-22 22:03:20.639 +0100|141127.1117951667|-0.3479461669921875|0.954986572265625|-0.2060546875|141127.0918331667|-1.281850872970861|-1.37130618648984|-1.536229008151922|-0.4750405848026276|-0.805625319480896|-0.9022544622421265|-0.4565371870994568|-0.2796300649642944|-0.1938629746437073|XArbitraryZVertical|-0.7033385971463181|-0.04347208406936976|0.01975175458541484|0.7092496515233347|-0.03388077765703201|0.9994025826454163|-0.006849991157650948|0|0|0|-1|-1|3
2021-04-22 22:03:20.659 +0100|141127.1317561667|-0.2405242919921875|1.116973876953125|-0.160491943359375|141127.1117951667|-1.529887941712299|-1.632466101252107|-1.515282024895113|-0.4625536799430847|-0.5448573231697083|-1.251504302024841|-0.3164567947387695|-0.09356725215911865|-0.2094429731369019|XArbitraryZVertical|-0.706108600824728|-0.05586237992589444|0.01661161593789211|0.7057013233337562|-0.05538510158658028|0.9984594583511353|0.003419923363253474|0|0|0|-1|-1|3
2021-04-22 22:03:20.679 +0100|141127.1517171667|-0.193115234375|1.21044921875|-0.0985260009765625|141127.1317561667|-1.586388019406948|-1.697202821446746|-1.486140638096622|-0.1918078362941742|-0.3251061141490936|-1.625811696052551|-0.183985710144043|0.08390361070632935|-0.1747826337814331|XArbitraryZVertical|-0.7075119150101286|-0.06897082443021103|0.009276858647675648|0.7032667297764925|-0.08388279378414154|0.996418833732605|0.01066016871482134|0|0|0|-1|-1|3
2021-04-22 22:03:20.699 +0100|141127.1716797917|-0.2385406494140625|1.25634765625|-0.0214996337890625|141127.1517171667|-1.563939139151032|-1.679718873726527|-1.451016844046937|-0.05340215191245079|-0.1718939542770386|-1.865040421485901|-0.07507680356502533|0.2095729112625122|-0.132861852645874|XArbitraryZVertical|-0.7068155758626988|-0.08310665447488737|-0.001430425344805089|0.7024977943074034|-0.1187865734100342|0.9928349852561951|0.01298994850367308|0|0|0|-1|-1|3
2021-04-22 22:03:20.719 +0100|141127.1916407917|-0.142303466796875|1.44415283203125|-0.04510498046875|141127.1716797917|-1.55899607280315|-1.67604285215232|-1.412667512296072|-0.3299081921577454|0.07503912597894669|-1.930581092834473|-0.07765296101570129|0.2359718680381775|-0.03959763050079346|XArbitraryZVertical|-0.7062994845230683|-0.09701766023895302|-0.0145587233400617|0.7010826123081635|-0.1566004306077957|0.9875236749649048|0.01654277555644512|0|0|0|-1|-1|3
2021-04-22 22:03:20.739 +0100|141127.2116027917|-0.1217041015625|1.47406005859375|0.009063720703125|141127.1916407917|-1.574096995905862|-1.686410906168241|-1.373732049615321|-0.3083589375019073|0.3174893260002136|-1.905004262924194|0.01713114976882935|0.4232392311096191|-0.06916987895965576|XArbitraryZVertical|-0.7067012228474066|-0.1089328451216764|-0.02994165400092047|0.6984343729424084|-0.1944844871759415|0.9806455969810486|0.02258596569299698|0|0|0|-1|-1|3
2021-04-22 22:03:20.759 +0100|141127.2315637917|-0.196441650390625|1.419647216796875|0.0485382080078125|141127.2116027917|-1.573396249774102|-1.678828994622215|-1.336143364131157|-0.08600921183824539|0.3780775666236877|-1.822292804718018|0.1177769899368286|0.508392333984375|-0.03336894884705544|XArbitraryZVertical|-0.705846280240173|-0.1196483135956967|-0.04564292698355502|0.6966936810418513|-0.2311502248048782|0.9725950956344604|0.02506938017904758|0|0|0|-1|-1|3
2021-04-22 22:03:20.779 +0100|141127.2515247917|-0.2220306396484375|1.350494384765625|0.0811309814453125|141127.2315637917|-1.558684435332339|-1.655359667620266|-1.301023969488105|0.07865898311138153|0.5493566393852234|-1.732756614685059|0.0844990611076355|0.4746602177619934|0.02276360988616943|XArbitraryZVertical|-0.7033093833393069|-0.1288840049358468|-0.06117159965088682|0.6964215859794471|-0.2655603289604187|0.9638316035270691|0.02251035161316395|0|0|0|-1|-1|3
2021-04-22 22:03:20.799 +0100|141127.2714867917|-0.1257781982421875|1.406753540039062|0.0028533935546875|141127.2515247917|-1.551321436334572|-1.635798129240442|-1.266613968407986|-0.1962934881448746|0.6999300718307495|-1.718286633491516|0.07453039288520813|0.4026581645011902|0.06636142730712891|XArbitraryZVertical|-0.7007592828295636|-0.1366163553649838|-0.07758941191197449|0.6958824200642446|-0.2988808453083038|0.9540921449661255|0.0194552019238472|0|0|0|-1|-1|3
2021-04-22 22:03:20.819 +0100|141127.2914477917|-0.0790863037109375|1.36065673828125|0.002593994140625|141127.2714867917|-1.563947461668452|-1.632829760085771|-1.232874798301064|-0.2813705801963806|0.7690815925598145|-1.621045827865601|0.1724881827831268|0.4526572227478027|0.002931835129857063|XArbitraryZVertical|-0.6999046640297367|-0.1428627795469488|-0.09485871261355462|0.6933439514364883|-0.3308902084827423|0.9434458017349243|0.02055262587964535|0|0|0|-1|-1|3
2021-04-22 22:03:20.839 +0100|141127.3114087917|-0.153533935546875|1.350723266601562|-0.0134429931640625|141127.2914477917|-1.568989039296997|-1.622969462752237|-1.20106847803299|-0.1134726777672768|0.6892940402030945|-1.529904007911682|0.2843779027462006|0.4465873837471008|-0.022643206641078|XArbitraryZVertical|-0.6980782000938607|-0.1486918180760128|-0.1111768133227272|0.6915327609694859|-0.360870748758316|0.9324257373809814|0.01884485967457294|0|0|0|-1|-1|3
2021-04-22 22:03:20.859 +0100|141127.3313707917|-0.117431640625|1.344467163085938|-0.063568115234375|141127.3114087917|-1.569388214361687|-1.609393439160945|-1.172923747829319|-0.0006219092756509781|0.7450694441795349|-1.297347664833069|0.2530904710292816|0.4192076325416565|-0.02114498429000378|XArbitraryZVertical|-0.6956203629915703|-0.1535833521146666|-0.1258551470580814|0.690423920619781|-0.3871700465679169|0.9218873381614685|0.0149510707706213|0|0|0|-1|-1|3
2021-04-22 22:03:20.879 +0100|141127.3513317917|-0.0119171142578125|1.262802124023438|-0.11370849609375|141127.3313707917|-1.562244045423366|-1.587013495287608|-1.147876012589749|0.2185034155845642|0.8043367862701416|-1.234118938446045|0.2660382390022278|0.4454512596130371|-0.06028914451599121|XArbitraryZVertical|-0.6918720554544224|-0.1569741503776875|-0.1398500715647761|0.6907346124466716|-0.4103716611862183|0.9118942618370056|0.006655650213360786|0|0|0|-1|-1|3
2021-04-22 22:03:20.899 +0100|141127.3712927917|-0.029205322265625|1.146316528320312|-0.101470947265625|141127.3513317917|-1.546518781024536|-1.558744424218838|-1.124443133472811|0.4295618236064911|0.5624139308929443|-1.111509680747986|0.4065771102905273|0.3859211206436157|-0.09559601545333862|XArbitraryZVertical|-0.6867144503710664|-0.1606924039189402|-0.1522620189220255|0.6923999091788912|-0.4316478669643402|0.9020273685455322|-0.005202429834753275|0|0|0|-1|-1|3
2021-04-22 22:03:20.919 +0100|141127.3912547917|-0.0466766357421875|1.139450073242188|-0.136962890625|141127.3712927917|-1.527036888155925|-1.532189158413588|-1.103179263790478|0.4229729771614075|0.3623353540897369|-0.9984431266784668|0.4284518361091614|0.2767428755760193|-0.0900072455406189|XArbitraryZVertical|-0.6811198644219979|-0.1654587211091112|-0.1619146473255208|0.6946099986948241|-0.4504251182079315|0.8926449418067932|-0.01739828288555145|0|0|0|-1|-1|3
2021-04-22 22:03:20.939 +0100|141127.4112157917|-0.0895843505859375|1.165771484375|-0.1963043212890625|141127.3912547917|-1.514094859124957|-1.514705850175076|-1.084389414421685|0.2975650131702423|0.225564032793045|-0.8383926153182983|0.4237788021564484|0.2462916970252991|-0.09763336181640625|XArbitraryZVertical|-0.6766996094268148|-0.1702195315162398|-0.1698002097626698|0.6958957642696603|-0.4667175710201263|0.8840181827545166|-0.02620589919388294|0|0|0|-1|-1|3
2021-04-22 22:03:20.959 +0100|141127.4311777917|-0.07891845703125|1.092941284179688|-0.2489013671875|141127.4112157917|-1.501543609546352|-1.500807462521314|-1.069016626091406|0.4458594024181366|0.07511593401432037|-0.6768231391906738|0.4017447829246521|0.2913474440574646|-0.1376273036003113|XArbitraryZVertical|-0.6727564327543163|-0.1748732702687111|-0.1753775078609688|0.6971807102579155|-0.4798092246055603|0.8767279386520386|-0.03363624215126038|0|0|0|-1|-1|3
2021-04-22 22:03:20.979 +0100|141127.4511387917|-0.0153045654296875|0.9664459228515625|-0.2709197998046875|141127.4311777917|-1.477701015654235|-1.479206365027037|-1.055260498673727|0.8256043195724487|-0.008241273462772369|-0.6208088994026184|0.3974590301513672|0.2505460977554321|-0.193311333656311|XArbitraryZVertical|-0.6671229200963242|-0.1800043794345949|-0.178975104476356|0.700366649408759|-0.4909349083900452|0.8700286746025085|-0.04509086534380913|0|0|0|-1|-1|3
2021-04-22 22:03:20.999 +0100|141127.4710997917|-0.0635986328125|0.9309539794921875|-0.2788848876953125|141127.4511387917|-1.441664395100223|-1.44978380650976|-1.041127882027079|1.089164257049561|-0.1850685775279999|-0.5711536407470703|0.4777331352233887|0.1289533972740173|-0.2079733610153198|XArbitraryZVertical|-0.6593598293877241|-0.1864095860396885|-0.1808684752764104|0.7055372719506459|-0.5015526413917542|0.8629746437072754|-0.06099216267466545|0|0|0|-1|-1|3
2021-04-22 22:03:21.018 +0100|141127.4910617917|-0.0981292724609375|0.9179229736328125|-0.29974365234375|141127.4710997917|-1.398311614027284|-1.417755651284822|-1.027419655677864|1.315118312835693|-0.3167153298854828|-0.4909758567810059|0.4665217995643616|0.07939589023590088|-0.2017289996147156|XArbitraryZVertical|-0.6503879967651089|-0.193872244516507|-0.1806277674396118|0.7118867143562305|-0.5109863877296448|0.8559677004814148|-0.07881801575422287|0|0|0|-1|-1|3
2021-04-22 22:03:21.039 +0100|141127.5110227917|-0.06536865234375|0.8975677490234375|-0.3423614501953125|141127.4910617917|-1.347774895285598|-1.381406084796961|-1.013535698515605|1.515801429748535|-0.3566727042198181|-0.430806964635849|0.4230014085769653|0.07626545429229736|-0.1897873878479004|XArbitraryZVertical|-0.6399199604432201|-0.2017932186538921|-0.1789306087375285|0.719559531276768|-0.5194069743156433|0.8487070202827454|-0.09956388175487518|0|0|0|-1|-1|3
2021-04-22 22:03:21.058 +0100|141127.5309837917|-0.1002044677734375|0.853607177734375|-0.3364105224609375|141127.5110227917|-1.292771798450698|-1.343044420996783|-0.9994681286585827|1.663012862205505|-0.4844470024108887|-0.3415769040584564|0.4489809274673462|0.05816948413848877|-0.2077379822731018|XArbitraryZVertical|-0.6283818376518033|-0.2099733476513993|-0.1758694253433202|0.728091761758851|-0.5267860293388367|0.8411834836006165|-0.1220949217677116|0|0|0|-1|-1|3
2021-04-22 22:03:21.078 +0100|141127.5509457917|-0.1984100341796875|0.790283203125|-0.31317138671875|141127.5309837917|-1.234199818278627|-1.305892343514115|-0.9855817293997842|1.764452457427979|-0.6789757609367371|-0.2250169664621353|0.4584180116653442|0.03286147117614746|-0.1977384090423584|XArbitraryZVertical|-0.6161943648826781|-0.2190743251800526|-0.1705452087225313|0.737038320158888|-0.5331103205680847|0.8335935473442078|-0.1446218937635422|0|0|0|-1|-1|3
2021-04-22 22:03:21.098 +0100|141127.5709067917|-0.2308197021484375|0.6991424560546875|-0.3036346435546875|141127.5509457917|-1.175311582829419|-1.271056998794235|-0.9718687303859538|1.759507179260254|-0.7129372954368591|-0.1767987608909607|0.3520210981369019|-0.01449346542358398|-0.1540179252624512|XArbitraryZVertical|-0.6038016682309856|-0.2284576601725828|-0.1637932382217156|0.7459239946893075|-0.5386213660240173|0.8259406685829163|-0.1664612889289856|0|0|0|-1|-1|3
2021-04-22 22:03:21.118 +0100|141127.5908677917|-0.3142547607421875|0.7049560546875|-0.2682647705078125|141127.5709067917|-1.121419057138997|-1.241447213445815|-0.9585401954148157|1.515256404876709|-0.778019905090332|-0.1401887238025665|0.3238093852996826|-0.1015869379043579|-0.1222103983163834|XArbitraryZVertical|-0.5921251259617493|-0.2375889405091648|-0.1567107329013976|0.753910705254442|-0.5438264012336731|0.8183534741401672|-0.1858786642551422|0|0|0|-1|-1|3
2021-04-22 22:03:21.138 +0100|141127.6108297917|-0.3871002197265625|0.77081298828125|-0.2332000732421875|141127.5908677917|-1.080648438168946|-1.22444442379239|-0.9477064870908349|1.081372618675232|-0.8314493298530579|-0.1031432673335075|0.2565358281135559|-0.1201390027999878|-0.07920083403587341|XArbitraryZVertical|-0.5832933394052301|-0.2464161274314619|-0.1497150915698786|0.7593638014015021|-0.5488945841789246|0.8120792508125305|-0.1980959475040436|0|0|0|-1|-1|3
2021-04-22 22:03:21.158 +0100|141127.6307907917|-0.4677734375|0.87811279296875|-0.260711669921875|141127.6108297917|-1.05276415243578|-1.218526151901626|-0.9400480384207964|0.7378527522087097|-0.8221187591552734|-0.05051307752728462|0.1873378157615662|-0.0594632625579834|-0.0363403856754303|XArbitraryZVertical|-0.5774691561541635|-0.2545367141179753|-0.1432336332132543|0.7623808642189481|-0.5535338521003723|0.8075864315032959|-0.2034808695316315|0|0|0|-1|-1|3
2021-04-22 22:03:21.178 +0100|141127.6507527917|-0.48291015625|0.8925323486328125|-0.2765350341796875|141127.6307907917|-1.033093256138827|-1.218478589015702|-0.9353214742774909|0.5539021492004395|-0.7619931101799011|0.006716741714626551|0.1037311553955078|0.04568928480148315|-0.04601591825485229|XArbitraryZVertical|-0.5737329438745372|-0.2615710908704669|-0.1372237218599568|0.7639246277223065|-0.5571007132530212|0.8047899603843689|-0.2048221528530121|0|0|0|-1|-1|3
2021-04-22 22:03:21.198 +0100|141127.6707137917|-0.5137939453125|0.822784423828125|-0.217803955078125|141127.6507527917|-1.015494011582501|-1.219627077986916|-0.931963143366639|0.5296967625617981|-0.7806344628334045|0.03980687260627747|0.07824146747589111|0.09845322370529175|-0.07931190729141235|XArbitraryZVertical|-0.5706201476310799|-0.2680247216432435|-0.1312197641475805|0.7650731527769113|-0.5598703026771545|0.8027920126914978|-0.2051107883453369|0|0|0|-1|-1|3
2021-04-22 22:03:21.218 +0100|141127.6906747917|-0.5498504638671875|0.7935028076171875|-0.1471405029296875|141127.6707137917|-0.999859141424649|-1.222452367921236|-0.929917742610444|0.3970115184783936|-0.7604575753211975|0.0905783548951149|0.05577903985977173|0.04036366939544678|-0.02868339419364929|XArbitraryZVertical|-0.5681532335378482|-0.2741491682030424|-0.1250721832140052|0.7657684410925915|-0.5619899034500122|0.8015707731246948|-0.2040882706642151|0|0|0|-1|-1|3
2021-04-22 22:03:21.238 +0100|141127.7106367917|-0.6030120849609375|0.8406524658203125|-0.1296844482421875|141127.6906747917|-0.9907607627817339|-1.230441954702553|-0.9306020001026181|0.06430163234472275|-0.7647589445114136|0.166916623711586|0.02454125881195068|-0.01212358474731445|0.03720885515213013|XArbitraryZVertical|-0.5675589907684511|-0.2795934423637243|-0.1191068241832203|0.7651915305881363|-0.5630853772163391|0.8019797205924988|-0.1994085907936096|0|0|0|-1|-1|3
2021-04-22 22:03:21.258 +0100|141127.7305977917|-0.63629150390625|0.8170166015625|-0.127655029296875|141127.7106367917|-0.9908029653651271|-1.245552008018504|-0.9348159982379814|-0.1701299101114273|-0.7440735101699829|0.223476305603981|-0.02555263042449951|0.02412360906600952|0.06214249134063721|XArbitraryZVertical|-0.569530863714396|-0.2841415800168781|-0.113500043696096|0.7628998002702282|-0.5628266930580139|0.80448979139328|-0.1897963136434555|0|0|0|-1|-1|3
2021-04-22 22:03:21.278 +0100|141127.7505587917|-0.6552734375|0.7596588134765625|-0.096527099609375|141127.7305977917|-0.9957873045390548|-1.264313617362238|-0.9403651515906895|-0.2962377369403839|-0.7368720173835754|0.203757107257843|-0.06680691242218018|0.03838765621185303|0.04489046335220337|XArbitraryZVertical|-0.5726953738815445|-0.2882582625633476|-0.1082786916284843|0.759738862340271|-0.562023401260376|0.8077734112739563|-0.1778543591499329|0|0|0|-1|-1|3
2021-04-22 22:03:21.298 +0100|141127.7705207917|-0.696441650390625|0.787445068359375|-0.0636749267578125|141127.7505587917|-1.007768282135341|-1.287827282627795|-0.9472490755551236|-0.6282615661621094|-0.6979121565818787|0.1887603104114532|-0.09295976161956787|-0.04032784700393677|0.05800963938236237|XArbitraryZVertical|-0.577392331448655|-0.291720366682764|-0.1038510274135955|0.7554682794193731|-0.560696542263031|0.8118122816085815|-0.1630346477031708|0|0|0|-1|-1|3
2021-04-22 22:03:21.318 +0100|141127.7904817917|-0.764251708984375|0.991424560546875|-0.12615966796875|141127.7705207917|-1.032654630884793|-1.320964066512179|-0.9556600862687532|-1.027473330497742|-0.6118254065513611|0.2239300161600113|-0.1259198784828186|-0.06295633316040039|0.07611799240112305|XArbitraryZVertical|-0.5847579204498788|-0.2944832108383273|-0.1008567846032819|0.7491100702353506|-0.5591542720794678|0.8166948556900024|-0.1426756232976913|0|0|0|-1|-1|3
2021-04-22 22:03:21.338 +0100|141127.8104437917|-0.798126220703125|1.095565795898438|-0.1517791748046875|141127.7904817917|-1.066294384845029|-1.359174006957141|-0.965563385059622|-0.9845662117004395|-0.4316016733646393|0.3261831402778625|-0.1847363710403442|0.1156187653541565|0.007111668586730957|XArbitraryZVertical|-0.5938986214746718|-0.2958565560198957|-0.09887568766287189|0.741604371431406|-0.5562613010406494|0.8223695755004883|-0.1195066496729851|0|0|0|-1|-1|3
2021-04-22 22:03:21.358 +0100|141127.8304047917|-0.7548828125|1.01690673828125|-0.1438140869140625|141127.8104437917|-1.090708472705037|-1.385309440259298|-0.9750124762531264|-0.545873761177063|-0.1658189594745636|0.3640882968902588|-0.245861828327179|0.2572064399719238|-0.04355610907077789|XArbitraryZVertical|-0.6008448952492171|-0.2953634889770614|-0.09694323532845368|0.7364428663816189|-0.5515323877334595|0.827708899974823|-0.1034916415810585|0|0|0|-1|-1|3
2021-04-22 22:03:21.378 +0100|141127.8503657917|-0.7284088134765625|0.9271087646484375|-0.1107940673828125|141127.8304047917|-1.099166700034746|-1.393480922593482|-0.9836034161280677|-0.1271315962076187|0.0360281839966774|0.4029967784881592|-0.2216283082962036|0.216359555721283|-0.05323052406311035|XArbitraryZVertical|-0.6042944366543664|-0.2932004416661442|-0.09471231223263951|0.7347730576618285|-0.545339822769165|0.8324991464614868|-0.09772346913814545|0|0|0|-1|-1|3
2021-04-22 22:03:21.398 +0100|141127.8703277917|-0.709320068359375|0.8723297119140625|-0.08416748046875|141127.8503657917|-1.097804630813292|-1.389914165626865|-0.9926860949952244|0.01568194665014744|0.1997596472501755|0.5084940195083618|-0.1951084733009338|0.1081361174583435|-0.02075956761837006|XArbitraryZVertical|-0.6058259903994353|-0.2895221778718894|-0.09224181106476799|0.7352844777949697|-0.537527322769165|0.837496817111969|-0.09830355644226074|0|0|0|-1|-1|3
2021-04-22 22:03:21.418 +0100|141127.8902887917|-0.683685302734375|0.8134918212890625|-0.0602569580078125|141127.8703277917|-1.092234515175748|-1.379884969851036|-1.003192769707057|0.07739190012216568|0.3291623294353485|0.5794413089752197|-0.1875020861625671|0.04456454515457153|0.01316334307193756|XArbitraryZVertical|-0.6067667135459643|-0.2843010962129373|-0.08971042619271064|0.7368575754774626|-0.5278454422950745|0.8431917428970337|-0.1020140871405602|0|0|0|-1|-1|3
2021-04-22 22:03:21.438 +0100|141127.9102497917|-0.6827392578125|0.7945098876953125|-0.0408935546875|141127.8902887917|-1.084338524996159|-1.365755677548842|-1.014352907868626|0.1052246913313866|0.4069059193134308|0.5950384736061096|-0.173034131526947|-0.02379101514816284|0.04331600666046143|XArbitraryZVertical|-0.6073793924915299|-0.278066103591539|-0.08735706214090071|0.7390117627586955|-0.5171059966087341|0.8491389751434326|-0.107539027929306|0|0|0|-1|-1|3
2021-04-22 22:03:21.458 +0100|141127.9302117917|-0.6683349609375|0.7933349609375|-0.0308074951171875|141127.9102497917|-1.076317772759201|-1.350184648272205|-1.025438138928127|0.07234889268875122|0.4698054790496826|0.5689752101898193|-0.1724822521209717|-0.05947023630142212|0.06794917583465576|XArbitraryZVertical|-0.60795983457244|-0.2713475380602014|-0.08543164309903246|0.7412536368848741|-0.5061526894569397|0.8549415469169617|-0.1135107055306435|0|0|0|-1|-1|3
2021-04-22 22:03:21.478 +0100|141127.9501727917|-0.6329345703125|0.805755615234375|-0.0148162841796875|141127.9302117917|-1.070252088688897|-1.334897766760224|-1.035651284688946|-0.001157986931502819|0.5285959839820862|0.4939931035041809|-0.1800459921360016|-0.06617295742034912|0.08763360977172852|XArbitraryZVertical|-0.6086883387478559|-0.2643949679228834|-0.08444744541429547|0.7432782702166404|-0.4958424270153046|0.8601946830749512|-0.1191876158118248|0|0|0|-1|-1|3
2021-04-22 22:03:21.498 +0100|141127.9701337917|-0.5940093994140625|0.8017578125|0.007293701171875|141127.9501727917|-1.067124131227575|-1.321506421090415|-1.044758428122408|-0.05634459480643272|0.5356515645980835|0.4366565048694611|-0.1564923822879791|-0.0624808669090271|0.103723056614399|XArbitraryZVertical|-0.6096826169275236|-0.2575805369928005|-0.08435904701638779|0.7448644092599201|-0.486589640378952|0.8648032546043396|-0.1238787472248077|0|0|0|-1|-1|3
2021-04-22 22:03:21.518 +0100|141127.9900957917|-0.5576171875|0.801300048828125|-0.007720947265625|141127.9701337917|-1.065586855978804|-1.309951408691967|-1.052888405755049|-0.09415221214294434|0.4830978810787201|0.3690171837806702|-0.1254432201385498|-0.06238394975662231|0.1283174902200699|XArbitraryZVertical|-0.6107642062071303|-0.2512555812052538|-0.08464019643227513|0.746105801963005|-0.4783169031143188|0.8688567876815796|-0.1276754289865494|0|0|0|-1|-1|3
2021-04-22 22:03:21.538 +0100|141128.0100567917|-0.486236572265625|0.8028411865234375|-0.088165283203125|141127.9900957917|-1.067817364630088|-1.302772179148363|-1.060483983748039|-0.191039502620697|0.4325853288173676|0.3413977026939392|-0.09985160827636719|-0.08503997325897217|0.1321634650230408|XArbitraryZVertical|-0.6123878870432021|-0.245568241622623|-0.08517853913112784|0.7466070882621575|-0.4710105955600739|0.8725919723510742|-0.1293546259403229|0|0|0|-1|-1|3
2021-04-22 22:03:21.557 +0100|141128.0300187917|-0.5057830810546875|0.8238372802734375|-0.099456787109375|141128.0100567917|-1.077041108346875|-1.305320317005848|-1.063491983614272|-0.2022705376148224|0.2434645295143127|0.2808922827243805|-0.02675643563270569|-0.05974143743515015|0.05063797533512115|XArbitraryZVertical|-0.6142736525095162|-0.2427663683274481|-0.08685263546390951|0.745780880793343|-0.4688036143779755|0.8740572929382324|-0.1274647414684296|0|0|0|-1|-1|3
2021-04-22 22:03:21.578 +0100|141128.0499797917|-0.4592437744140625|0.869140625|-0.1311492919921875|141128.0300187917|-1.089736804909105|-1.313945202703358|-1.06719679653543|-0.3290372788906097|0.1720052510499954|0.3030359447002411|-0.03486746549606323|-0.0708584189414978|0.02643352746963501|XArbitraryZVertical|-0.6169743735606873|-0.2409274083108031|-0.08770898076569641|0.7440456263871568|-0.4667503535747528|0.8758511543273926|-0.1225932091474533|0|0|0|-1|-1|3
2021-04-22 22:03:21.597 +0100|141128.0699407917|-0.4199981689453125|0.8596343994140625|-0.138824462890625|141128.0499797917|-1.104603562571401|-1.325293639415448|-1.071976119437239|-0.2925830781459808|0.125067725777626|0.3090565204620361|-0.01041150093078613|-0.01633107662200928|-0.009842872619628906|XArbitraryZVertical|-0.620254094616031|-0.2390605492604053|-0.08814431737084219|0.7418663089546998|-0.4640456736087799|0.8781476020812988|-0.1162698268890381|0|0|0|-1|-1|3
2021-04-22 22:03:21.617 +0100|141128.0899027917|-0.4126434326171875|0.85968017578125|-0.1404876708984375|141128.0699407917|-1.117244833954091|-1.336075340359974|-1.076988341516882|-0.2303684502840042|0.05426199734210968|0.333610326051712|0.0341816246509552|-0.01496422290802002|-0.03025161474943161|XArbitraryZVertical|-0.6232563492929054|-0.2375585842031427|-0.08781383477917143|0.7398690689826311|-0.4609855711460114|0.8805343508720398|-0.1102348864078522|0|0|0|-1|-1|3
2021-04-22 22:03:21.638 +0100|141128.1098637917|-0.3983917236328125|0.873748779296875|-0.1576385498046875|141128.0899027917|-1.125835341491675|-1.343497062617278|-1.083150603156645|-0.2144213616847992|0.03204106166958809|0.3364576995372772|0.04345530271530151|-0.0244295597076416|-0.03438185900449753|XArbitraryZVertical|-0.6258274912399411|-0.235684200727829|-0.08662111538313887|0.7384374012030559|-0.4564958214759827|0.8834384083747864|-0.1055858209729195|0|0|0|-1|-1|3
2021-04-22 22:03:21.657 +0100|141128.1298247917|-0.3593597412109375|0.8593292236328125|-0.213653564453125|141128.1098637917|-1.131338035578746|-1.347761244693875|-1.088671355080213|-0.1548514664173126|0.04471360892057419|0.3018603324890137|0.0480189323425293|-0.01526868343353271|-0.04699219763278961|XArbitraryZVertical|-0.6277431614170726|-0.2337937562296183|-0.08547432568057453|0.7375455739342166|-0.452178955078125|0.8860116600990295|-0.102558009326458|0|0|0|-1|-1|3
2021-04-22 22:03:21.677 +0100|141128.1497867917|-0.376556396484375|0.8199615478515625|-0.199005126953125|141128.1298247917|-1.132518822637096|-1.348139592660752|-1.093413743691304|-0.04434099420905113|-0.009915389120578766|0.2484490424394608|0.07935488224029541|-0.01765590906143188|-0.102322056889534|XArbitraryZVertical|-0.6288218603473088|-0.2320648988192113|-0.08420753123673209|0.7373183365427293|-0.4481144845485687|0.888200581073761|-0.1014579012989998|0|0|0|-1|-1|3
2021-04-22 22:03:21.697 +0100|141128.1697474167|-0.37933349609375|0.8246612548828125|-0.1772003173828125|141128.1497867917|-1.131656365254355|-1.347566403603794|-1.098036863413418|-0.1163706257939339|-0.02771371975541115|0.2247477918863297|0.07461604475975037|-0.06441789865493774|-0.1054930686950684|XArbitraryZVertical|-0.6295966290591604|-0.2306638162682327|-0.08252597382349199|0.7372868924760443|-0.4440469741821289|0.8903151750564575|-0.1008045747876167|0|0|0|-1|-1|3
2021-04-22 22:03:21.717 +0100|141128.1897084167|-0.3876190185546875|0.848663330078125|-0.162384033203125|141128.1697474167|-1.13459750607212|-1.349875109403694|-1.102937736746713|-0.1920413970947266|0.01774446666240692|0.2056878060102463|0.06004098057746887|-0.07130801677703857|-0.08297025412321091|XArbitraryZVertical|-0.6309763889637684|-0.2290369183257192|-0.08124456722061434|0.736756624594237|-0.4400157332420349|0.8925360441207886|-0.09882177412509918|0|0|0|-1|-1|3
2021-04-22 22:03:21.737 +0100|141128.2096704167|-0.3907318115234375|0.8719635009765625|-0.1664276123046875|141128.1897084167|-1.139579108366539|-1.353088019117285|-1.107881749000853|-0.2195140570402145|0.05280802026391029|0.1944346278905869|0.05300569534301758|-0.04932636022567749|-0.06470893323421478|XArbitraryZVertical|-0.6326206208828822|-0.2270782959735944|-0.08040964789140005|0.7360440942749416|-0.4360168874263763|0.8947547674179077|-0.09645319730043411|0|0|0|-1|-1|3
2021-04-22 22:03:21.757 +0100|141128.2296314167|-0.4231719970703125|0.8906402587890625|-0.1417083740234375|141128.2096704167|-1.142675623579128|-1.353766540467178|-1.11272575216774|-0.1914421916007996|0.05261451378464699|0.1692380905151367|0.03973931074142456|-0.02872800827026367|-0.06856364011764526|XArbitraryZVertical|-0.6339162909651047|-0.224808039060728|-0.07971186431222664|0.7357021289583645|-0.4318448007106781|0.8969073891639709|-0.09522296488285065|0|0|0|-1|-1|3
2021-04-22 22:03:21.777 +0100|141128.2495934167|-0.4326171875|0.90313720703125|-0.13995361328125|141128.2296314167|-1.144252167034677|-1.352981491640331|-1.116935256585693|-0.2166107594966888|0.05959620326757431|0.1604676842689514|0.01638194918632507|-0.01825255155563354|-0.0519058033823967|XArbitraryZVertical|-0.6348553437849845|-0.2226793364336015|-0.07913041671451299|0.7356025185200773|-0.4280796945095062|0.898760974407196|-0.0947452113032341|0|0|0|-1|-1|3
2021-04-22 22:03:21.797 +0100|141128.2695544167|-0.4615631103515625|0.9366912841796875|-0.1306304931640625|141128.2495934167|-1.147769916004367|-1.354119015922433|-1.120327965154887|-0.2182369232177734|0.04907789081335068|0.1316885054111481|-0.006907105445861816|0.005045473575592041|-0.05401021242141724|XArbitraryZVertical|-0.635926652373981|-0.2208986680090023|-0.0789254669014746|0.7352360055654049|-0.4252069294452667|0.9002432823181152|-0.09360214322805405|0|0|0|-1|-1|3
2021-04-22 22:03:21.817 +0100|141128.2895154167|-0.4727630615234375|0.966156005859375|-0.144317626953125|141128.2695544167|-1.153427884005912|-1.357176332914988|-1.123923539721636|-0.2210704684257507|0.08586487919092178|0.1413350850343704|-0.03206682205200195|0.02210152149200439|-0.03797679394483566|XArbitraryZVertical|-0.6373380061885241|-0.2190726320713136|-0.07882498756624166|0.7345707559749183|-0.4223250150680542|0.9018028974533081|-0.09161489456892014|0|0|0|-1|-1|3
2021-04-22 22:03:21.837 +0100|141128.3094774167|-0.52142333984375|0.979034423828125|-0.141357421875|141128.2895154167|-1.156011601330283|-1.356903810776912|-1.12708165158842|-0.1120751798152924|0.09824436902999878|0.1247311681509018|-0.05297374725341797|0.06070411205291748|-0.05169600248336792|XArbitraryZVertical|-0.6381915820078888|-0.2171381646940168|-0.07880047203368465|0.7344067236410592|-0.4195150434970856|0.9031631946563721|-0.09112504124641418|0|0|0|-1|-1|3
2021-04-22 22:03:21.857 +0100|141128.3294384167|-0.5104217529296875|0.97052001953125|-0.156219482421875|141128.3094774167|-1.15584853719362|-1.354323683306669|-1.129814278551899|-0.05773036926984787|0.1083924546837807|0.1475068777799606|-0.08847451210021973|0.07155823707580566|-0.05399775505065918|XArbitraryZVertical|-0.6385753510354936|-0.2153675414753942|-0.07864677846253196|0.7346109265161177|-0.4168664813041687|0.9043329358100891|-0.09167668968439102|0|0|0|-1|-1|3
2021-04-22 22:03:21.877 +0100|141128.3493994167|-0.4638519287109375|0.9200286865234375|-0.15655517578125|141128.3294384167|-1.152602635600681|-1.348156573470623|-1.132220588841722|0.0341966412961483|0.1507373452186584|0.1425104439258575|-0.1108857691287994|0.07532507181167603|-0.05519008636474609|XArbitraryZVertical|-0.6384292989806875|-0.2133671025134726|-0.07861593510837955|0.7353245730144549|-0.414169579744339|0.9053574204444885|-0.0937650203704834|0|0|0|-1|-1|3
2021-04-22 22:03:21.897 +0100|141128.3693614167|-0.423828125|0.861572265625|-0.1466064453125|141128.3493994167|-1.147342270394458|-1.340579422449049|-1.134176404947804|0.08165533095598221|0.1096912696957588|0.1531781703233719|-0.05998805165290833|0.02842998504638672|-0.06234645843505859|XArbitraryZVertical|-0.6379368793302015|-0.2116326575150338|-0.07844397303325723|0.7362709730363737|-0.4117225706577301|0.9061862230300903|-0.09649631381034851|0|0|0|-1|-1|3
2021-04-22 22:03:21.917 +0100|141128.3893224167|-0.4324951171875|0.8236083984375|-0.1277008056640625|141128.3693614167|-1.140090786206833|-1.331789481035277|-1.136031602198803|0.09866303205490112|0.0788484588265419|0.1537205725908279|-0.02703994512557983|-0.02841371297836304|-0.05079807341098785|XArbitraryZVertical|-0.63717772489855|-0.2101138568947976|-0.07795516356587974|0.7374144199831711|-0.4092245697975159|0.9069691896438599|-0.09971342980861664|0|0|0|-1|-1|3
2021-04-22 22:03:21.937 +0100|141128.4092834167|-0.438934326171875|0.8597259521484375|-0.127655029296875|141128.3893224167|-1.134842727583049|-1.325645872815278|-1.137963428089663|-0.006643516011536121|0.06195554882287979|0.1820776462554932|-0.01138612627983093|-0.08708709478378296|-0.03323894739151001|XArbitraryZVertical|-0.6367568207596939|-0.2089035166902184|-0.077332332696902|0.7381869443652614|-0.406903475522995|0.9077811241149902|-0.1018001437187195|0|0|0|-1|-1|3
2021-04-22 22:03:21.957 +0100|141128.4292454167|-0.4043121337890625|0.8341522216796875|-0.1283416748046875|141128.4092834167|-1.132711413614176|-1.321658228908072|-1.139592215280846|0.01335174683481455|0.1247454881668091|0.1367373317480087|-0.04487532377243042|-0.0511326789855957|-0.02815192937850952|XArbitraryZVertical|-0.6366922944544987|-0.2075916619165253|-0.07727342813297879|0.7386187793096756|-0.4050610065460205|0.9084631204605103|-0.1030572503805161|0|0|0|-1|-1|3
2021-04-22 22:03:21.977 +0100|141128.4492064167|-0.3833465576171875|0.781829833984375|-0.104339599609375|141128.4292454167|-1.12786075012996|-1.314652916471723|-1.140421029694453|0.07386432588100433|0.1022899821400642|0.1061609461903572|-0.00641903281211853|-0.05956602096557617|-0.02317314594984055|XArbitraryZVertical|-0.6360791074453467|-0.206282985637949|-0.07743479124885522|0.7394962231212294|-0.40360027551651|0.9088092446327209|-0.1057013943791389|0|0|0|-1|-1|3
2021-04-22 22:03:21.997 +0100|141128.4691684167|-0.3580169677734375|0.7531280517578125|-0.100982666015625|141128.4492064167|-1.121823189708079|-1.306806675331009|-1.140570395708319|0.05827850848436356|0.1053008437156677|0.06289532780647278|0.01021656394004822|-0.115414559841156|0.0014849454164505|XArbitraryZVertical|-0.6351828526779356|-0.205251212264508|-0.07764496732829962|0.7405308453919008|-0.4026271998882294|0.9088715314865112|-0.1088293641805649|0|0|0|-1|-1|3
2021-04-22 22:03:22.017 +0100|141128.4891294167|-0.3603363037109375|0.7739715576171875|-0.1061248779296875|141128.4691684167|-1.119425381967175|-1.302619166655949|-1.140069432382274|-0.01757014915347099|0.0743396207690239|0.009452607482671738|0.04280456900596619|-0.1545882821083069|0.007731020450592041|XArbitraryZVertical|-0.634675569777067|-0.2046200343925122|-0.07825182914762296|0.7410764784756463|-0.4026072323322296|0.9086624979972839|-0.1106351241469383|0|0|0|-1|-1|3
2021-04-22 22:03:22.037 +0100|141128.5090904167|-0.404998779296875|0.81732177734375|-0.1005401611328125|141128.4891294167|-1.120716370851662|-1.302344340641026|-1.13850736537796|-0.04119350388646126|0.06060868501663208|-0.03362730517983437|0.04493579268455505|-0.1360821723937988|0.003609895706176758|XArbitraryZVertical|-0.6344892456966266|-0.2046028353887306|-0.07933320549629226|0.7411258520794296|-0.4039450287818909|0.9080091714859009|-0.111122153699398|0|0|0|-1|-1|3
2021-04-22 22:03:22.057 +0100|141128.5290524167|-0.4441680908203125|0.8967437744140625|-0.078460693359375|141128.5090904167|-1.124272800160602|-1.304458691555301|-1.137875480506106|-0.07848247140645981|0.06361720710992813|-0.0668918713927269|0.0125809907913208|-0.1054218411445618|0.00594300776720047|XArbitraryZVertical|-0.6348131397639811|-0.2044575854244408|-0.08018847912139296|0.7407963739638285|-0.4047322869300842|0.9077442288398743|-0.1104187443852425|0|0|0|-1|-1|3
2021-04-22 22:03:22.077 +0100|141128.5490134167|-0.45428466796875|0.9293975830078125|-0.0604705810546875|141128.5290524167|-1.127654842635427|-1.305750119595433|-1.136508834360368|-0.00386330927722156|0.1243394091725349|-0.1050926148891449|-0.02868232131004333|-0.02762287855148315|0.02613085508346558|XArbitraryZVertical|-0.6349432593788208|-0.2042954191472963|-0.08148280565219172|0.7405883786900684|-0.4060715436935425|0.9071700572967529|-0.11022087931633|0|0|0|-1|-1|3
2021-04-22 22:03:22.097 +0100|141128.5689744167|-0.4332275390625|0.9096221923828125|-0.0536651611328125|141128.5490134167|-1.126569253455489|-1.301589293296351|-1.13362715926439|0.124311089515686|0.1912254989147186|-0.1613460332155228|-0.04902607202529907|0.02193319797515869|0.04972399026155472|XArbitraryZVertical|-0.6340955076920654|-0.2040116112211217|-0.08335267384608847|0.741184580945997|-0.408127635717392|0.9059538245201111|-0.1126042976975441|0|0|0|-1|-1|3
2021-04-22 22:03:22.116 +0100|141128.5889364167|-0.4116973876953125|0.88922119140625|-0.0594024658203125|141128.5689744167|-1.121798807510619|-1.293442185211028|-1.12945232753869|0.1659141927957535|0.1900398582220078|-0.1884375661611557|-0.02396866679191589|0.009563803672790527|0.06390661001205444|XArbitraryZVertical|-0.6324373100075349|-0.2038208308443354|-0.08553912729438143|0.7424037774628116|-0.4108309745788574|0.9041783809661865|-0.116960234940052|0|0|0|-1|-1|3
2021-04-22 22:03:22.136 +0100|141128.6088974167|-0.4349365234375|0.8881683349609375|-0.0443878173828125|141128.5889364167|-1.117061684081871|-1.285948053993391|-1.124677226741017|0.1474465280771255|0.1261740624904633|-0.2156320810317993|0.00192597508430481|-0.003187358379364014|0.06036616861820221|XArbitraryZVertical|-0.6306698491081691|-0.2040386233141351|-0.08771491187060471|0.743592575340665|-0.4140815138816833|0.9021283984184265|-0.1212475597858429|0|0|0|-1|-1|3
2021-04-22 22:03:22.156 +0100|141128.6288584167|-0.4524383544921875|0.91668701171875|-0.040191650390625|141128.6088974167|-1.117724456996188|-1.284870990558198|-1.120039272992167|0.008055651560425758|0.07831055670976639|-0.183881089091301|-0.008477002382278442|-0.02296596765518188|0.07685303688049316|XArbitraryZVertical|-0.6297491788327287|-0.2048896716270942|-0.08982238434722606|0.743887361186898|-0.4179608225822449|0.9001175761222839|-0.1228723898530006|0|0|0|-1|-1|3
2021-04-22 22:03:22.176 +0100|141128.6488204167|-0.455535888671875|0.954559326171875|-0.0585174560546875|141128.6288584167|-1.123609750870421|-1.289492770414258|-1.116792336036048|-0.06029167771339417|0.05060958117246628|-0.1464181244373322|-0.02807280421257019|0.009306550025939941|0.08183419704437256|XArbitraryZVertical|-0.6299052654929891|-0.2057774567771521|-0.09162064538882832|0.7432905145973916|-0.421329528093338|0.8986982703208923|-0.1217499896883965|0|0|0|-1|-1|3
2021-04-22 22:03:22.196 +0100|141128.6687814167|-0.444915771484375|0.960784912109375|-0.09014892578125|141128.6488204167|-1.131100579614486|-1.296022505322488|-1.114925802314125|-0.07600335031747818|0.02557549253106117|-0.1160179674625397|-0.03502660989761353|0.05399572849273682|0.06764876842498779|XArbitraryZVertical|-0.6306032820984443|-0.2064313634221049|-0.09295896658789898|0.7423505745815411|-0.4237293303012848|0.897878110408783|-0.1194511875510216|0|0|0|-1|-1|3
2021-04-22 22:03:22.216 +0100|141128.6887434167|-0.4558258056640625|0.963348388671875|-0.113616943359375|141128.6687814167|-1.138584639887048|-1.303362769673884|-1.113800992351271|-0.1008968502283096|-0.03561441600322723|-0.09297434240579605|-0.01972922682762146|0.06022876501083374|0.03571879863739014|XArbitraryZVertical|-0.6314960259548422|-0.2071485289793662|-0.09378965230836697|0.741286646992155|-0.4255684614181519|0.897382378578186|-0.1166045144200325|0|0|0|-1|-1|3
2021-04-22 22:03:22.236 +0100|141128.7087044167|-0.4650421142578125|0.9683685302734375|-0.1326141357421875|141128.6887434167|-1.146901123144092|-1.312333871013765|-1.113137313309894|-0.1239451617002487|-0.0463266596198082|-0.06321822851896286|-0.02557083964347839|0.06679320335388184|0.005650877952575684|XArbitraryZVertical|-0.6326506094109705|-0.2080530516595825|-0.09425364727185984|0.73998888311305|-0.4271731376647949|0.8970893025398254|-0.1129342690110207|0|0|0|-1|-1|3
2021-04-22 22:03:22.256 +0100|141128.7286654167|-0.4261627197265625|0.948944091796875|-0.163665771484375|141128.7087044167|-1.155727564967405|-1.321220407611458|-1.112978260563728|-0.1045825630426407|0.02660533785820007|-0.02599948272109032|-0.03982695937156677|0.06516963243484497|-0.018057681620121|XArbitraryZVertical|-0.6339591586658281|-0.2085936760332034|-0.09475512709219638|0.7386514232890106|-0.4282977879047394|0.8970190286636353|-0.1091689243912697|0|0|0|-1|-1|3
2021-04-22 22:03:22.276 +0100|141128.7486274167|-0.4342041015625|0.9196014404296875|-0.13934326171875|141128.7286654167|-1.160730677916339|-1.325629316170073|-1.112912580537379|-0.0005959102418273687|0.03441654890775681|-0.007250739261507988|-0.003083318471908569|0.06379497051239014|-0.05762189626693726|XArbitraryZVertical|-0.634677810261741|-0.2086554999479464|-0.09522563742512855|0.737956084168269|-0.4288323819637299|0.8969900012016296|-0.1072939187288284|0|0|0|-1|-1|3
2021-04-22 22:03:22.296 +0100|141128.7685884167|-0.3809661865234375|0.889373779296875|-0.133758544921875|141128.7685884167|-1.158227929081913|-1.319980498581938|-1.113798458076116|0.09312813729047775|0.1332836300134659|0.0257149338722229|0.03171229362487793|0.004794657230377197|-0.02488093823194504|XArbitraryZVertical|-0.6343174710835744|-0.2070813793842677|-0.09579937933891647|0.7386346947789293|-0.4274494349956512|0.8973812460899353|-0.1095172986388206|0|0|0|-1|-1|3
2021-04-22 22:03:22.316 +0100|141128.7885494167|-0.35986328125|0.900238037109375|-0.09613037109375||||||||||||||||||||||||3
2021-04-22 22:03:22.336 +0100|141128.8085114167|-0.1627044677734375|1.057144165039062|0.0808258056640625|141128.7885494167|-1.151933818272239|-1.3114785157744|-1.114063648815704|0.2287105917930603|0.148506686091423|0.08529011160135269|0.06001579761505127|-0.01154237985610962|0.002232559025287628|XArbitraryZVertical|-0.6333110708380684|-0.2058491088194956|-0.09607944675891542|0.7398054555251639|-0.4262729287147522|0.8974982500076294|-0.113086462020874|0|0|0|-1|-1|3
2021-04-22 22:03:22.356 +0100|141128.8284724167|0.321380615234375|1.08331298828125|0.4714813232421875|141128.8085114167|-1.124808207097023|-1.286201653851651|-1.113788431928335|0.9923737049102783|-0.1443037241697311|0.171965092420578|0.1876755356788635|0.1013264060020447|0.1340111941099167|XArbitraryZVertical|-0.6292674482602911|-0.2051237466837567|-0.09408841904491859|0.7437031460713083|-0.4235159158706665|0.8973768353462219|-0.1238934546709061|0|0|0|-1|-1|3
2021-04-22 22:03:22.376 +0100|141128.8484344167|1.278244018554688|0.7426300048828125|0.5722808837890625|141128.8284724167|-1.057946547035165|-1.233122211134772|-1.106646495426221|2.043131589889526|-0.6477703452110291|-0.02187317982316017|0.5736578106880188|0.2332543134689331|0.5426266193389893|XArbitraryZVertical|-0.6184164849824775|-0.2083437376869372|-0.08795067001520816|0.7526080261358626|-0.4223826229572296|0.8942024707794189|-0.1483078747987747|0|0|0|-1|-1|3
