loggingTime(txt)|accelerometerTimestamp_sinceReboot(s)|accelerometerAccelerationX(G)|accelerometerAccelerationY(G)|accelerometerAccelerationZ(G)|motionTimestamp_sinceReboot(s)|motionYaw(rad)|motionRoll(rad)|motionPitch(rad)|motionRotationRateX(rad/s)|motionRotationRateY(rad/s)|motionRotationRateZ(rad/s)|motionUserAccelerationX(G)|motionUserAccelerationY(G)|motionUserAccelerationZ(G)|motionAttitudeReferenceFrame(txt)|motionQuaternionX(R)|motionQuaternionY(R)|motionQuaternionZ(R)|motionQuaternionW(R)|motionGravityX(G)|motionGravityY(G)|motionGravityZ(G)|motionMagneticFieldX(µT)|motionMagneticFieldY(µT)|motionMagneticFieldZ(µT)|motionHeading(°)|motionMagneticFieldCalibrationAccuracy(Z)|label
2021-04-22 20:28:42.483 +0100|136820.115896|0.1529388427734375|-0.394561767578125|-0.9097900390625|136820.095935|0.02099987985008783|0.1469370177941884|0.4171121102996123|-0.04227239638566971|0.02778453938663006|-0.02361253276467323|0.01618306338787079|0.03405946493148804|0.004370629787445068|XArbitraryZVertical|0.2057235149685575|0.07397598256054476|0.02544145932017984|0.9754785261106306|0.1338561475276947|-0.4051218628883362|-0.9044107794761658|0|0|0|-1|-1|3
2021-04-22 20:28:42.494 +0100|136820.135857|0.1400146484375|-0.393463134765625|-0.9149322509765625|136820.115896|0.02064625124711651|0.1472768533497203|0.4152890985828955|-0.06190503388643265|0.01483150944113731|-0.02940854802727699|0.03082798421382904|0.00376659631729126|-0.002102196216583252|XArbitraryZVertical|0.2048427791574002|0.07411003118062215|0.02524026699577407|0.975658893275445|0.134271651506424|-0.4034544825553894|-0.9050942659378052|0|0|0|-1|-1|3
2021-04-22 20:28:42.495 +0100|136820.155818|0.1264801025390625|-0.3837127685546875|-0.9111328125|136820.135857|0.02012190642430127|0.1483314564196142|0.4140502946774884|-0.05909067392349243|0.02208856865763664|-0.01469058729708195|-0.003800064325332642|0.009712845087051392|-0.006694555282592773|XArbitraryZVertical|0.2042444736465535|0.07457415347215342|0.02504886673363806|0.9757538470170528|0.1352998465299606|-0.4023206532001495|-0.9054457545280457|0|0|0|-1|-1|3
2021-04-22 20:28:42.496 +0100|136820.17578|0.1460113525390625|-0.4057769775390625|-0.90362548828125|136820.155818|0.02022889426421833|0.1487021878149874|0.4123790067467552|-0.009392793290317059|0.03078624233603477|0.009934153407812119|-0.006173044443130493|0.01617786288261414|-0.003715932369232178|XArbitraryZVertical|0.2034201225793728|0.07477043055145106|0.0250798992334875|0.9759102486776563|0.1357349455356598|-0.4007900357246399|-0.9060592651367188|0|0|0|-1|-1|3
2021-04-22 20:28:42.516 +0100|136820.195741|0.1369171142578125|-0.40679931640625|-0.894989013671875|136820.17578|0.02075203457622561|0.1491305593088882|0.4118513167243523|-0.01851711422204971|0.009773474186658859|0.03568976372480392|0.002120211720466614|-0.004935532808303833|0.0006157755851745605|XArbitraryZVertical|0.2031375615624981|0.07503401188528104|0.02536005452174016|0.9759415952572236|0.1361544728279114|-0.4003065228462219|-0.9062100648880005|0|0|0|-1|-1|3
2021-04-22 20:28:42.536 +0100|136820.215702|0.1536712646484375|-0.4052886962890625|-0.9027099609375|136820.195741|0.02160424483082229|0.1487989555195041|0.4111143605692219|-0.07112696766853333|-0.006266958080232143|0.03308235108852386|0.002361774444580078|-0.01073795557022095|0.01203024387359619|XArbitraryZVertical|0.2027500730214613|0.07496045242252565|0.02571622537675552|0.976018597386852|0.1358976513147354|-0.3996310830116272|-0.9065466523170471|0|0|0|-1|-1|3
2021-04-22 20:28:42.555 +0100|136820.235664|0.1245574951171875|-0.3878173828125|-0.9029693603515625|136820.215702|0.02216236701327951|0.1483280256869818|0.4101046806134446|-0.03521596640348434|-0.01924875006079674|-0.009973064064979553|0.009198874235153198|-0.001653939485549927|0.005076944828033447|XArbitraryZVertical|0.2022423340114813|0.07478937734405867|0.02590537727020301|0.976132021094008|0.1355302780866623|-0.3987053334712982|-0.9070091843605042|0|0|0|-1|-1|3
2021-04-22 20:28:42.575 +0100|136820.255625|0.15203857421875|-0.41058349609375|-0.9108734130859375|136820.235664|0.02207006362065453|0.1479478910266153|0.4091937221017627|-0.01622734591364861|-0.01267212629318237|-0.00692720664665103|-0.004990413784980774|0.00324779748916626|0.003641009330749512|XArbitraryZVertical|0.2018059124734705|0.07459645094249931|0.0257899493353211|0.976240145890942|0.1352389752864838|-0.397869735956192|-0.9074195027351379|0|0|0|-1|-1|3
2021-04-22 20:28:42.595 +0100|136820.275586|0.1436309814453125|-0.3890380859375|-0.9157562255859375|136820.255625|0.02220860483380552|0.147447613418759|0.4087541718882861|-0.05093599110841751|-0.02723253518342972|0.008087517693638802|0.01571682095527649|-0.008263945579528809|-0.001871168613433838|XArbitraryZVertical|0.2015925620259353|0.07436713282446795|0.02579173684994481|0.9763017172924753|0.134810671210289|-0.3974664509296417|-0.9076599478721619|0|0|0|-1|-1|3
2021-04-22 20:28:42.616 +0100|136820.295548|0.1399383544921875|-0.3915863037109375|-0.9161224365234375|136820.275586|0.02252819983390638|0.1469623651782989|0.407919172008361|-0.05857944488525391|-0.02655385434627533|0.01622968912124634|0.008250445127487183|0.005496114492416382|-0.004575371742248535|XArbitraryZVertical|0.2011792076324867|0.0741640965246292|0.02586977984515262|0.9764003016216221|0.1344187706708908|-0.3967000842094421|-0.9080532193183899|0|0|0|-1|-1|3
2021-04-22 20:28:42.635 +0100|136820.315509|0.1345672607421875|-0.3944854736328125|-0.90863037109375|136820.295548|0.02316326684819311|0.1462884780637703|0.4071323624402586|-0.04457741230726242|-0.02396302483975887|0.03084263205528259|0.007962450385093689|0.004224389791488647|-0.008632063865661621|XArbitraryZVertical|0.2007801743898308|0.07390034578164026|0.02608480362871203|0.9764967375308188|0.1338522732257843|-0.3959777355194092|-0.9084520936012268|0|0|0|-1|-1|3
2021-04-22 20:28:42.655 +0100|136820.33547|0.1483612060546875|-0.3929901123046875|-0.90777587890625|136820.315509|0.02410484450002693|0.1456264825924578|0.4061335881188931|-0.05565106868743896|-0.01955123245716095|0.04478197172284126|0.005317449569702148|-0.006122827529907227|-0.003392040729522705|XArbitraryZVertical|0.2002662971370707|0.07367310818565231|0.02644371516645828|0.9766096811073526|0.1333081722259521|-0.3950603902339935|-0.9089313745498657|0|0|0|-1|-1|3
2021-04-22 20:28:42.675 +0100|136820.355432|0.1358642578125|-0.391937255859375|-0.906219482421875|136820.33547|0.02481282125529112|0.145152128261495|0.4056717556775434|-0.01536361686885357|-0.02292833477258682|0.0142681822180748|0.01066611707210541|0.00126531720161438|-5.185604095458984e-06|XArbitraryZVertical|0.200020937583761|0.07351293842992201|0.02672610256785754|0.9766643925653697|0.1329033821821213|-0.3946360945701599|-0.909174919128418|0|0|0|-1|-1|3
2021-04-22 20:28:42.695 +0100|136820.375393|0.1400146484375|-0.4003448486328125|-0.90423583984375|136820.355432|0.02480067229254064|0.1449702026415196|0.4057037711179469|0.01993676647543907|-0.0192538108676672|-0.0008016694337129593|0.006454050540924072|0.002561241388320923|0.002661526203155518|XArbitraryZVertical|0.2000394614711118|0.07342284634821222|0.02670307293892345|0.9766679692721948|0.1327361464500427|-0.3946655094623566|-0.9091866016387939|0|0|0|-1|-1|3
2021-04-22 20:28:42.715 +0100|136820.395354|0.13385009765625|-0.3972625732421875|-0.89898681640625|136820.375393|0.02465875463295147|0.1448052679916168|0.4062336058753073|0.03421691805124283|-0.01906158216297626|0.005960629321634769|0.008373722434043884|-0.00111764669418335|0.006535172462463379|XArbitraryZVertical|0.200305702418435|0.07332743932256013|0.02663538737537427|0.9766223731221584|0.1325559914112091|-0.3951522707939148|-0.9090014100074768|0|0|0|-1|-1|3
2021-04-22 20:28:42.735 +0100|136820.415316|0.1317291259765625|-0.3948822021484375|-0.8946075439453125|136820.395354|0.02469219148034793|0.1446071391972467|0.4068340131953103|0.02703132666647434|-0.006730881985276937|0.008331552147865295|0.002331927418708801|-0.0009934008121490479|0.009561359882354736|XArbitraryZVertical|0.2006003896407155|0.07323327713555261|0.02665236075121973|0.9765685499114124|0.1323416829109192|-0.3957037329673767|-0.9087927341461182|0|0|0|-1|-1|3
2021-04-22 20:28:42.755 +0100|136820.435277|0.1284637451171875|-0.3974761962890625|-0.8988037109375|136820.415316|0.02476691655226868|0.1445587855457832|0.4073961729036086|0.02673515118658543|-0.003682892769575119|0.007411873899400234|-0.001360982656478882|0.007838845252990723|0.01151424646377563|XArbitraryZVertical|0.2008728875320171|0.07321645902006176|0.02670317457843802|0.9765124014775972|0.1322656720876694|-0.3962199687957764|-0.9085788726806641|0|0|0|-1|-1|3
2021-04-22 20:28:42.775 +0100|136820.455238|0.1374969482421875|-0.397491455078125|-0.89990234375|136820.435277|0.02486001721971847|0.1447010435168634|0.4076469164183572|0.01643692329525948|0.0004019150510430336|0.01433946657925844|-0.001643747091293335|-0.003649711608886719|0.01229733228683472|XArbitraryZVertical|0.2009900389516043|0.07329495319380204|0.02677147716214914|0.9764805713555227|0.1323805898427963|-0.3964501619338989|-0.9084616899490356|0|0|0|-1|-1|3
2021-04-22 20:28:42.795 +0100|136820.475199|0.1352386474609375|-0.3976898193359375|-0.89532470703125|136820.455238|0.02497717866245522|0.1448981297169275|0.408244491891702|0.04443177208304405|0.00519198551774025|0.009624073281884193|0.004620134830474854|0.001735866069793701|0.009412109851837158|XArbitraryZVertical|0.2012749620119209|0.07340221732217657|0.0268689108257671|0.9764111302263691|0.1325253993272781|-0.3969987034797668|-0.9082009792327881|0|0|0|-1|-1|3
2021-04-22 20:28:42.815 +0100|136820.495161|0.136749267578125|-0.402587890625|-0.898284912109375|136820.475199|0.02488493752929131|0.1450610805721734|0.4092291647144812|0.03914007171988487|0.005822887644171715|0.0007285824976861477|0.002667143940925598|0.001815438270568848|0.01239073276519775|XArbitraryZVertical|0.2017570282296832|0.07347122648510901|0.02687396785101621|0.9763063454060358|0.1326168328523636|-0.397902250289917|-0.9077921509742737|0|0|0|-1|-1|3
2021-04-22 20:28:42.835 +0100|136820.515122|0.13616943359375|-0.39105224609375|-0.898040771484375|136820.495161|0.02457942698751863|0.1452832663253723|0.4100464153929024|0.04261261597275734|0.007703559473156929|-0.02113161981105804|0.001871675252914429|-0.001249581575393677|0.0037841796875|XArbitraryZVertical|0.2021643649946089|0.07354774433767686|0.02677526653206249|0.9762189671110862|0.1327714025974274|-0.3986518979072571|-0.9074406027793884|0|0|0|-1|-1|3
2021-04-22 20:28:42.855 +0100|136820.535083|0.133544921875|-0.3962860107421875|-0.9035797119140625|136820.515122|0.02394874404079194|0.1455927922370532|0.4109512917633532|0.04786280542612076|-0.001601366326212883|-0.02533115819096565|0.00617508590221405|0.007957160472869873|0.01157969236373901|XArbitraryZVertical|0.2026252713015343|0.07363365833839121|0.0265298277369065|0.9761236046521001|0.1329998821020126|-0.3994815945625305|-0.9070421457290649|0|0|0|-1|-1|3
2021-04-22 20:28:42.875 +0100|136820.555045|0.1371002197265625|-0.403167724609375|-0.904327392578125|136820.535083|0.02339023491860939|0.1458243380791498|0.4121910123069094|0.0760442242026329|0.005503680557012558|-0.007287088315933943|0.001901999115943909|0.001387685537338257|0.004802107810974121|XArbitraryZVertical|0.2032480048457218|0.07368792542001429|0.02632341824368767|0.9759956973704853|0.1331378370523453|-0.400617778301239|-0.906520664691925|0|0|0|-1|-1|3
2021-04-22 20:28:42.904 +0100|136820.575006|0.1258544921875|-0.40643310546875|-0.891357421875|136820.555045|0.02317918299674885|0.1459502824268585|0.4136870648652786|0.07356312870979309|-0.005722928792238235|0.008147971704602242|0.008451670408248901|-0.001972228288650513|-0.0005236268043518066|XArbitraryZVertical|0.2039844047491471|0.0737252223586041|0.02628483073646115|0.9758402495533273|0.1331646889448166|-0.4019880890846252|-0.9059098958969116|0|0|0|-1|-1|3
2021-04-22 20:28:42.915 +0100|136820.5949675|0.1175689697265625|-0.4008331298828125|-0.8800506591796875|136820.575006|0.02330119660962311|0.1458797354151957|0.4149066798707607|0.04203948751091957|-0.003659405279904604|0.02427811734378338|-0.00825875997543335|-0.0005964040756225586|0.01267188787460327|XArbitraryZVertical|0.2045760707975691|0.07370103436473263|0.02637919384714116|0.9757157338977819|0.1330294162034988|-0.4031045436859131|-0.9054335951805115|0|0|0|-1|-1|3
2021-04-22 20:28:42.935 +0100|136820.6149295|0.1377716064453125|-0.4018096923828125|-0.872772216796875|136820.5949675|0.0237086330155321|0.1460361904934275|0.4154041041161418|0.01715531200170517|0.02424791269004345|0.01274627447128296|-0.01067528128623962|-0.0009652078151702881|0.02433919906616211|XArbitraryZVertical|0.2048017317040329|0.07381817688296223|0.02661111620006675|0.9756532042879418|0.1331418752670288|-0.4035597145557404|-0.905214250087738|0|0|0|-1|-1|3
2021-04-22 20:28:42.955 +0100|136820.6348905|0.122161865234375|-0.3978729248046875|-0.8657379150390625|136820.6149295|0.02373538560040084|0.1464655737165008|0.4154932944617777|-0.01590804941952229|0.008866773918271065|-0.02503856644034386|0.002781003713607788|0.002213954925537109|0.02694714069366455|XArbitraryZVertical|0.2048385632819219|0.07403022861891508|0.02667122317994668|0.9756276924157148|0.1335252970457077|-0.4036413133144379|-0.905121386051178|0|0|0|-1|-1|3
2021-04-22 20:28:42.975 +0100|136820.6548515|0.1272125244140625|-0.4012603759765625|-0.8709259033203125|136820.6348905|0.02265548766458574|0.1471920839623828|0.4144338197345371|-0.06059617549180984|0.01108247041702271|-0.08313072472810745|-0.007460653781890869|-0.00258558988571167|0.03914374113082886|XArbitraryZVertical|0.2043519462735064|0.07427617755462936|0.02618196561731808|0.9757243804303337|0.1342454850673676|-0.402671754360199|-0.9054466485977173|0|0|0|-1|-1|3
2021-04-22 20:28:42.995 +0100|136820.6748135|0.13677978515625|-0.3982696533203125|-0.8828887939453125|136820.6548515|0.02091986102285728|0.1480381065664894|0.4128908640053698|-0.07154856622219086|0.01202517561614513|-0.112386517226696|-0.002107799053192139|0.001815170049667358|0.03784275054931641|XArbitraryZVertical|0.2036525408637342|0.07451539434022525|0.02536749673878937|0.9758738843336949|0.1351029425859451|-0.4012589156627655|-0.9059461951255798|0|0|0|-1|-1|3
2021-04-22 20:28:43.015 +0100|136820.6947745|0.131195068359375|-0.3942108154296875|-0.8944549560546875|136820.6748135|0.01917545093969687|0.1487951673782031|0.4112572916558266|-0.08186749368906021|0.004989424720406532|-0.08765285462141037|-0.001639410853385925|-0.006776958703994751|0.0262717604637146|XArbitraryZVertical|0.2029107871739007|0.07471191846754953|0.02453561235162263|0.9760345942147842|0.1358857601881027|-0.3997620940208435|-0.906490683555603|0|0|0|-1|-1|3
2021-04-22 20:28:43.035 +0100|136820.7147355|0.1719818115234375|-0.40863037109375|-0.897003173828125|136820.6947745|0.01816398378381002|0.1491830927014536|0.410320699441603|-0.04774865135550499|0.002764299511909485|-0.06320770084857941|-0.0015278160572052|0.003137052059173584|0.008476614952087402|XArbitraryZVertical|0.2024866537550087|0.07480157031943124|0.02404806100004767|0.9761279443222775|0.1362929791212082|-0.3989034295082092|-0.9068077802658081|0|0|0|-1|-1|3
2021-04-22 20:28:43.055 +0100|136820.7346975|0.150665283203125|-0.385040283203125|-0.899169921875|136820.7147355|0.01720094409859205|0.1494107614203984|0.4094645151296169|-0.09898707270622253|-0.02718145400285721|-0.07713106274604797|0.02484153211116791|-0.0002879798412322998|0.01160585880279541|XArbitraryZVertical|0.2021019651221663|0.07481808803359014|0.02357055487731626|0.9762180159786965|0.1365502178668976|-0.3981181681156158|-0.9071140885353088|0|0|0|-1|-1|3
2021-04-22 20:28:43.075 +0100|136820.7546585|0.1677703857421875|-0.383880615234375|-0.906707763671875|136820.7346975|0.01599285094215976|0.1492771601033583|0.4074260811769748|-0.09450855106115341|-0.01752350106835365|-0.07171215116977692|0.01776224374771118|0.002998709678649902|0.009632349014282227|XArbitraryZVertical|0.2011533010788776|0.07463823466962675|0.02289459204190037|0.9764438109241647|0.1365494430065155|-0.3962474167346954|-0.9079329371452332|0|0|0|-1|-1|3
2021-04-22 20:28:43.095 +0100|136820.7746195|0.169281005859375|-0.38470458984375|-0.9093780517578125|136820.7546585|0.01487188319187682|0.1492646715216996|0.406411729679883|-0.05800392478704453|-0.03116447851061821|-0.06235415861010551|0.02421411871910095|0.0154033899307251|0.002035439014434814|XArbitraryZVertical|0.2006998610362556|0.07452333764901709|0.02230977387350335|0.9765594549753764|0.1365977972745895|-0.3953158855438232|-0.9083316922187805|0|0|0|-1|-1|3
2021-04-22 20:28:43.115 +0100|136820.7945815|0.16375732421875|-0.3921661376953125|-0.9112701416015625|136820.7746195|0.01392284068472278|0.148878158807451|0.4057556176168191|-0.009616765193641186|-0.04792466014623642|-0.03944173827767372|0.03186623752117157|0.01237449049949646|-0.001012444496154785|XArbitraryZVertical|0.2004189796574643|0.07424205761466066|0.02178414649773346|0.9766503619914454|0.1362851560115814|-0.3947131335735321|-0.9086406826972961|0|0|0|-1|-1|3
2021-04-22 20:28:43.134 +0100|136820.8145425|0.15277099609375|-0.3757781982421875|-0.91522216796875|136820.7945815|0.01330096558870813|0.1484309868565862|0.4054118143415244|-0.02679100632667542|-0.0555587112903595|-0.0102961054071784|0.03229828178882599|-0.0008808672428131104|-0.002236485481262207|XArbitraryZVertical|0.2002789141923144|0.07396281439356908|0.02142339429699214|0.9767083045240832|0.1358988881111145|-0.3943972289562225|-0.9088357090950012|0|0|0|-1|-1|3
2021-04-22 20:28:43.155 +0100|136820.8345035|0.1383056640625|-0.377166748046875|-0.914825439453125|136820.8145425|0.01293407139064871|0.1480214177766614|0.405338098333291|0.01513819955289364|-0.0578640028834343|-0.006169714964926243|0.01842978596687317|0.01525622606277466|-0.004151046276092529|XArbitraryZVertical|0.2002608138910669|0.07372636973813948|0.02120057969915781|0.9767347732115481|0.1355309337377548|-0.3943294882774353|-0.9089200496673584|0|0|0|-1|-1|3
2021-04-22 20:28:43.175 +0100|136820.8544655|0.1375885009765625|-0.3985137939453125|-0.919708251953125|136820.8345035|0.01274363438359225|0.147305017649475|0.406078046325338|0.07106617838144302|-0.0540350154042244|0.01552723534405231|0.01138763129711151|0.01952192187309265|-0.005716383457183838|XArbitraryZVertical|0.2006368221576549|0.07335425021305012|0.0210620336729486|0.9766885823569986|0.134836882352829|-0.3950093686580658|-0.9087280631065369|0|0|0|-1|-1|3
2021-04-22 20:28:43.195 +0100|136820.8744265|0.125396728515625|-0.374847412109375|-0.927703857421875|136820.8544655|0.0125151954178781|0.147113082967597|0.4071903558427016|0.04566378146409988|-0.03838473558425903|0.01012439280748367|0.007323563098907471|-0.001688539981842041|-0.01227498054504395|XArbitraryZVertical|0.2011904772600523|0.07323274935070914|0.02097054994249868|0.9765857663333146|0.134597972035408|-0.3960309624671936|-0.9083186984062195|0|0|0|-1|-1|3
2021-04-22 20:28:43.215 +0100|136820.8943875|0.1080474853515625|-0.37188720703125|-0.91448974609375|136820.8744265|0.01234935760778212|0.1474641127065757|0.408054660631568|0.06179499998688698|-0.002330327872186899|0.0180230624973774|-0.01108762621879578|0.01741552352905273|-0.01852059364318848|XArbitraryZVertical|0.2016149638100993|0.07338363182755292|0.02095552026641459|0.9764872403839754|0.1348664611577988|-0.396824449300766|-0.9079325199127197|0|0|0|-1|-1|3
2021-04-22 20:28:43.234 +0100|136820.9143495|0.1456298828125|-0.41314697265625|-0.9239501953125|136820.8943875|0.01236049714242736|0.1480855254388274|0.4095147191273798|0.09329923242330551|0.01751970499753952|0.01078210398554802|-0.01901246607303619|0.02519446611404419|-0.008741557598114014|XArbitraryZVertical|0.2023209751782206|0.07368160174226816|0.02107557009676972|0.9763161135424057|0.1353450119495392|-0.3981642127037048|-0.9072744846343994|0|0|0|-1|-1|3
2021-04-22 20:28:43.254 +0100|136820.9343105|0.0783233642578125|-0.5971832275390625|-0.8759002685546875|136820.9143495|0.01070425020161773|0.1497093835155637|0.4086101843019926|-0.03634405136108398|0.03339320793747902|0.004321897402405739|-0.08958524465560913|-0.03721991181373596|0.01466286182403564|XArbitraryZVertical|0.2019237578175904|0.07431122000133017|0.02039873562400455|0.9763650620019249|0.1368717849254608|-0.3973343074321747|-0.9074092507362366|0|0|0|-1|-1|3
2021-04-22 20:28:43.274 +0100|136820.9542715|0.0262298583984375|-0.3518829345703125|-0.8657989501953125|136820.9343105|0.005929874271808834|0.1527849257618553|0.4074804483420423|-0.0932837650179863|0.1443354487419128|-0.1234880015254021|-0.1862851679325104|-0.02003788948059082|0.02653676271438599|XArbitraryZVertical|0.2015210048638974|0.07533749152936633|0.01833680246907776|0.9764104610102798|0.1397301256656647|-0.3962973356246948|-0.9074270725250244|0|0|0|-1|-1|3
2021-04-22 20:28:43.294 +0100|136820.9742335|0.07586669921875|-0.4595947265625|-0.8817291259765625|136820.9542715|0.003451205626848219|0.1544241119285234|0.4002690227134975|-0.3201715052127838|0.08225417137145996|-0.2796590626239777|-0.05039092898368835|-0.007885545492172241|0.047249436378479|XArbitraryZVertical|0.1980780946904709|0.07593763565763564|0.01702069156189909|0.9770921236842851|0.1416532844305038|-0.3896661102771759|-0.9099971055984497|0|0|0|-1|-1|3
2021-04-22 20:28:43.314 +0100|136820.9941945|0.0558319091796875|-0.4005584716796875|-0.8881988525390625|136820.9742335|-0.001786350196045748|0.1576206036244969|0.3932375559117306|-0.3825507462024689|0.08248959481716156|-0.3329563736915588|-0.07499626278877258|-0.06396186351776123|0.02733498811721802|XArbitraryZVertical|0.1948168800125316|0.07703787319327857|0.01450674729142152|0.9777020456948411|0.1449878513813019|-0.3831808567047119|-0.9122231006622314|0|0|0|-1|-1|3
2021-04-22 20:28:43.334 +0100|136821.0141555|0.0847625732421875|-0.3611602783203125|-0.8865966796875|136820.9941945|-0.007551781400534108|0.1601914744008613|0.3827336584065686|-0.5698632597923279|0.125110924243927|-0.4193461835384369|-0.0938592404127121|-0.04667693376541138|0.03326255083084106|XArbitraryZVertical|0.1898864131901767|0.07783311847264039|0.01152282280375907|0.9786482653164722|0.1479664444923401|-0.3734577298164368|-0.9157702922821045|0|0|0|-1|-1|3
2021-04-22 20:28:43.354 +0100|136821.0341165|0.0947265625|-0.35699462890625|-0.87799072265625|136821.0141555|-0.01420624286308758|0.1635884227017893|0.3703448992785444|-0.5832117795944214|0.1542908251285553|-0.4718942642211914|-0.07274773716926575|0.000212937593460083|0.02940618991851807|XArbitraryZVertical|0.1840662653665553|0.07900083814561133|0.008084167685863798|0.9797005896636317|0.1518182903528214|-0.3619369566440582|-0.9197569489479065|0|0|0|-1|-1|3
2021-04-22 20:28:43.374 +0100|136821.0540785|0.11419677734375|-0.34613037109375|-0.8741455078125|136821.0341165|-0.02264769682557781|0.1698897860944861|0.3596548070346177|-0.6469258666038513|0.1834145039319992|-0.5405718088150024|-0.06659707427024841|-0.00830802321434021|0.0457877516746521|XArbitraryZVertical|0.1791486416079622|0.08145125218938858|0.004073143141099648|0.9804361867387971|0.1582561135292053|-0.3519511520862579|-0.922542929649353|0|0|0|-1|-1|3
2021-04-22 20:28:43.406 +0100|136821.0740395|0.1110076904296875|-0.3361358642578125|-0.8619384765625|136821.0540785|-0.0313006321566337|0.1748606434257978|0.3461679064344869|-0.7022160887718201|0.2181040495634079|-0.6074017286300659|-0.05127044022083282|-0.0099773108959198|0.05020564794540405|XArbitraryZVertical|0.1728882853540611|0.08331883327310058|-0.0003206432718986803|0.9814111030571104|0.1636509299278259|-0.3392955362796783|-0.9263352155685425|0|0|0|-1|-1|3
2021-04-22 20:28:43.419 +0100|136821.0940005|0.099822998046875|-0.304473876953125|-0.8525543212890625|136821.0940005|-0.05278139372662716|0.1890134529283045|0.3131568070353679|-0.9342320561408997|0.3279252052307129|-0.7938119769096375|-0.07482503354549408|-0.005259692668914795|0.08015835285186768|XArbitraryZVertical|0.1576490854538144|0.08908272030731385|-0.01123824336923477|0.983404725861903|0.178752139210701|-0.3080634474754333|-0.9344220757484436|0|0|0|-1|-1|3
2021-04-22 20:28:43.434 +0100|136821.1139625|0.0950164794921875|-0.2653350830078125|-0.8345794677734375||||||||||||||||||||||||3
2021-04-22 20:28:43.454 +0100|136821.1339235|0.094146728515625|-0.253753662109375|-0.813323974609375|136821.1139625|-0.06552266243100661|0.1982620216812691|0.2926206870683458|-1.02335512638092|0.3751260340213776|-0.8824869394302368|-0.09575897455215454|0.01765036582946777|0.09455668926239014|XArbitraryZVertical|0.1482024322814911|0.09310683937862764|-0.01782560969797384|0.984403108200782|0.1885929256677628|-0.2884624898433685|-0.9387342929840088|0|0|0|-1|-1|3
2021-04-22 20:28:43.474 +0100|136821.1538845|0.1027069091796875|-0.21075439453125|-0.7990570068359375|136821.1339235|-0.07966648891564923|0.2093179133548564|0.2681767731734307|-1.189801931381226|0.4207717180252075|-0.9916230440139771|-0.1026791036128998|0.004873365163803101|0.1277481317520142|XArbitraryZVertical|0.1369728057772537|0.09815347119707157|-0.02529437567779656|0.9853754597432496|0.2003653198480606|-0.2649738192558289|-0.9432086944580078|0|0|0|-1|-1|3
2021-04-22 20:28:43.494 +0100|136821.1738465|0.107147216796875|-0.1764678955078125|-0.786956787109375|136821.1538845|-0.09531197765928945|0.2222534939823348|0.2386489962347015|-1.372148275375366|0.4775211811065674|-1.127996683120728|-0.1204620003700256|0.01757994294166565|0.1506543159484863|XArbitraryZVertical|0.1234183302670502|0.1043486690712951|-0.03382095917365462|0.9862735635072216|0.2141809165477753|-0.2363901287317276|-0.9477585554122925|0|0|0|-1|-1|3
2021-04-22 20:28:43.514 +0100|136821.1938075|0.13262939453125|-0.1265106201171875|-0.7943572998046875|136821.1738465|-0.1123113791056456|0.2359535703746148|0.2050789986943202|-1.535633325576782|0.5337697863578796|-1.25540030002594|-0.1159723699092865|0.01632846891880035|0.1539892554283142|XArbitraryZVertical|0.1080596694720715|0.1111953403087738|-0.04341416919399807|0.9869519844290791|0.2288715690374374|-0.2036444991827011|-0.9519174098968506|0|0|0|-1|-1|3
2021-04-22 20:28:43.534 +0100|136821.2137685|0.14251708984375|-0.0714569091796875|-0.795806884765625|136821.1938075|-0.1303834237786065|0.2507016120757687|0.1666868135561288|-1.764410018920898|0.6000339388847351|-1.402588725090027|-0.123552069067955|0.02301828563213348|0.1641127467155457|XArbitraryZVertical|0.09053474272210327|0.1189435567385587|-0.05402439491007916|0.9872878762667953|0.2446452379226685|-0.1659159958362579|-0.9553117752075195|0|0|0|-1|-1|3
2021-04-22 20:28:43.554 +0100|136821.2337305|0.1692657470703125|0.0127105712890625|-0.8121337890625|136821.2137685|-0.1497622051410816|0.2661642337507595|0.1236938248581938|-1.947704911231995|0.6745955348014832|-1.553293466567993|-0.117621511220932|0.03423763811588287|0.1616847515106201|XArbitraryZVertical|0.07099698212005186|0.1274818158876714|-0.06582963775342396|0.9871039782701327|0.2610230147838593|-0.1233786419034004|-0.9574156403541565|0|0|0|-1|-1|3
2021-04-22 20:28:43.574 +0100|136821.2536915|0.1885223388671875|0.07818603515625|-0.8469696044921875|136821.2337305|-0.1694938521515116|0.2823150488523908|0.07510637821986894|-2.192162990570068|0.7431786060333252|-1.652244567871094|-0.1157162189483643|0.06470642983913422|0.1528041958808899|XArbitraryZVertical|0.04893784946120012|0.1369391075161898|-0.07848139985108381|0.986252285165412|0.2777944505214691|-0.07503578811883926|-0.957705557346344|0|0|0|-1|-1|3
2021-04-22 20:28:43.594 +0100|136821.2736525|0.2213592529296875|0.1516571044921875|-0.8675994873046875|136821.2536915|-0.1887602430782553|0.2987089624846074|0.02224819956722936|-2.339351892471313|0.8023138046264648|-1.705659985542297|-0.1124670207500458|0.08132922649383545|0.1108912825584412|XArbitraryZVertical|0.02497310788349238|0.1470917698662865|-0.09153728361952365|0.9845616040987751|0.2942137718200684|-0.02224636450409889|-0.955480694770813|0|0|0|-1|-1|3
2021-04-22 20:28:43.614 +0100|136821.2936145|0.244140625|0.204925537109375|-0.869140625|136821.2736525|-0.20742848779855|0.3152340484793669|-0.03368397661828102|-2.456879377365112|0.8622658848762512|-1.774831414222717|-0.09820914268493652|0.1003716811537743|0.08453798294067383|XArbitraryZVertical|-0.0002950070327283767|0.1578215292365641|-0.1048598433585022|0.9818844111677648|0.3098631203174591|0.0336776077747345|-0.9501845836639404|0|0|0|-1|-1|3
2021-04-22 20:28:43.634 +0100|136821.3135755|0.2748870849609375|0.2841033935546875|-0.835174560546875|136821.2936145|-0.2258342502204362|0.3320513898233201|-0.0929594000449844|-2.581762552261353|0.9478738903999329|-1.851390361785889|-0.08322802186012268|0.09276789426803589|0.06835359334945679|XArbitraryZVertical|-0.02693085181006824|0.169197525737319|-0.1186376716171128|0.9780450550982803|0.3245755732059479|0.09282557666301727|-0.9412938356399536|0|0|0|-1|-1|3
2021-04-22 20:28:43.654 +0100|136821.3335365|0.2991790771484375|0.353363037109375|-0.7821807861328125|136821.3135755|-0.2437444181714478|0.3495547234508104|-0.1549155338642051|-2.694485187530518|1.018615484237671|-1.901032209396362|-0.07249447703361511|0.1138316094875336|0.08363896608352661|XArbitraryZVertical|-0.05455984622261849|0.1813454580141766|-0.1327154489592241|0.9728945810908167|0.3383781611919403|0.1542966514825821|-0.9282740950584412|0|0|0|-1|-1|3
2021-04-22 20:28:43.674 +0100|136821.3534985|0.3275909423828125|0.464599609375|-0.768646240234375|136821.3335365|-0.259910383923329|0.3670953954669766|-0.2207245928242745|-2.905708789825439|1.03374183177948|-1.899211406707764|-0.05813074111938477|0.1104097962379456|0.1170279979705811|XArbitraryZVertical|-0.08386654761977551|0.1939117681522904|-0.146570570401481|0.9663756389647468|0.3501984775066376|0.2189366966485977|-0.9107292294502258|0|0|0|-1|-1|3
2021-04-22 20:28:43.694 +0100|136821.3734595|0.3072509765625|0.539794921875|-0.72760009765625|136821.3534985|-0.2740846076768388|0.3838102852426072|-0.2881405160170004|-2.829569339752197|0.9951291084289551|-1.853415608406067|-0.03176441788673401|0.1549483239650726|0.1133220791816711|XArbitraryZVertical|-0.113829088805486|0.2062376211091541|-0.1598432441670668|0.9586236438469203|0.3590188920497894|0.2841698825359344|-0.8890179395675659|0|0|0|-1|-1|3
2021-04-22 20:28:43.713 +0100|136821.3934205|0.34637451171875|0.6237640380859375|-0.719390869140625|136821.3734595|-0.2874710705487451|0.3993943149717741|-0.3526116118874925|-2.63363790512085|0.9993993043899536|-1.766725182533264|-0.05660182237625122|0.1771117746829987|0.1315349340438843|XArbitraryZVertical|-0.1421608189553162|0.2179077654453487|-0.1726525972591738|0.9499988495129508|0.3649353981018066|0.345349907875061|-0.8646129965782166|0|0|0|-1|-1|3
2021-04-22 20:28:43.734 +0100|136821.4133825|0.3463134765625|0.590240478515625|-0.689453125|136821.4133825|-0.3120715324408804|0.4280641272626404|-0.4664666341410978|-2.321337938308716|0.909381628036499|-1.62603223323822|-0.02440279722213745|0.148427277803421|0.1135534048080444|XArbitraryZVertical|-0.1909927409345694|0.2392381142194034|-0.1962405931194923|0.9315452705534369|0.3707612156867981|0.4497332274913788|-0.8125737905502319|0|0|0|-1|-1|3
2021-04-22 20:28:43.754 +0100|136821.4333435|0.35748291015625|0.6102447509765625|-0.6357574462890625||||||||||||||||||||||||3
2021-04-22 20:28:43.773 +0100|136821.4533045|0.369232177734375|0.670684814453125|-0.5792999267578125|136821.4333435|-0.3224065085673026|0.440640249863477|-0.525229063247066|-2.672326803207397|0.832486629486084|-1.679973602294922|-0.01798498630523682|0.1001520156860352|0.128754734992981|XArbitraryZVertical|-0.2161718615337346|0.2489740306851794|-0.207255433577057|0.9210467108233459|0.369027853012085|0.5014111995697021|-0.782563328742981|0|0|0|-1|-1|3
2021-04-22 20:28:43.794 +0100|136821.4732665|0.378021240234375|0.782318115234375|-0.585205078125|136821.4533045|-0.3295124225487929|0.4521785420960777|-0.5917425504053238|-3.032874584197998|0.689007580280304|-1.731235027313232|0.008548825979232788|0.08606767654418945|0.1565595269203186|XArbitraryZVertical|-0.2451364020129389|0.258128312471904|-0.2173689211503826|0.9088613201620639|0.362635612487793|0.5578081607818604|-0.7465558648109436|0|0|0|-1|-1|3
2021-04-22 20:28:43.813 +0100|136821.4932275|0.4239959716796875|0.8326263427734375|-0.5291900634765625|136821.4732665|-0.3347387345995031|0.4610497039935743|-0.6603596796943354|-2.790749311447144|0.5064677596092224|-1.651553988456726|0.01794725656509399|0.145068347454071|0.1430690288543701|XArbitraryZVertical|-0.2752183948149949|0.2657077441156102|-0.2264656006384321|0.8957497718728842|0.3513602912425995|0.613400936126709|-0.7073084712028503|0|0|0|-1|-1|3
2021-04-22 20:28:43.833 +0100|136821.5131885|0.38189697265625|0.886505126953125|-0.4929656982421875|136821.4932275|-0.3413709599767949|0.4641819162237598|-0.7217929929434631|-2.633363962173462|0.2226463854312897|-1.565800786018372|0.07867050170898438|0.1761677861213684|0.10978102684021|XArbitraryZVertical|-0.3020989527216967|0.2704393871731566|-0.2346951632126524|0.8834687387715824|0.3360471725463867|0.6607316136360168|-0.6711975336074829|0|0|0|-1|-1|3
2021-04-22 20:28:43.853 +0100|136821.5331505|0.4158935546875|0.93988037109375|-0.5012054443359375|136821.5131885|-0.3451941196516036|0.4646597212264251|-0.7845272723975539|-2.817131042480469|0.1106829941272736|-1.510963678359985|0.07514366507530212|0.1462473273277283|0.1461896300315857|XArbitraryZVertical|-0.3299436432074969|0.27348578056533|-0.2411438810369489|0.870742423654606|0.3171435594558716|0.706490695476532|-0.6326854228973389|0|0|0|-1|-1|3
2021-04-22 20:28:43.873 +0100|136821.5531115|0.47430419921875|0.9152984619140625|-0.465057373046875|136821.5331505|-0.3469175664869034|0.4652395251555674|-0.8481294921704499|-2.779013633728027|-0.00949391070753336|-1.47741961479187|0.09060537815093994|0.183671772480011|0.03724312782287598|XArbitraryZVertical|-0.3581149877395493|0.2760580134274577|-0.2464974089237521|0.8571959271508346|0.2967227697372437|0.750044584274292|-0.5910912752151489|0|0|0|-1|-1|3
2021-04-22 20:28:43.908 +0100|136821.5730725|0.438140869140625|1.039810180664062|-0.46502685546875|136821.5531115|-0.3465455571515309|0.463455188129984|-0.9125432804991557|-3.02635931968689|-0.2069645822048187|-1.356733441352844|0.1993823051452637|0.1073454022407532|0.1139785051345825|XArbitraryZVertical|-0.3868616053175188|0.2770111353775089|-0.2503068123470625|0.8431782253802936|0.27347132563591|0.7910621166229248|-0.5472058653831482|0|0|0|-1|-1|3
2021-04-22 20:28:43.920 +0100|136821.59303475|0.4562835693359375|1.057098388671875|-0.3967132568359375|136821.5730725|-0.3380750510004338|0.4643216278679977|-0.978949096202156|-3.009011268615723|-0.4003216624259949|-1.18126904964447|0.1995510458946228|0.1641074419021606|0.0242038369178772|XArbitraryZVertical|-0.4168647332111791|0.2771455946629703|-0.2511297084777095|0.8284612430294498|0.2498345226049423|0.8299115300178528|-0.4988282322883606|0|0|0|-1|-1|3
2021-04-22 20:28:43.933 +0100|136821.61299575|0.4447784423828125|1.1153564453125|-0.5424346923828125|136821.59303475|-0.3238976800976583|0.4681848061128184|-1.042921898732393|-3.189977884292603|-0.4516420960426331|-1.009070158004761|0.2255925834178925|0.2485322952270508|0.06746077537536621|XArbitraryZVertical|-0.4457893328047345|0.2766305340001145|-0.2500366119650715|0.8137746820283126|0.2273025363683701|0.8638796806335449|-0.4494948387145996|0|0|0|-1|-1|3
2021-04-22 20:28:43.953 +0100|136821.63295675|0.460296630859375|1.368743896484375|-0.56982421875|136821.61299575|-0.2923178555391817|0.4864414367875384|-1.110885120594711|-3.373731851577759|-0.5279966592788696|-0.7550193667411804|0.2421285808086395|0.1740379333496094|-0.1039871573448181|XArbitraryZVertical|-0.4765405634462995|0.2769812572464412|-0.2457426904344531|0.7973714447571297|0.2075011730194092|0.8960919380187988|-0.392380952835083|0|0|0|-1|-1|3
2021-04-22 20:28:43.974 +0100|136821.65291875|0.4160614013671875|1.76788330078125|-0.572479248046875|136821.63295675|-0.251249436297931|0.5144328952583054|-1.165101147543126|-2.246221542358398|-0.4022926390171051|-0.3354808688163757|0.2537327706813812|0.4277755618095398|-0.2868385016918182|XArbitraryZVertical|-0.5012471410297609|0.2774207589258821|-0.2400375001618549|0.7836907447356397|0.1941879391670227|0.9188282489776611|-0.343578040599823|0|0|0|-1|-1|3
2021-04-22 20:28:43.993 +0100|136821.67287975|0.2854156494140625|0.9485321044921875|-0.63818359375|136821.65291875|-0.214085801246109|0.5397891791095034|-1.197618115560668|-0.8308534026145935|-0.4058191180229187|0.005586632061749697|0.2303930968046188|0.540644109249115|-0.3676791191101074|XArbitraryZVertical|-0.5166146995290256|0.2770181062517219|-0.2344827922603691|0.7754922490534201|0.1873762756586075|0.9311733245849609|-0.3127404451370239|0|0|0|-1|-1|3
2021-04-22 20:28:44.013 +0100|136821.69284175|0.4649505615234375|0.68096923828125|-0.5531158447265625|136821.67287975|-0.2182874690633444|0.5321512997335134|-1.1889389775745|0.8744350671768188|-0.05641849339008331|0.1560861319303513|0.1221263855695724|0.482701301574707|-0.4328370988368988|XArbitraryZVertical|-0.5134168806439909|0.2754012424725256|-0.2334570707580047|0.7784954105867906|0.1890756040811539|0.9279741048812866|-0.3211145102977753|0|0|0|-1|-1|3
2021-04-22 20:28:44.033 +0100|136821.71280275|0.2162933349609375|0.9044952392578125|-0.870361328125|136821.69284175|-0.2202448564898064|0.5289751073539252|-1.184026717463275|-0.3583584427833557|-0.08078726381063461|0.03491069748997688|0.2113793641328812|-0.2788236141204834|-0.1541212797164917|XArbitraryZVertical|-0.5115251377292364|0.2748079442518354|-0.2330200478954382|0.7800798136767898|0.1903530359268188|0.9261323809623718|-0.3256452679634094|0|0|0|-1|-1|3
2021-04-22 20:28:44.053 +0100|136821.73276375|0.4235382080078125|1.023666381835938|-0.809234619140625|136821.71280275|-0.1970514406805993|0.550817811553492|-1.195864041892078|-0.9512137770652771|0.1231829598546028|0.1023787707090378|0.09971241652965546|-0.06894445419311523|-0.4436297416687012|XArbitraryZVertical|-0.5169837718677494|0.2769561417043588|-0.2305782672359062|0.7764385761562703|0.1916684210300446|0.9305323958396912|-0.3120461404323578|0|0|0|-1|-1|3
2021-04-22 20:28:44.073 +0100|136821.75272575|0.3196563720703125|1.116317749023438|-0.5002899169921875|136821.73276375|-0.1680012200079455|0.5824587755818768|-1.207123468100342|-0.5311917066574097|0.3228614032268524|0.2700054347515106|0.1684663444757462|0.1423385739326477|-0.5531312227249146|XArbitraryZVertical|-0.521927223087109|0.2811817498916216|-0.2285633577074587|0.7721967116508276|0.1956683695316315|0.9345966577529907|-0.2970575988292694|0|0|0|-1|-1|3
2021-04-22 20:28:44.093 +0100|136821.77268675|0.32073974609375|0.98193359375|-0.2242279052734375|136821.75272575|-0.135508756385477|0.6190145769052906|-1.210206712648868|-0.298483282327652|0.2446769624948502|0.4799077808856964|0.1177415996789932|0.1289476752281189|-0.3003933727741241|XArbitraryZVertical|-0.5236143775004362|0.2866151002730278|-0.2259028783026354|0.7698361977320612|0.2047213613986969|0.9356889724731445|-0.2873595356941223|0|0|0|-1|-1|3
2021-04-22 20:28:44.113 +0100|136821.79264775|0.3093109130859375|0.767669677734375|-0.2772216796875|136821.77268675|-0.1102715298644355|0.6453450415291815|-1.20528374453471|0.08683864772319794|0.03410054370760918|0.4879675805568695|0.118068590760231|0.1470229625701904|0.02517127990722656|XArbitraryZVertical|-0.5223545895139788|0.2904690136773829|-0.222523974021036|0.7702316110807225|0.2149839997291565|0.9339406490325928|-0.2855468690395355|0|0|0|-1|-1|3
2021-04-22 20:28:44.133 +0100|136821.81260975|0.26324462890625|0.9332275390625|-0.3498687744140625|136821.79264775|-0.08938568240078038|0.6636360612227487|-1.200089081984767|-0.09024534374475479|-0.1606990993022919|0.4325678050518036|0.09233373403549194|-0.1686127185821533|0.04516610503196716|XArbitraryZVertical|-0.5213318729465456|0.2924391772407227|-0.2186293566232924|0.771293513025141|0.2231559753417969|0.9320713877677917|-0.2853848040103912|0|0|0|-1|-1|3
2021-04-22 20:28:44.153 +0100|136821.83257075|0.1656646728515625|0.7891845703125|-0.4882659912109375|136821.81260975|-0.07319797592817157|0.6734903527763687|-1.192801805412479|0.4465856850147247|-0.326966255903244|0.4788597524166107|0.0688529759645462|-0.03270822763442993|-0.03498181700706482|XArbitraryZVertical|-0.5197642759498579|0.2925889955238023|-0.2140338831106162|0.7735802171335803|0.23018778860569|0.9294066429138184|-0.2884735465049744|0|0|0|-1|-1|3
2021-04-22 20:28:44.173 +0100|136821.85253175|0.236328125|0.8536834716796875|-0.6462249755859375|136821.83257075|-0.07827715568570862|0.6629566292779489|-1.175259213178457|0.7057586908340454|-0.2649013698101044|0.4797598123550415|-0.08976712822914124|-0.09132248163223267|-0.1599502861499786|XArbitraryZVertical|-0.5132104822679576|0.2911548550977995|-0.2110752042995542|0.7792890364759063|0.2371355593204498|0.9227897524833679|-0.3036876916885376|0|0|0|-1|-1|3
2021-04-22 20:28:44.193 +0100|136821.87249375|0.2395782470703125|1.344284057617188|-0.7928009033203125|136821.85253175|-0.07549652377761364|0.6613029367506648|-1.163738289350417|0.2489439398050308|-0.1238370984792709|0.2790115177631378|-0.003324881196022034|-0.03637677431106567|-0.2709702253341675|XArbitraryZVertical|-0.5092093939292065|0.2906565186123919|-0.2081220063206755|0.7828857046204201|0.2431463003158569|0.9182895421981812|-0.3124491572380066|0|0|0|-1|-1|3
2021-04-22 20:28:44.213 +0100|136821.89245475|0.2436676025390625|1.63671875|-0.835174560546875|136821.87249375|-0.0766340641006505|0.6599069564365593|-1.152203812219364|1.001014471054077|0.1062210276722908|0.4803319275379181|0.005664512515068054|0.1727337241172791|-0.479966014623642|XArbitraryZVertical|-0.5045868282367797|0.291246455165386|-0.2067634805220819|0.7860130771230993|0.249186784029007|0.9136619567871094|-0.3211352825164795|0|0|0|-1|-1|3
2021-04-22 20:28:44.233 +0100|136821.91241575|0.0343475341796875|0.283203125|-1.192947387695312|136821.89245475|-0.1110247401641301|0.6350060555795695|-1.111272191607434|3.460236787796021|0.5260909199714661|0.7628268599510193|-0.05253440141677856|0.8093948364257812|-0.4035238027572632|XArbitraryZVertical|-0.4856310311737266|0.2926256510088358|-0.209205316462641|0.7967221221704681|0.2630894780158997|0.8962636590003967|-0.3570654690265656|0|0|0|-1|-1|3
2021-04-22 20:28:44.253 +0100|136821.93237775|0.2317962646484375|0.8395233154296875|-0.6906585693359375|136821.93237775|-0.1955906132160836|0.5947258671842844|-1.008072016637745|0.8675127029418945|0.9562655687332153|0.5188485980033875|-0.1167781949043274|-0.2908116579055786|-0.3601239323616028|XArbitraryZVertical|-0.4345103971971049|0.3004233595248799|-0.2225768884134718|0.8193938099042122|0.298906147480011|0.8458048701286316|-0.4418930411338806|0|0|0|-1|-1|3
2021-04-22 20:28:44.273 +0100|136821.95233875|-0.0537261962890625|1.316879272460938|-0.9126129150390625||||||||||||||||||||||||3
2021-04-22 20:28:44.293 +0100|136821.97229975|0.067535400390625|0.314727783203125|-1.015090942382812|136821.95233875|-0.1962737167055097|0.6148313420853032|-0.9852031819788784|1.402285814285278|1.186183094978333|0.6649792194366455|-0.3339735269546509|0.2717797756195068|-0.3013126254081726|XArbitraryZVertical|-0.4224566352486776|0.309500603563319|-0.2246981587521348|0.8217363814527323|0.3188053667545319|0.8333843946456909|-0.4514795243740082|0|0|0|-1|-1|3
2021-04-22 20:28:44.312 +0100|136821.99226175|0.13653564453125|0.964935302734375|-1.453842163085938|136821.97229975|-0.2153535614700281|0.6301044728942121|-0.9532797570331036|1.086875677108765|1.796303987503052|0.2746080756187439|-0.1977697610855103|-0.06756138801574707|-0.5075652003288269|XArbitraryZVertical|-0.4040986468337148|0.320613763300417|-0.2321324865477241|0.8246367201791392|0.3411709070205688|0.8153188824653625|-0.4678221940994263|0|0|0|-1|-1|3
2021-04-22 20:28:44.332 +0100|136822.01222275|-0.00250244140625|0.6652374267578125|-0.84759521484375|136821.99226175|-0.2227349184502019|0.6660611166934484|-0.9398407363863339|0.7908505797386169|2.476464509963989|0.164791464805603|-0.2590076327323914|0.07734787464141846|-0.9745101928710938|XArbitraryZVertical|-0.3928911433420684|0.3372270437854496|-0.2407582195681649|0.8209446866124109|0.3645059466362|0.8074641823768616|-0.4638289511203766|0|0|0|-1|-1|3
2021-04-22 20:28:44.357 +0100|136822.03218375|0.2281646728515625|1.436309814453125|-0.800628662109375|136822.01222275|-0.2322464646717447|0.7121253007254216|-0.9252725711590963|0.4359566271305084|2.912900686264038|0.3764665424823761|-0.3330349326133728|-0.168062150478363|-0.5660296082496643|XArbitraryZVertical|-0.3793550899282036|0.3583088696194182|-0.2517089350249285|0.8150749848060467|0.393123060464859|0.7987847924232483|-0.4554089307785034|0|0|0|-1|-1|3
2021-04-22 20:28:44.373 +0100|136822.05214575|0.2080230712890625|0.916656494140625|-0.3101043701171875|136822.05214575|-0.3309844186651812|0.7504645770342758|-0.8257210921638463|5.699899673461914|2.474903106689453|0.4428042471408844|-0.1696153283119202|0.6992288827896118|0.04653400182723999|XArbitraryZVertical|-0.3129123543041791|0.3926076333476924|-0.2854346486427805|0.8163775615698163|0.4624000787734985|0.7350369095802307|-0.495890200138092|0|0|0|-1|-1|3
2021-04-22 20:28:44.392 +0100|136822.07210675|0.2833099365234375|0.5321807861328125|-0.22454833984375||||||||||||||||||||||||3
2021-04-22 20:28:44.412 +0100|136822.09206775|0.4887847900390625|0.4610137939453125|-0.273101806640625|136822.07210675|-0.4272847732605213|0.7236975517620186|-0.7381358504620172|5.436958312988281|1.606768012046814|0.2407241463661194|-0.2781621217727661|-0.2239349484443665|0.4000704288482666|XArbitraryZVertical|-0.2597131171549623|0.3941931456181609|-0.3097412370683985|0.8253614306643348|0.4898159205913544|0.6729101538658142|-0.5543217062950134|0|0|0|-1|-1|3
2021-04-22 20:28:44.432 +0100|136822.11202975|0.703094482421875|0.33154296875|-0.26287841796875|136822.09206775|-0.5190900628972891|0.6906656992005447|-0.6531425140700036|5.580868244171143|0.9636169075965881|-0.04313590005040169|-0.06031477451324463|-0.1279635429382324|0.349703311920166|XArbitraryZVertical|-0.2094643260474022|0.3873495205317236|-0.3336821638454609|0.8335115390995238|0.505931556224823|0.6076850891113281|-0.6121701002120972|0|0|0|-1|-1|3
2021-04-22 20:28:44.452 +0100|136822.13199075|0.704742431640625|0.18060302734375|-0.3301239013671875|136822.11202975|-0.6078987435525175|0.6517476798714389|-0.5693717708588293|5.559332847595215|0.2562669813632965|-0.4561400711536407|0.1510574817657471|-0.1712131500244141|0.4240263700485229|XArbitraryZVertical|-0.1619210791835553|0.372801167647604|-0.3579179713657097|0.8406520066185674|0.5108831524848938|0.5391030311584473|-0.6696016788482666|0|0|0|-1|-1|3
2021-04-22 20:28:44.472 +0100|136822.15195175|0.6734771728515625|-0.1387939453125|-0.503448486328125|136822.13199075|-0.7008430138996473|0.6059367035623435|-0.4819441463685125|6.349515438079834|-0.06973429769277573|-0.9061135053634644|0.2138754725456238|-0.2600417137145996|0.3868051171302795|XArbitraryZVertical|-0.1144711824819461|0.3503210723821103|-0.3850655543489507|0.8461063721237287|0.5046599507331848|0.4635027348995209|-0.7283430099487305|0|0|0|-1|-1|3
2021-04-22 20:28:44.492 +0100|136822.17191375|0.6536102294921875|-0.2369232177734375|-0.7537994384765625|136822.17191375|-0.9061043022035858|0.5253048177532232|-0.286174019138631|5.928997039794922|-0.08615385740995407|-1.801395893096924|0.1917227208614349|-0.5843315124511719|0.1653273105621338|XArbitraryZVertical|-0.01132873180429638|0.2913399392162613|-0.4516702020784026|0.8432002942662391|0.4810821413993835|0.2822839319705963|-0.8299853801727295|0|0|0|-1|-1|3
2021-04-22 20:28:44.512 +0100|136822.19187475|0.4831085205078125|0.093231201171875|-1.038375854492188||||||||||||||||||||||||3
2021-04-22 20:28:44.532 +0100|136822.21183575|0.37774658203125|0.1277008056640625|-1.287811279296875|136822.19187475|-0.991719259763236|0.504090033837768|-0.2176964621586622|4.261532306671143|0.07126644998788834|-2.049065589904785|0.06499427556991577|-0.1605915576219559|-0.1366451382637024|XArbitraryZVertical|0.02542142276228088|0.2681042407230342|-0.4818569569220458|0.833839202684747|0.4716106355190277|0.2159810364246368|-0.8549477458000183|0|0|0|-1|-1|3
2021-04-22 20:28:44.552 +0100|136822.23179775|0.48370361328125|0.1155242919921875|-0.953094482421875|136822.21183575|-1.062794803375521|0.4939934051897374|-0.1755933173681596|2.981838464736938|0.1383842378854752|-1.988122582435608|-0.08230364322662354|-0.01903745532035828|-0.2723290920257568|XArbitraryZVertical|0.05011862942728346|0.2530497657544012|-0.5079487813034307|0.8218528610720695|0.4668547511100769|0.1746923625469208|-0.8669078946113586|0|0|0|-1|-1|3
2021-04-22 20:28:44.572 +0100|136822.25175875|0.354339599609375|0.1967315673828125|-0.9096832275390625|136822.23179775|-1.125892989767804|0.4884182209639819|-0.1525074515605429|1.916515469551086|0.3362993896007538|-2.259361267089844|0.004294276237487793|0.05810496211051941|-0.06340748071670532|XArbitraryZVertical|0.06615031996280982|0.2433328107847176|-0.5319176707730291|0.8083792206493666|0.4637834131717682|0.1519169509410858|-0.8728265762329102|0|0|0|-1|-1|3
2021-04-22 20:28:44.592 +0100|136822.27171975|0.34088134765625|0.1333770751953125|-0.760162353515625|136822.25175875|-1.177507406520465|0.4875206121296757|-0.1538889120064857|0.4951200485229492|0.3269870579242706|-2.358305931091309|-0.09536352753639221|-0.01039908826351166|-0.08673733472824097|XArbitraryZVertical|0.071596413907419|0.2415488085414894|-0.5527424323417901|0.7943576307936348|0.4629010260105133|0.1532822400331497|-0.8730562329292297|0|0|0|-1|-1|3
2021-04-22 20:28:44.612 +0100|136822.29168175|0.20269775390625|0.480224609375|-0.63836669921875|136822.27171975|-1.221140560438327|0.487952275094768|-0.1781223855165106|-0.5928028225898743|0.4259102344512939|-2.553218126296997|-0.1308655440807343|-0.0003327876329421997|0.09162414073944092|XArbitraryZVertical|0.06723234435095157|0.2466174093358609|-0.5717540409530726|0.7795877264187305|0.4614005386829376|0.1771819740533829|-0.8693193197250366|0|0|0|-1|-1|3
2021-04-22 20:28:44.632 +0100|136822.31164275|0.2100677490234375|0.666839599609375|-0.6541748046875|136822.29168175|-1.25886884774683|0.4904191679083236|-0.2157347397065873|-0.7366423606872559|0.5629514455795288|-2.461752414703369|-0.2163804769515991|0.1776124536991119|0.1730878949165344|XArbitraryZVertical|0.05765553755084931|0.2565780665146619|-0.5888853763208641|0.7642366393183556|0.4600777328014374|0.2140651941299438|-0.8616870641708374|0|0|0|-1|-1|3
2021-04-22 20:28:44.652 +0100|136822.33160375|0.2600250244140625|0.602325439453125|-0.7791290283203125|136822.31164275|-1.300381918366702|0.4934956528445485|-0.2401245926282145|0.7002545595169067|0.6576356887817383|-2.24279260635376|-0.2647889852523804|0.4051052033901215|0.2162991762161255|XArbitraryZVertical|0.0543416619931495|0.2633247383743073|-0.6060641593119029|0.7485943865218331|0.460115909576416|0.2378236502408981|-0.8554141521453857|0|0|0|-1|-1|3
2021-04-22 20:28:44.672 +0100|136822.35156575|0.31689453125|0.26702880859375|-0.7957305908203125|136822.33160375|-1.354674532268744|0.4940757542776048|-0.2328796715004864|2.357380390167236|0.682536244392395|-2.094621419906616|-0.2272107303142548|0.4377220869064331|0.1289036273956299|XArbitraryZVertical|0.0644341575922449|0.2598604674940354|-0.6257163532905431|0.7326663211019143|0.4614170491695404|0.2307804077863693|-0.8566415309906006|0|0|0|-1|-1|3
2021-04-22 20:28:44.692 +0100|136822.37152675|0.265716552734375|0.1940155029296875|-0.797210693359375|136822.35156575|-1.417547560260229|0.4939433067201784|-0.2069010264392124|2.507847785949707|0.7068520784378052|-2.106946706771851|-0.1425949335098267|0.1264502853155136|0.0506560206413269|XArbitraryZVertical|0.082257907131115|0.2497754459581219|-0.6469440905324108|0.7157578510509227|0.4639900028705597|0.2054280191659927|-0.8616917133331299|0|0|0|-1|-1|3
2021-04-22 20:28:44.712 +0100|136822.39148875|0.2103424072265625|0.191650390625|-0.8107757568359375|136822.37152675|-1.474161487649112|0.4978020887546297|-0.1949786094313103|1.077378153800964|0.7983392477035522|-2.233296871185303|-0.1891059875488281|0.02627050876617432|0.05365079641342163|XArbitraryZVertical|0.09493628076074227|0.2449372640299407|-0.6660772793444681|0.6980931950230856|0.4684478640556335|0.1937455534934998|-0.8619856834411621|0|0|0|-1|-1|3
2021-04-22 20:28:44.732 +0100|136822.41144975|0.1793060302734375|0.4647216796875|-0.7554473876953125|136822.39148875|-1.518387832100201|0.5057952376053091|-0.21147933600543|-0.3562526404857635|0.8798449039459229|-2.354009628295898|-0.2546090483665466|-0.03084507584571838|0.04087728261947632|XArbitraryZVertical|0.09714262507275406|0.2508248128463064|-0.6818757789998549|0.6802174721994212|0.4737092554569244|0.2099065035581589|-0.8553004264831543|0|0|0|-1|-1|3
2021-04-22 20:28:44.752 +0100|136822.43141075|0.182281494140625|0.6350250244140625|-0.7347412109375|136822.41144975|-1.556157781685154|0.5154096797768022|-0.2419835645596601|-0.1251868158578873|0.919740617275238|-2.306254148483276|-0.2906500101089478|0.1107276827096939|0.07993882894515991|XArbitraryZVertical|0.09445384766721991|0.2621226120459041|-0.6956814651361681|0.6621160469034694|0.4785307645797729|0.239628866314888|-0.8447403907775879|0|0|0|-1|-1|3
2021-04-22 20:28:44.771 +0100|136822.45137275|0.1712188720703125|0.582977294921875|-0.6851348876953125|136822.43141075|-1.601337073211027|0.5223354010801539|-0.2543109479375463|1.213172316551208|0.8794140219688416|-2.104250907897949|-0.3042098879814148|0.3835374712944031|0.07817661762237549|XArbitraryZVertical|0.09855479675000925|0.2662628876639304|-0.7106784704661827|0.643682647940049|0.4828591346740723|0.2515785694122314|-0.8387820720672607|0|0|0|-1|-1|3
2021-04-22 20:28:44.791 +0100|136822.47133375|0.1021728515625|0.3523712158203125|-0.7567138671875|136822.45137275|-1.655194814824315|0.5253593570869777|-0.2449572780568443|1.983704090118408|0.7528420090675354|-1.958684682846069|-0.3139760494232178|0.3586045503616333|0.143485426902771|XArbitraryZVertical|0.1099321304123554|0.2612590557090679|-0.727190382427227|0.6251824027066993|0.4865522980690002|0.2425148785114288|-0.839317262172699|0|0|0|-1|-1|3
2021-04-22 20:28:44.811 +0100|136822.49129475|0.0224609375|0.3260345458984375|-0.781158447265625|136822.47133375|-1.70709135428221|0.5266772263312424|-0.2347594957853707|1.259376645088196|0.6281924247741699|-1.926920175552368|-0.3499908447265625|0.1710920780897141|0.1033422946929932|XArbitraryZVertical|0.12049574744237|0.2551391113227976|-0.7426668299208189|0.6073144825178314|0.4888757467269897|0.2326090782880783|-0.8407695889472961|0|0|0|-1|-1|3
2021-04-22 20:28:44.831 +0100|136822.51125675|0.0187225341796875|1.380401611328125|-0.5189971923828125|136822.49129475|-1.747909183076789|0.5295167064692663|-0.2438680725558806|-0.02762151509523392|0.6120814085006714|-1.954648733139038|-0.4653298258781433|0.0575220137834549|0.05875134468078613|XArbitraryZVertical|0.1238390277308131|0.2567226913114733|-0.7550837575468444|0.5904286674162409|0.4901705384254456|0.2414580434560776|-0.8375146985054016|0|0|0|-1|-1|3
2021-04-22 20:28:44.851 +0100|136822.53121775|-0.7616119384765625|2.614639282226562|-1.33563232421875|136822.51125675|-1.772038986101404|0.5341885857606335|-0.2705975611820368|-1.697936058044434|0.2989478707313538|-1.015971541404724|-0.4250951707363129|0.3537704646587372|0.06164699792861938|XArbitraryZVertical|0.1202707631076064|0.2661831022700323|-0.7627854807083894|0.5769228802945889|0.4906158149242401|0.267307311296463|-0.8293629884719849|0|0|0|-1|-1|3
2021-04-22 20:28:44.871 +0100|136822.55117875|0.4468231201171875|-0.1240234375|-0.543121337890625|136822.53121775|-1.773476235498273|0.5449891961089122|-0.2756158713066394|1.292768836021423|0.7042895555496216|0.8995153903961182|-1.109408736228943|1.782608151435852|-0.1655150651931763|XArbitraryZVertical|0.1229976213623567|0.2710026683843229|-0.7627060221256591|0.5742026444456267|0.4988429546356201|0.2721396088600159|-0.8228582739830017|0|0|0|-1|-1|3
2021-04-22 20:28:44.892 +0100|136822.57114075|0.5789642333984375|-0.1238555908203125|-0.5753936767578125|136822.55117875|-1.797504523264624|0.5562619530168704|-0.2266015858296102|2.51862907409668|0.989863395690918|0.06715447455644608|-0.6997897624969482|0.620943546295166|0.128167986869812|XArbitraryZVertical|0.1457949396782538|0.2549147990859705|-0.766978718911231|0.5705313253174555|0.5145170092582703|0.2246672958135605|-0.8275245428085327|0|0|0|-1|-1|3
2021-04-22 20:28:44.911 +0100|136822.5911021667|0.135223388671875|0.6642303466796875|-0.7545928955078125|136822.57114075|-1.798483236598223|0.572751426256946|-0.2200713857785572|-1.279755234718323|0.699362576007843|0.1562405973672867|0.3428431749343872|-0.8333054780960083|0.3259416818618774|XArbitraryZVertical|0.1542576094862393|0.2571627142897545|-0.7657316396599348|0.5689702005808137|0.5288757085800171|0.2182992845773697|-0.8201438784599304|0|0|0|-1|-1|3
2021-04-22 20:28:44.931 +0100|136822.6110631667|0.2793426513671875|0.2613372802734375|-0.65631103515625|136822.5911021667|-1.785247031470067|0.5901771270832946|-0.2357978827007303|-0.4933612644672394|0.7717353105545044|0.124066136777401|-0.4208698868751526|0.5172959566116333|0.05551612377166748|XArbitraryZVertical|0.1542933693277009|0.268826929527228|-0.7613504558940568|0.5694481486359888|0.5411086678504944|0.2336188703775406|-0.807851254940033|0|0|0|-1|-1|3
2021-04-22 20:28:44.951 +0100|136822.6310251667|0.543365478515625|0.22821044921875|-0.594024658203125|136822.6110631667|-1.778446884107941|0.6071607819864159|-0.2396582026655612|-0.4188593327999115|0.7325743436813354|0.2014655917882919|-0.3355888724327087|0.07386220991611481|0.1151503324508667|XArbitraryZVertical|0.1586162295209789|0.2755750058063047|-0.7582714068385389|0.5691431558161875|0.554231584072113|0.2373706102371216|-0.7977986335754395|0|0|0|-1|-1|3
2021-04-22 20:28:44.971 +0100|136822.6509861667|0.5046844482421875|0.159210205078125|-0.5767669677734375|136822.6310251667|-1.768863056439162|0.6209420513719066|-0.2451741941018501|-0.4705501198768616|0.4003812074661255|0.2293297946453094|-0.05904752016067505|-0.007221847772598267|0.1774963140487671|XArbitraryZVertical|0.1607653838885376|0.2822240665341721|-0.7547180616588419|0.5700041985271617|0.5644028782844543|0.2427253127098083|-0.7890081405639648|0|0|0|-1|-1|3
2021-04-22 20:28:44.991 +0100|136822.6709471667|0.4379730224609375|0.427215576171875|-0.524871826171875|136822.6509861667|-1.759734286797523|0.6281960671085025|-0.2496666892591029|-0.6249188780784607|0.1093710660934448|0.258696585893631|-0.04755377769470215|-0.09504307806491852|0.1976987719535828|XArbitraryZVertical|0.1607853545565517|0.2866121621183746|-0.7517608653109954|0.5717144385196774|0.5694649219512939|0.247080996632576|-0.7840030789375305|0|0|0|-1|-1|3
2021-04-22 20:28:45.011 +0100|136822.6909091667|0.423187255859375|0.54541015625|-0.6611480712890625|136822.6709471667|-1.737905107701204|0.6320328937906673|-0.2673436171248316|-2.189549207687378|-0.2692108154296875|0.3711723387241364|-0.09882187843322754|0.1298261880874634|0.2471446990966797|XArbitraryZVertical|0.1534285629697809|0.2955950680139268|-0.7461041183513492|0.5765518417069243|0.5697991251945496|0.2641703486442566|-0.7781664729118347|0|0|0|-1|-1|3
2021-04-22 20:28:45.031 +0100|136822.7108701667|0.507415771484375|0.614837646484375|-0.54473876953125|136822.6909091667|-1.700502838043395|0.6354122687627388|-0.3038595922792933|-2.535042285919189|-0.4608394801616669|0.3942723274230957|-0.1812039613723755|0.2120398879051208|0.1309324502944946|XArbitraryZVertical|0.1371791977844189|0.3117745581006138|-0.7368112044326228|0.584027214669454|0.56632000207901|0.2992052137851715|-0.7679569721221924|0|0|0|-1|-1|3
2021-04-22 20:28:45.051 +0100|136822.7308321667|0.4763336181640625|0.6211395263671875|-0.3869171142578125|136822.7108701667|-1.664957185540828|0.6346995860787272|-0.3324664788540049|-1.7290118932724|-0.7381414771080017|0.6180049777030945|-0.05697286128997803|0.2779178023338318|0.1948239803314209|XArbitraryZVertical|0.1218043277507851|0.323398213145014|-0.7277364231480568|0.5924333175768746|0.5604666471481323|0.326375424861908|-0.7611545920372009|0|0|0|-1|-1|3
2021-04-22 20:28:45.071 +0100|136822.7507931667|0.4105377197265625|0.62054443359375|-0.480926513671875|136822.7308321667|-1.634091101289648|0.6262836434167247|-0.3479138313187991|-1.412812471389771|-1.14974045753479|0.8244882822036743|-0.05243957042694092|0.2875105738639832|0.3295998573303223|XArbitraryZVertical|0.1085246050319515|0.3277013838923816|-0.7196900859687677|0.6023956570574838|0.5510199666023254|0.3409373760223389|-0.7616684436798096|0|0|0|-1|-1|3
2021-04-22 20:28:45.091 +0100|136822.7707541667|0.5084381103515625|0.583251953125|-0.527008056640625|136822.7507931667|-1.598556392982944|0.6128432740780401|-0.3625986251644577|-1.808492302894592|-1.406958103179932|1.044695973396301|-0.1328429579734802|0.2520754039287567|0.3223978281021118|XArbitraryZVertical|0.09283479594638286|0.3301032688540124|-0.7101813597793694|0.6148626135978249|0.5377954244613647|0.3547050952911377|-0.7648270726203918|0|0|0|-1|-1|3
2021-04-22 20:28:45.111 +0100|136822.7907161667|0.487152099609375|0.5084075927734375|-0.5208587646484375|136822.7707541667|-1.552862380445525|0.5986904491178421|-0.3856180055492298|-2.613785266876221|-1.671900629997253|1.13837194442749|-0.03381979465484619|0.2310301959514618|0.2377324104309082|XArbitraryZVertical|0.07219095267982625|0.3347867847494293|-0.6974814811803243|0.6294648433973112|0.5221767425537109|0.3761318325996399|-0.7654125690460205|0|0|0|-1|-1|3
2021-04-22 20:28:45.131 +0100|136822.8106771667|0.4289703369140625|0.5578155517578125|-0.3727569580078125|136822.7907161667|-1.493737969624086|0.5865991918609874|-0.4256312318756784|-3.753759860992432|-1.877484440803528|1.113795638084412|-0.01233947277069092|0.1087865829467773|0.2224644422531128|XArbitraryZVertical|0.04360287254641931|0.3447288587248317|-0.6804718722824815|0.6451502426198503|0.5041448473930359|0.4128957688808441|-0.7585216164588928|0|0|0|-1|-1|3
2021-04-22 20:28:45.151 +0100|136822.8306381667|0.350738525390625|0.74468994140625|-0.4027557373046875|136822.8106771667|-1.42149602732484|0.5781489008148955|-0.4853118379727492|-4.708370208740234|-2.126910209655762|1.039183855056763|-0.02435874938964844|0.07482102513313293|0.3404569625854492|XArbitraryZVertical|0.005980877179353845|0.3599697928237661|-0.6589226068218214|0.6604596845111093|0.4833729565143585|0.4664842188358307|-0.7407719492912292|0|0|0|-1|-1|3
2021-04-22 20:28:45.171 +0100|136822.8506001667|0.3556671142578125|0.8282012939453125|-0.4061126708984375|136822.8306381667|-1.341986346968936|0.5741515403822546|-0.5546802325505498|-4.882691860198975|-2.262662410736084|0.9607620239257812|-0.1122813522815704|0.17027348279953|0.308611273765564|XArbitraryZVertical|-0.03634003776057777|0.3765604152800626|-0.6342504467168643|0.6742464039235063|0.4616916477680206|0.5266715288162231|-0.7137632966041565|0|0|0|-1|-1|3
2021-04-22 20:28:45.191 +0100|136822.8705611667|0.3674468994140625|0.9767913818359375|-0.3283538818359375|136822.8506001667|-1.258252805626433|0.5744897953501761|-0.6271225589595155|-5.012507915496826|-2.358853578567505|0.9386284351348877|-0.08693453669548035|0.1937154531478882|0.2749185562133789|XArbitraryZVertical|-0.08059268362501851|0.3919660019730252|-0.6074689733218331|0.6861845028037893|0.4400068819522858|0.5868172645568848|-0.6797349452972412|0|0|0|-1|-1|3
2021-04-22 20:28:45.211 +0100|136822.8905221667|0.268768310546875|1.073333740234375|-0.201904296875|136822.8705611667|-1.169007934219946|0.5805523367287748|-0.7015672155062205|-5.047987461090088|-2.538290977478027|0.8997348546981812|-0.03827545046806335|0.29869145154953|0.2731605172157288|XArbitraryZVertical|-0.1262834145929759|0.4058445510024148|-0.5785313988065286|0.6961640098125351|0.4189508855342865|0.6454155445098877|-0.638685405254364|0|0|0|-1|-1|3
2021-04-22 20:28:45.230 +0100|136822.9104841667|0.347930908203125|1.190948486328125|-0.3057098388671875|136822.8905221667|-1.07637725411862|0.5914614302686663|-0.773606620772185|-4.631678104400635|-2.610828876495361|0.8346872925758362|-0.1122051477432251|0.3540908098220825|0.3846549987792969|XArbitraryZVertical|-0.1714937331983659|0.4167199300887334|-0.548502556200761|0.7043290700375652|0.3988864123821259|0.6987199187278748|-0.5938687920570374|0|0|0|-1|-1|3
2021-04-22 20:28:45.250 +0100|136822.9304451667|0.3580322265625|1.148788452148438|-0.3676910400390625|136822.9104841667|-0.9869457757771356|0.6024306832118596|-0.8340604991242997|-3.928642511367798|-2.739746809005737|0.9595888257026672|-0.05588707327842712|0.4219779372215271|0.2397849559783936|XArbitraryZVertical|-0.2121715932628972|0.4221189211282639|-0.519423816611437|0.71203775642933|0.3807152509689331|0.74066561460495|-0.5535976886749268|0|0|0|-1|-1|3
2021-04-22 20:28:45.271 +0100|136822.9504061667|0.431365966796875|0.95428466796875|-0.2476348876953125|136822.9304451667|-0.8954664009714197|0.6163072032508136|-0.8840970904536726|-3.757431030273438|-2.805635213851929|1.031747341156006|-0.02208670973777771|0.4242585897445679|0.1468927264213562|XArbitraryZVertical|-0.2487760262228135|0.4236006243079131|-0.4898368456145921|0.7202311388763528|0.3664613962173462|0.7733428478240967|-0.5173460245132446|0|0|0|-1|-1|3
2021-04-22 20:28:45.290 +0100|136822.9703681667|0.4053192138671875|1.10308837890625|-0.592498779296875|136822.9504061667|-0.7923501584466184|0.6398489919212735|-0.9383484184388053|-4.390672206878662|-3.011045455932617|0.8991793394088745|0.07373738288879395|0.1610839366912842|0.227225124835968|XArbitraryZVertical|-0.2877154579758638|0.4244117318764375|-0.4579136534651902|0.7262297721681497|0.3529432117938995|0.8065829277038574|-0.4741889834403992|0|0|0|-1|-1|3
2021-04-22 20:28:45.310 +0100|136822.9903291667|0.4185638427734375|1.145172119140625|-0.7540740966796875|136822.9703681667|-0.6708288858955155|0.6795901590225182|-0.9975087630157399|-4.349393367767334|-3.001206874847412|0.9586963653564453|0.0730416476726532|0.2153130173683167|-0.07656630873680115|XArbitraryZVertical|-0.3295084093971027|0.4248268031154886|-0.4230752242344253|0.729351588964895|0.3408825099468231|0.8401223421096802|-0.4218927919864655|0|0|0|-1|-1|3
2021-04-22 20:28:45.330 +0100|136823.0102911667|0.48089599609375|1.0616455078125|-0.4788970947265625|136822.9903291667|-0.5409901776861079|0.7336217508283756|-1.045787653495228|-3.770614147186279|-2.662276029586792|1.023837089538574|0.06985613703727722|0.3123846054077148|-0.3892978429794312|XArbitraryZVertical|-0.3661909525468608|0.4239838082638164|-0.3886916552372028|0.7314785554342441|0.3355993926525116|0.8653196096420288|-0.3722838461399078|0|0|0|-1|-1|3
2021-04-22 20:28:45.350 +0100|136823.0302521667|0.3754119873046875|1.335708618164062|-0.196502685546875|136823.0102911667|-0.397192139141023|0.8079644362099877|-1.089605831900444|-4.310289859771729|-2.610286235809326|0.8982532620429993|0.1365082859992981|0.154693603515625|-0.2361329793930054|XArbitraryZVertical|-0.4008402093436513|0.4235849376123235|-0.3548594544011332|0.7307379539730754|0.3345752954483032|0.8864445686340332|-0.3198058605194092|0|0|0|-1|-1|3
2021-04-22 20:28:45.371 +0100|136823.0502131667|0.2436981201171875|1.4044189453125|-0.678863525390625|136823.0302521667|-0.2208577111790038|0.910442540743891|-1.134641378809064|-4.33017110824585|-2.97855281829834|0.8033464550971985|0.09326258301734924|0.3788960576057434|-0.001623392105102539|XArbitraryZVertical|-0.4388480696074097|0.4217171074005203|-0.318298972080016|0.7268101776732855|0.3336468040943146|0.9063827395439148|-0.2591341137886047|0|0|0|-1|-1|3
2021-04-22 20:28:45.390 +0100|136823.0701751667|0.3272247314453125|1.23040771484375|-0.9100189208984375|136823.0502131667|-0.04933852233728363|1.006370154644843|-1.16260887956832|-2.97129487991333|-3.003254413604736|0.9508103132247925|-0.1032780408859253|0.4369102716445923|-0.3300344944000244|XArbitraryZVertical|-0.4709650156627881|0.4147558445407576|-0.2827723392875967|0.7254029841096241|0.335378497838974|0.9178417921066284|-0.2123390883207321|0|0|0|-1|-1|3
2021-04-22 20:28:45.410 +0100|136823.0901361667|0.3341522216796875|1.24481201171875|-0.9016265869140625|136823.0701751667|0.08866263373868737|1.076915128206561|-1.170829533532983|-2.343705892562866|-2.631929874420166|1.083442687988281|-0.03044846653938293|0.3299335837364197|-0.6919071674346924|XArbitraryZVertical|-0.4928362158158348|0.4059783545242042|-0.2513628878218645|0.7274000150824335|0.342855840921402|0.9210739135742188|-0.1845880746841431|0|0|0|-1|-1|3
2021-04-22 20:28:45.430 +0100|136823.1100971667|0.3116455078125|1.082687377929688|-0.660186767578125|136823.0901361667|0.2183969446084683|1.14869337320993|-1.171407433394446|-2.198173522949219|-2.173459529876709|1.093079090118408|-0.02576252818107605|0.3006103038787842|-0.7852734923362732|XArbitraryZVertical|-0.5106652796172237|0.3994593618586217|-0.2222870265517012|0.7281771056838041|0.3547257781028748|0.9212988018989563|-0.1593063771724701|0|0|0|-1|-1|3
2021-04-22 20:28:45.450 +0100|136823.1300591667|0.2992095947265625|1.0928955078125|-0.4493865966796875|136823.1100971667|0.3460760604663217|1.227280636138903|-1.168744499568835|-2.517864465713501|-1.788221597671509|1.016291737556458|-0.05172052979469299|0.2213269472122192|-0.5943121910095215|XArbitraryZVertical|-0.5269853792931289|0.395462091791325|-0.1955317285435402|0.7264046536169599|0.3684462904930115|0.9202600121498108|-0.1317922919988632|0|0|0|-1|-1|3
2021-04-22 20:28:45.470 +0100|136823.1500201667|0.043426513671875|1.100845336914062|-0.6240234375|136823.1300591667|0.496151505499396|1.33106054262189|-1.166143510447298|-2.892402410507202|-1.629915118217468|0.9593454003334045|-0.04323822259902954|0.1440089344978333|-0.3733141422271729|XArbitraryZVertical|-0.5463947026804384|0.3933339952328995|-0.1683417355112198|0.7200015666300418|0.3824401199817657|0.9192391633987427|-0.09348239749670029|0|0|0|-1|-1|3
2021-04-22 20:28:45.490 +0100|136823.1699811667|0.089141845703125|0.851837158203125|-0.59930419921875|136823.1500201667|0.6456102463271314|1.439691773454384|-1.158939394686866|-2.586282014846802|-1.278080344200134|0.7102990746498108|-0.3239099681377411|0.2863650321960449|-0.530217170715332|XArbitraryZVertical|-0.5654607870249292|0.3925402446731118|-0.1427689680247164|0.711184523092691|0.3968765735626221|0.9163790345191956|-0.05233250930905342|0|0|0|-1|-1|3
2021-04-22 20:28:45.510 +0100|136823.1899431667|-0.137298583984375|0.9995269775390625|-0.5901336669921875|136823.1699811667|0.7949046719221036|1.55457568453675|-1.155219058236501|-3.304079055786133|-1.031266450881958|0.2837216854095459|-0.539668083190918|-0.1123009324073792|-0.6029788255691528|XArbitraryZVertical|-0.5863064125685677|0.3911146194089594|-0.1219511026531552|0.6988578697015778|0.4036656320095062|0.9148834347724915|-0.006548290140926838|0|0|0|-1|-1|3
2021-04-22 20:28:45.531 +0100|136823.2099041667|0.2547149658203125|1.268035888671875|-0.49554443359375|136823.1899431667|0.9566914589195608|1.681875250927867|-1.143347586095081|-2.965811252593994|-0.9922419786453247|0.4623310267925262|-0.2114660143852234|0.04128342866897583|-0.9113243818283081|XArbitraryZVertical|-0.6087638788987615|0.3903628547043836|-0.09984398257400763|0.683414046526399|0.4119960963726044|0.9100263118743896|0.04595323652029037|0|0|0|-1|-1|3
2021-04-22 20:28:45.550 +0100|136823.2298661667|0.2227630615234375|1.07879638671875|-0.399871826171875|136823.2099041667|1.028744291994829|1.731220027552753|-1.133242096501353|-0.5914831161499023|-0.6621248722076416|0.355191171169281|-0.4450039565563202|0.4168416261672974|-0.6304280757904053|XArbitraryZVertical|-0.6190038563940246|0.3881706445778194|-0.08680598184594031|0.6772168133471276|0.4182848930358887|0.9057906866073608|0.06768444925546646|0|0|0|-1|-1|3
2021-04-22 20:28:45.570 +0100|136823.2498271667|0.389251708984375|0.939239501953125|-0.190277099609375|136823.2298661667|1.042959379196816|1.731273399073735|-1.124815820896042|-0.08022607117891312|-0.6191422939300537|0.3286425471305847|-0.1477863490581512|0.198337197303772|-0.4746545553207397|XArbitraryZVertical|-0.6205996202824646|0.3864169592439994|-0.07892903850713574|0.6777228824252846|0.4258005619049072|0.9021881818771362|0.06892391294240952|0|0|0|-1|-1|3
2021-04-22 20:28:45.590 +0100|136823.2697881667|0.3352508544921875|0.8749542236328125|-0.1978302001953125|136823.2498271667|1.019560831934697|1.697561123122011|-1.119032767325447|1.051170468330383|-0.575957715511322|0.3953973352909088|-0.03165352344512939|0.07813566923141479|-0.2915343046188354|XArbitraryZVertical|-0.6165638061398422|0.3839854362695424|-0.07435647751489062|0.6832828959455455|0.4330503344535828|0.8996785879135132|0.05519148334860802|0|0|0|-1|-1|3
2021-04-22 20:28:45.610 +0100|136823.2897501667|0.3881072998046875|0.8943939208984375|-0.24566650390625|136823.2697881667|0.9387084468681773|1.615627320065947|-1.114965711312237|2.544723033905029|-0.3661413490772247|0.3205384612083435|-0.1453947126865387|0.01117777824401855|-0.2032757997512817|XArbitraryZVertical|-0.6035005137299587|0.3816429232961891|-0.0757812631289576|0.6959836068559367|0.4397663772106171|0.8978956937789917|0.01972838118672371|0|0|0|-1|-1|3
2021-04-22 20:28:45.630 +0100|136823.3097111667|0.366607666015625|0.7458343505859375|-0.0820465087890625|136823.2897501667|0.787634975388933|1.473779664728684|-1.10851337424537|4.015460014343262|-0.2689764201641083|0.1546627581119537|-0.06276264786720276|0.001692473888397217|-0.2025108337402344|XArbitraryZVertical|-0.5791801465925377|0.378087160121731|-0.08497732109161021|0.7172025731232117|0.4438958168029785|0.8950366377830505|-0.04320091381669044|0|0|0|-1|-1|3
2021-04-22 20:28:45.650 +0100|136823.3296721667|0.4267730712890625|0.6396636962890625|-0.0893402099609375|136823.3097111667|0.6130679081517069|1.312896561563089|-1.092327997115054|3.700234413146973|-0.2376575171947479|0.05816267058253288|-0.08301150798797607|-0.06555700302124023|-0.01339805126190186|XArbitraryZVertical|-0.5496528677454933|0.3730503193201694|-0.09795881045559786|0.7410259204225245|0.4451932311058044|0.887701153755188|-0.1174303665757179|0|0|0|-1|-1|3
2021-04-22 20:28:45.670 +0100|136823.3496341667|0.385467529296875|0.7684783935546875|-0.2970123291015625|136823.3296721667|0.4918598901643375|1.201584849070719|-1.073884443783604|2.365732669830322|-0.1602442711591721|-0.09416490793228149|-0.0419863760471344|-0.2608484625816345|0.1209809333086014|XArbitraryZVertical|-0.5275025037673772|0.3684059256492929|-0.1078898780803354|0.7578773092616506|0.4445886313915253|0.8790588974952698|-0.1720363646745682|0|0|0|-1|-1|3
2021-04-22 20:28:45.690 +0100|136823.3695951667|0.3923797607421875|0.711761474609375|-0.406524658203125|136823.3496341667|0.4134490768954805|1.129926977365642|-1.061277272950856|1.737313985824585|-0.1100926399230957|-0.292127788066864|-0.03435090184211731|-0.1280901432037354|-0.04269996285438538|XArbitraryZVertical|-0.5131207773311904|0.3641945020612236|-0.1156603612075738|0.7685651148799497|0.4411188960075378|0.8729791641235352|-0.2081388682126999|0|0|0|-1|-1|3
2021-04-22 20:28:45.710 +0100|136823.3895561667|0.361175537109375|0.7017822265625|-0.3857269287109375|136823.3695951667|0.3526673117028131|1.076903054883966|-1.055268981226745|1.068626999855042|0.08088461309671402|-0.5163254737854004|-0.05447080731391907|-0.1334294676780701|-0.1710773110389709|XArbitraryZVertical|-0.5032693077433182|0.3603696471741372|-0.124071727023261|0.775538547885991|0.4340781271457672|0.8700328469276428|-0.2337074428796768|0|0|0|-1|-1|3
2021-04-22 20:28:45.730 +0100|136823.4095181667|0.3993377685546875|0.8572845458984375|-0.3949737548828125|136823.3895561667|0.3168605598617267|1.048764428492885|-1.059392730348923|0.4568381309509277|0.2341827750205994|-0.6905016303062439|-0.03803360462188721|-0.2531155347824097|-0.1525694727897644|XArbitraryZVertical|-0.5000683055705982|0.3576498252348289|-0.1319559354024167|0.7775641859310566|0.4242174327373505|0.8720584511756897|-0.2440365850925446|0|0|0|-1|-1|3
2021-04-22 20:28:45.750 +0100|136823.4294791667|0.3118896484375|1.091934204101562|-0.537078857421875|136823.4095181667|0.2888067733690051|1.031635121866479|-1.070115829620792|-0.001197430887259543|0.4953718483448029|-0.8695442676544189|-0.06538528203964233|-0.04731464385986328|-0.1167986989021301|XArbitraryZVertical|-0.4999912926141524|0.356065828982418|-0.1412001403002497|0.7767165473219171|0.4119267761707306|0.8772560954093933|-0.246451660990715|0|0|0|-1|-1|3
2021-04-22 20:28:45.770 +0100|136823.4494401667|0.4873046875|1.2568359375|-0.013885498046875|136823.4294791667|0.2912198484731549|1.043487209616983|-1.0884015337026|-0.5763816833496094|0.4407678246498108|-0.7300651669502258|-0.0464116632938385|0.06086087226867676|-0.2581824660301208|XArbitraryZVertical|-0.5059689623767396|0.3567567087770475|-0.1476847855031539|0.7713036735428406|0.4008876979351044|0.8858864903450012|-0.2334401160478592|0|0|0|-1|-1|3
2021-04-22 20:28:45.790 +0100|136823.4694021667|0.1936187744140625|0.94287109375|-0.3371124267578125|136823.4494401667|0.2659972044892415|1.030148934114713|-1.098306353752056|0.7243751287460327|0.4664384126663208|-0.467675656080246|0.02020332217216492|0.37071692943573|-0.04347097873687744|XArbitraryZVertical|-0.5059492198288075|0.3562247338940313|-0.1564149723076108|0.7698401900515437|0.3901961743831635|0.8904378414154053|-0.2342386543750763|0|0|0|-1|-1|3
2021-04-22 20:28:45.810 +0100|136823.4893631667|0.5457763671875|0.6360321044921875|-0.2954254150390625|136823.4694021667|0.2252418326637431|1.000688729627385|-1.094466719275164|0.7476246356964111|0.2966622114181519|-0.3698868453502655|-0.1914843916893005|0.10870760679245|-0.1052477657794952|XArbitraryZVertical|-0.4996914373813221|0.3557687555148263|-0.1638266063502128|0.7725918653086049|0.3860026001930237|0.8886838555335999|-0.2474741190671921|0|0|0|-1|-1|3
2021-04-22 20:28:45.829 +0100|136823.5093251667|0.3284149169921875|0.8689117431640625|-0.3405303955078125|136823.4893631667|0.219249863471988|0.9992389894468893|-1.103655978270658|-1.03894579410553|0.1117025017738342|-0.5155249834060669|0.2195069491863251|-0.344519317150116|-0.04739457368850708|XArbitraryZVertical|-0.5020364496836133|0.355185417838788|-0.1678754573992038|0.77046787085358|0.3787586987018585|0.8928597569465637|-0.243605449795723|0|0|0|-1|-1|3
2021-04-22 20:28:45.850 +0100|136823.5292861667|0.473541259765625|1.018096923828125|-0.4321441650390625|136823.5093251667|0.2346355290496177|1.015114908385694|-1.120259377055616|-0.05152235180139542|0.156731978058815|-0.5031768083572388|-0.06321603059768677|-0.04506456851959229|-0.1245690584182739|XArbitraryZVertical|-0.5093233420827423|0.3545915260249304|-0.1697969551328857|0.7655218508824572|0.3699320256710052|0.9002134203910828|-0.2297091633081436|0|0|0|-1|-1|3
2021-04-22 20:28:45.869 +0100|136823.5492471667|0.4105987548828125|1.414199829101562|-0.50103759765625|136823.5292861667|0.1950673622543784|0.9816441563301297|-1.118432794570532|1.859457492828369|0.01874848641455173|-0.2975955307483673|0.1345502734184265|0.1097850203514099|-0.145477756857872|XArbitraryZVertical|-0.5045758427332933|0.3520888741867854|-0.1760730729562419|0.7683976594219434|0.3634040951728821|0.8994165062904358|-0.2428732812404633|0|0|0|-1|-1|3
2021-04-22 20:28:45.889 +0100|136823.5692091667|0.4106597900390625|0.7187652587890625|-0.0844268798828125|136823.5492471667|0.06838143304093257|0.8687582609657258|-1.077432786334093|5.412727832794189|0.06785435229539871|0.1458822190761566|0.03697386384010315|0.4287955164909363|-0.1559582352638245|XArbitraryZVertical|-0.4774665052343031|0.3451217217933344|-0.1891654132994096|0.7855783670492361|0.3616000115871429|0.8807448744773865|-0.3058334589004517|0|0|0|-1|-1|3
2021-04-22 20:28:45.909 +0100|136823.58917025|0.5177459716796875|1.079299926757812|0.257598876953125|136823.5692091667|-0.08022784840676009|0.7409696973429177|-0.9967121476726759|4.553536415100098|-0.04017789661884308|0.2761483490467072|0.06544941663742065|0.2952898740768433|0.09861934185028076|XArbitraryZVertical|-0.4324395773705695|0.3356411445369998|-0.2057578978870424|0.8111750284937211|0.3665717244148254|0.8396900296211243|-0.4006820619106293|0|0|0|-1|-1|3
2021-04-22 20:28:45.929 +0100|136823.60913125|0.3251495361328125|0.24090576171875|0.1993865966796875|136823.58917025|-0.156693590344128|0.6689089492770558|-0.9396543497764568|3.33454704284668|-0.7878496050834656|0.201495498418808|0.1256117522716522|-0.04648923873901367|0.6320814490318298|XArbitraryZVertical|-0.4034266113008248|0.3252590126814578|-0.2140744646349635|0.8280253149837564|0.3659187257289886|0.807354211807251|-0.462907075881958|0|0|0|-1|-1|3
2021-04-22 20:28:45.949 +0100|136823.62909325|0.2982177734375|0.1209716796875|-0.3288726806640625|136823.60913125|-0.2288700397343862|0.5946682193676316|-0.8793894679491659|3.849756002426147|-0.9725077748298645|-0.1825101226568222|0.02045205235481262|-0.09725344181060791|0.7775537967681885|XArbitraryZVertical|-0.3740524632750021|0.3098431557209297|-0.2226823984386273|0.8452778180286895|0.3572172820568085|0.7703497409820557|-0.5281639695167542|0|0|0|-1|-1|3
2021-04-22 20:28:45.969 +0100|136823.64905425|0.324798583984375|0.508392333984375|-1.045150756835938|136823.62909325|-0.2878658299063637|0.5301135630855357|-0.8303667091032182|2.449377775192261|-0.9676613211631775|-0.4708907902240753|-0.0972670316696167|-0.7715339064598083|0.4880824685096741|XArbitraryZVertical|-0.3508633126191452|0.2930651844855504|-0.2312393837154554|0.858799363740649|0.3411015570163727|0.7381787896156311|-0.5820154547691345|0|0|0|-1|-1|3
2021-04-22 20:28:45.989 +0100|136823.66901625|0.43048095703125|1.184494018554688|-0.3834228515625|136823.66901625|-0.3956507416302209|0.4252451329501395|-0.7225961992477345|5.702164649963379|-0.5120669007301331|-0.05104060471057892|0.06349334120750427|0.4318516850471497|-0.1221333742141724|XArbitraryZVertical|-0.2999929115934634|0.2614594427320345|-0.2528485299059427|0.8818791930439999|0.3094457387924194|0.6613342761993408|-0.6832864284515381|0|0|0|-1|-1|3
2021-04-22 20:28:46.009 +0100|136823.68897725|0.3216094970703125|0.1108245849609375|-0.5604248046875||||||||||||||||||||||||3
2021-04-22 20:28:46.029 +0100|136823.70893825|0.40673828125|0.6513671875|-0.92291259765625|136823.68897725|-0.4490456038619133|0.3830066559785849|-0.6268784516813938|3.927536487579346|-0.447686105966568|-0.007266404572874308|-0.03452804684638977|-0.1956888437271118|0.321298360824585|XArbitraryZVertical|-0.2547862654345246|0.2439095070396777|-0.2651354101408719|0.8973825564075738|0.3026545643806458|0.5866196155548096|-0.7511842250823975|0|0|0|-1|-1|3
2021-04-22 20:28:46.049 +0100|136823.72890025|0.26409912109375|0.55401611328125|-1.179443359375|136823.70893825|-0.4642248077404971|0.3638561580537709|-0.5889964957499085|0.3695106506347656|-0.445561945438385|0.07730733603239059|0.1819901168346405|0.09297215938568115|0.0006334185600280762|XArbitraryZVertical|-0.2379865988649698|0.2341614430706647|-0.2676046968931869|0.9038355278698887|0.2959142029285431|0.5555269122123718|-0.7770615816116333|0|0|0|-1|-1|3
2021-04-22 20:28:46.069 +0100|136823.74886125|0.4010772705078125|0.484527587890625|-0.9940032958984375|136823.72890025|-0.454981726309668|0.3632188945828157|-0.6112007881156621|-2.727530717849731|-0.1469169557094574|-0.1848735809326172|-0.05710875988006592|-0.143369734287262|-0.4058881402015686|XArbitraryZVertical|-0.2494467025293094|0.2345459721393592|-0.2644868845879604|0.9015605317049518|0.2909640073776245|0.5738512873649597|-0.7655290365219116|0|0|0|-1|-1|3
2021-04-22 20:28:46.089 +0100|136823.76882225|0.4986724853515625|0.0631866455078125|-0.809661865234375|136823.74886125|-0.4245008656287291|0.3819261302902751|-0.6917700593344429|-5.789783954620361|0.1410861611366272|-0.5064280033111572|0.09569039940834045|-0.04201453924179077|-0.3882141709327698|XArbitraryZVertical|-0.2877804916547933|0.2446781787699034|-0.2574868073355112|0.889390601932516|0.2870295941829681|0.6379013061523438|-0.7146299481391907|0|0|0|-1|-1|3
2021-04-22 20:28:46.109 +0100|136823.78878425|0.16973876953125|0.5528717041015625|0.1450042724609375|136823.76882225|-0.3597350306442349|0.4305375743425955|-0.8362127676992479|-8.236092567443848|-0.1122506484389305|-0.8599931001663208|0.2304907441139221|-0.649961531162262|-0.2045650482177734|XArbitraryZVertical|-0.3553370733335052|0.2630222313586262|-0.2450481995461295|0.862847907717369|0.279746949672699|0.7421099543571472|-0.6091097593307495|0|0|0|-1|-1|3
2021-04-22 20:28:46.129 +0100|136823.80874525|0.2976226806640625|1.59429931640625|-0.224761962890625|136823.78878425|-0.2694344567360373|0.5009318794245836|-0.9830963513749641|-7.903846740722656|-0.1124219447374344|-0.7999168634414673|-0.07694000005722046|-0.1982606649398804|0.5317215919494629|XArbitraryZVertical|-0.4237725468183698|0.2779453649999926|-0.2306391102767656|0.8306436861273938|0.2662700712680817|0.8322181105613708|-0.4863263964653015|0|0|0|-1|-1|3
2021-04-22 20:28:46.149 +0100|136823.82870625|0.3005523681640625|0.651092529296875|0.2392730712890625|136823.80874525|-0.1445060439303909|0.6048073838215522|-1.109876197003534|-5.214852809906006|-0.1993943303823471|-0.6622631549835205|0.01258736848831177|0.3706990480422974|0.3445741534233093|XArbitraryZVertical|-0.4833967649261724|0.288773293480977|-0.2150794780314048|0.7979213618061292|0.2528993189334869|0.8956436514854431|-0.3658750951290131|0|0|0|-1|-1|3
2021-04-22 20:28:46.169 +0100|136823.84866825|0.1394805908203125|0.5243072509765625|-0.2418975830078125|136823.82870625|-0.06208618061465874|0.6730315999528822|-1.181032386040158|-3.421379089355469|-0.5404080748558044|-0.7048311829566956|0.1078217476606369|-0.2762709259986877|0.3577358722686768|XArbitraryZVertical|-0.5167935429847037|0.2904622115516132|-0.2080993489356433|0.7779787477648638|0.2368580549955368|0.9249987602233887|-0.2971122860908508|0|0|0|-1|-1|3
2021-04-22 20:28:46.189 +0100|136823.86862925|0.24609375|0.7224273681640625|-0.08599853515625|136823.84866825|0.01355091961228111|0.7346107267644347|-1.240398789648862|-3.718414783477783|-0.4367815852165222|-1.269811272621155|-0.03175930678844452|-0.008107841014862061|0.1920586228370667|XArbitraryZVertical|-0.5443980213127545|0.2885417010575849|-0.2035583477766827|0.7608801587625179|0.2174577862024307|0.9459134340286255|-0.2407489567995071|0|0|0|-1|-1|3
2021-04-22 20:28:46.209 +0100|136823.88859125|0.1415863037109375|1.423553466796875|-0.20697021484375|136823.86862925|0.2707990726430989|0.969822059048139|-1.339564557382942|-7.122672557830811|-0.7221041917800903|-1.284199953079224|-0.04490336775779724|-0.8778035044670105|0.129450336098671|XArbitraryZVertical|-0.5935459035062716|0.2879403998370983|-0.1931081579011619|0.7262939186311814|0.1890216171741486|0.9733848571777344|-0.1295871734619141|0|0|0|-1|-1|3
2021-04-22 20:28:46.229 +0100|136823.90855225|0.2040863037109375|1.23101806640625|0.1638946533203125|136823.88859125|0.7877392908881479|1.466465263644181|-1.403001478321245|-4.638495922088623|-0.3686685562133789|-1.011994361877441|0.05975784361362457|0.6367560625076294|-0.2530688047409058|XArbitraryZVertical|-0.6389959866662988|0.2880759741076559|-0.1810405114272942|0.6898702167600171|0.1661017537117004|0.9859554171562195|-0.01739272475242615|0|0|0|-1|-1|3
2021-04-22 20:28:46.249 +0100|136823.92851325|0.1173858642578125|1.122970581054688|0.2776641845703125|136823.90855225|1.322108732989323|1.98733632616847|-1.408419395274588|-3.80816650390625|-0.2972578406333923|-0.8734612464904785|0.03272987902164459|0.1994794607162476|0.04491221159696579|XArbitraryZVertical|-0.6709574029311887|0.2872644481602246|-0.1729760397426094|0.6613430818157473|0.147841602563858|0.9868457913398743|0.06540939956903458|0|0|0|-1|-1|3
2021-04-22 20:28:46.269 +0100|136823.94847525|0.107208251953125|1.005416870117188|0.318359375|136823.92851325|1.669620964950372|2.325069840309725|-1.388940076669035|-2.296311616897583|-0.1893897950649261|-0.8108960390090942|-0.002409294247627258|0.1753803491592407|0.122617244720459|XArbitraryZVertical|-0.6932716645012552|0.2851246660611431|-0.1682153537896332|0.6401422606828123|0.1318028271198273|0.9835096597671509|0.1238433495163918|0|0|0|-1|-1|3
2021-04-22 20:28:46.289 +0100|136823.96843625|0.09503173828125|0.8754119873046875|0.3256988525390625|136823.94847525|1.860323001424891|2.50923237138583|-1.373203848456708|-1.354329586029053|-0.1563121676445007|-0.8742847442626953|-0.01004242151975632|0.0242035984992981|0.1574766486883163|XArbitraryZVertical|-0.7071275798534843|0.2813285106827904|-0.1673130803599902|0.626762541590571|0.1160289570689201|0.9805420637130737|0.1583502888679504|0|0|0|-1|-1|3
2021-04-22 20:28:46.308 +0100|136823.98839725|0.069427490234375|0.9262542724609375|0.324737548828125|136823.96843625|1.998342205662708|2.640868163389777|-1.363262628371839|-1.072910070419312|-0.2109080255031586|-0.9721531271934509|0.006368905305862427|-0.08356815576553345|0.138721227645874|XArbitraryZVertical|-0.7171817580867419|0.2757293262956724|-0.1684283139353637|0.6174591054708232|0.09891574084758759|0.9785420894622803|0.1807526648044586|0|0|0|-1|-1|3
2021-04-22 20:28:46.329 +0100|136824.00835925|-0.0037689208984375|1.020355224609375|0.347259521484375|136823.98839725|2.131332070357649|2.766014134614746|-1.352318803965175|-1.173085689544678|-0.2825855016708374|-1.124948620796204|-0.001502260565757751|-0.04930281639099121|0.1253906488418579|XArbitraryZVertical|-0.7271074583202611|0.2685757143924826|-0.1700874030250784|0.6084835646426706|0.07950417697429657|0.9762285947799683|0.2016363441944122|0|0|0|-1|-1|3
2021-04-22 20:28:46.348 +0100|136824.02832025|-0.087005615234375|1.221435546875|0.338043212890625|136824.00835925|2.263467927633543|2.888733454492713|-1.335801895559965|-1.252051711082458|-0.2954564988613129|-1.16378128528595|-0.03894848376512527|-0.006329119205474854|0.1178588569164276|XArbitraryZVertical|-0.7381801104850308|0.260397953736258|-0.1715655275786318|0.5982042869990348|0.0582498237490654|0.9725156426429749|0.2254339456558228|0|0|0|-1|-1|3
2021-04-22 20:28:46.368 +0100|136824.04828125|-0.1487884521484375|1.072830200195312|0.368560791015625|136824.02832025|2.370035643785388|2.98677901946618|-1.320645652253394|-0.4901037812232971|-0.2433658987283707|-1.087599158287048|-0.09049472212791443|0.2067230939865112|0.1510403156280518|XArbitraryZVertical|-0.747405617710911|0.2523487654471083|-0.1735229753978816|0.589571776765991|0.03817132860422134|0.9688751101493835|0.2445901185274124|0|0|0|-1|-1|3
2021-04-22 20:28:46.389 +0100|136824.06824325|-0.1285247802734375|1.019332885742188|0.320037841796875|136824.04828125|2.449844710091738|3.060693858476935|-1.320370148509242|0.04430771991610527|-0.08314155787229538|-0.8376004695892334|-0.1680375039577484|0.1512339115142822|0.07347425818443298|XArbitraryZVertical|-0.7509014504033322|0.2442342538428876|-0.177687965632213|0.5873020485231419|0.02002625353634357|0.9688069224357605|0.2470067143440247|0|0|0|-1|-1|3
2021-04-22 20:28:46.408 +0100|136824.08820425|-0.1169891357421875|0.852752685546875|0.24761962890625|136824.06824325|2.519328478014653|3.126852840898238|-1.327759583310173|0.3812129497528076|0.008194379508495331|-0.7872721552848816|-0.1631855070590973|0.09303289651870728|0.03358986973762512|XArbitraryZVertical|-0.7511627913080223|0.2367861979815245|-0.1831034861509041|0.5883537556022829|0.003547046100720763|0.9706116318702698|0.2406264841556549|0|0|0|-1|-1|3
2021-04-22 20:28:46.428 +0100|136824.10816625|-0.14788818359375|0.90850830078125|0.3217926025390625|136824.08820425|2.593903742420409|-3.083383829395048|-1.336955465921884|0.3343620300292969|0.02757372334599495|-0.8987729549407959|-0.1142062246799469|-0.06279522180557251|-0.01397694647312164|XArbitraryZVertical|-0.7503269927353309|0.2295022988615453|-0.1895283051110436|0.5902687964593878|-0.01348031498491764|0.9727835655212402|0.2313238084316254|0|0|0|-1|-1|3
2021-04-22 20:28:46.448 +0100|136824.12812725|-0.1829071044921875|0.8409271240234375|0.3591461181640625|136824.10816625|2.67048802971169|-3.008753151855246|-1.335699604989877|-0.1169187054038048|-0.02672536298632622|-0.9287848472595215|-0.112642228603363|-0.1006198525428772|0.09078550338745117|XArbitraryZVertical|-0.7521975531851472|0.2228041286090789|-0.1948859411226671|0.5887077320709242|-0.03085242956876755|0.9724918007850647|0.2308856844902039|0|0|0|-1|-1|3
2021-04-22 20:28:46.468 +0100|136824.14808825|-0.17877197265625|0.990631103515625|0.29473876953125|136824.14808825|2.81809475063571|-2.866238200845005|-1.319666084335265|-0.3028713762760162|-0.00197500828653574|-0.9286829233169556|-0.1194179877638817|0.04191172122955322|0.03475704789161682|XArbitraryZVertical|-0.7588548829632705|0.2090662433574481|-0.2048032998642703|0.5817958632192546|-0.0675642192363739|0.9686321616172791|0.2391388565301895|0|0|0|-1|-1|3
2021-04-22 20:28:46.493 +0100|136824.16805025|-0.204254150390625|1.006484985351562|0.3483734130859375||||||||||||||||||||||||3
2021-04-22 20:28:46.516 +0100|136824.18801125|-0.1943817138671875|1.007431030273438|0.3022918701171875|136824.16805025|2.879199550686003|-2.807314537448364|-1.308303047303886|-0.3956014811992645|0.02849229983985424|-0.8353793621063232|-0.1229042261838913|-0.02540814876556396|0.07022829353809357|XArbitraryZVertical|-0.7625383246812375|0.2027267996352301|-0.2093775442694515|0.5775795746505155|-0.0851350873708725|0.9657459855079651|0.2451257109642029|0|0|0|-1|-1|3
2021-04-22 20:28:46.528 +0100|136824.20797225|-0.1915435791015625|1.014541625976562|0.3423919677734375|136824.18801125|2.93147503779204|-2.755331670294511|-1.299632868414691|-0.0517827607691288|0.1047575622797012|-0.7342963218688965|-0.09147599339485168|0.07738792896270752|0.04005888104438782|XArbitraryZVertical|-0.7649064911379956|0.1974277352757764|-0.2142413562154305|0.5744921450371721|-0.1009078398346901|0.9634599089622498|0.2481192946434021|0|0|0|-1|-1|3
2021-04-22 20:28:46.548 +0100|136824.22793425|-0.2139129638671875|0.944793701171875|0.327880859375|136824.20797225|2.97979239116394|-2.705513292265282|-1.293289185618546|-0.01783444732427597|0.2032938301563263|-0.5456005334854126|-0.08679802715778351|0.02003955841064453|0.06330966949462891|XArbitraryZVertical|-0.7661326472660586|0.1928765817643581|-0.2196169001845736|0.5723705001802107|-0.1157176196575165|0.9617413878440857|0.2483212202787399|0|0|0|-1|-1|3
2021-04-22 20:28:46.568 +0100|136824.24789525|-0.2111663818359375|0.990814208984375|0.3277740478515625|136824.22793425|3.019676846183793|-2.662639026290706|-1.288828501484357|0.07967714965343475|0.2336126416921616|-0.4878880679607391|-0.08867448568344116|0.01475554704666138|0.05007527768611908|XArbitraryZVertical|-0.7665142888979783|0.1895381010119274|-0.2248255677440201|0.5709506975907312|-0.1282301992177963|0.9605097770690918|0.2469376921653748|0|0|0|-1|-1|3
2021-04-22 20:28:46.588 +0100|136824.26785725|-0.1971588134765625|0.9893341064453125|0.305572509765625|136824.24789525|3.050440906262964|-2.628109964195364|-1.283698475365512|-0.0166130717843771|0.2441099286079407|-0.409762442111969|-0.07052905857563019|0.04335618019104004|0.07279083132743835|XArbitraryZVertical|-0.76700508516287|0.1871614586960041|-0.2295660926237981|0.569186490525634|-0.1390971690416336|0.9590697288513184|0.2466524243354797|0|0|0|-1|-1|3
2021-04-22 20:28:46.608 +0100|136824.28781825|-0.1963653564453125|0.9873046875|0.2967071533203125|136824.26785725|3.076208748581829|-2.598559010498432|-1.279259326147821|0.01978296786546707|0.2349948734045029|-0.3720094859600067|-0.05316850543022156|0.01679086685180664|0.06044092774391174|XArbitraryZVertical|-0.7672789299728956|0.185262417857167|-0.2338566272042976|0.5676902575197624|-0.1485231816768646|0.9578032493591309|0.2460782378911972|0|0|0|-1|-1|3
2021-04-22 20:28:46.628 +0100|136824.30777925|-0.2027740478515625|0.964935302734375|0.2869720458984375|136824.28781825|3.09937613201597|-2.571624014897086|-1.275233363722472|0.0469372421503067|0.2172237634658813|-0.3163775503635406|-0.04596522450447083|0.03937911987304688|0.05794408917427063|XArbitraryZVertical|-0.7674038870372724|0.1835973729037561|-0.2379102596592513|0.5663764103068358|-0.1571760773658752|0.9566383361816406|0.2452334463596344|0|0|0|-1|-1|3
2021-04-22 20:28:46.648 +0100|136824.32774125|-0.2054901123046875|1.039047241210938|0.329254150390625|136824.30777925|3.115160638067441|-2.552666884749128|-1.270175694876921|-0.2062151730060577|0.1732364892959595|-0.2851344347000122|-0.02892427146434784|0.01281887292861938|0.0356157124042511|XArbitraryZVertical|-0.7680276237101196|0.1823419518195054|-0.2411200788153641|0.564576232360724|-0.1644818931818008|0.9551528692245483|0.2462300360202789|0|0|0|-1|-1|3
2021-04-22 20:28:46.668 +0100|136824.34770225|-0.1918182373046875|1.106704711914062|0.29205322265625|136824.32774125|3.110621032349207|-2.554459996913256|-1.258166259685662|-0.7446471452713013|0.0804411992430687|-0.1886911392211914|-0.03115643560886383|0.05617761611938477|0.05896198749542236|XArbitraryZVertical|-0.7712460313315974|0.1822298783681732|-0.2426672750917595|0.5595396677908315|-0.1703826487064362|0.9515279531478882|0.2560563385486603|0|0|0|-1|-1|3
2021-04-22 20:28:46.688 +0100|136824.36766325|-0.128021240234375|0.9694366455078125|0.1850433349609375|136824.34770225|3.093890345370474|-2.567551192079199|-1.245696084597925|-0.3755591511726379|0.2709008753299713|-0.06337432563304901|-0.009553626179695129|0.148923397064209|0.04343816637992859|XArbitraryZVertical|-0.7748336601625921|0.1836755063559772|-0.2432142146159679|0.5538438567667607|-0.1734460145235062|0.9476187229156494|0.2682077884674072|0|0|0|-1|-1|3
2021-04-22 20:28:46.708 +0100|136824.38762525|-0.123931884765625|0.79229736328125|0.1918792724609375|136824.36766325|3.093214489039819|-2.562177516402044|-1.243413158014298|-0.01219415478408337|0.3502119779586792|-0.05920478701591492|-0.0002016425132751465|0.0279967188835144|-0.07431784272193909|XArbitraryZVertical|-0.7747586454496197|0.1851750855122937|-0.2456507178417814|0.5523722058350247|-0.1760688871145248|0.9468870759010315|0.2690815329551697|0|0|0|-1|-1|3
2021-04-22 20:28:46.727 +0100|136824.40758625|-0.1159210205078125|0.886383056640625|0.1914520263671875|136824.38762525|3.091120100132343|-2.557843001502689|-1.239921593420882|-0.3442084491252899|0.308381587266922|-0.06787621974945068|0.1118387579917908|-0.1244391798973083|-0.1069029867649078|XArbitraryZVertical|-0.7750114584068634|0.1867985169242153|-0.2481649564294605|0.550343372021375|-0.1790547221899033|0.9457585215568542|0.2710728943347931|0|0|0|-1|-1|3
2021-04-22 20:28:46.747 +0100|136824.42754725|-0.185455322265625|0.890380859375|0.230377197265625|136824.40758625|3.083897229814307|-2.558472825485977|-1.230854709573358|-0.4333787262439728|0.3247601389884949|-0.2054125070571899|0.04887762665748596|-0.06014484167098999|-0.09631010890007019|XArbitraryZVertical|-0.7769550159659466|0.1884338522735635|-0.2505594358993798|0.5459430449199923|-0.183598518371582|0.9427741169929504|0.2783328294754028|0|0|0|-1|-1|3
2021-04-22 20:28:46.768 +0100|136824.44750925|-0.200653076171875|1.013092041015625|0.24139404296875|136824.42754725|3.080012355902047|-2.555661762768663|-1.22037193739767|-0.5032016038894653|0.3275352418422699|-0.2851722240447998|0.01022244989871979|-0.08491826057434082|-0.05663302540779114|XArbitraryZVertical|-0.7791559362106824|0.1895603078632062|-0.253454380079863|0.5410581414103576|-0.1898346692323685|0.9392271041870117|0.2860341668128967|0|0|0|-1|-1|3
2021-04-22 20:28:46.788 +0100|136824.46747025|-0.205108642578125|1.02178955078125|0.2741546630859375|136824.44750925|3.084947034232016|-2.543630772034297|-1.213558533248116|-0.1046632528305054|0.3969574570655823|-0.2868915796279907|0.01341819763183594|0.0665210485458374|-0.05228695273399353|XArbitraryZVertical|-0.7799741970585315|0.1901220947523065|-0.2573016840104506|0.5378567900881926|-0.1968604326248169|0.936866283416748|0.2890123128890991|0|0|0|-1|-1|3
2021-04-22 20:28:46.808 +0100|136824.48743225|-0.1706390380859375|0.8034210205078125|0.2747039794921875|136824.46747025|3.098940285926213|-2.522586426679082|-1.214238585194167|0.184663787484169|0.4304130971431732|-0.3572601079940796|0.003888636827468872|0.08871376514434814|0.0105443000793457|XArbitraryZVertical|-0.778387823675317|0.1904092835297731|-0.261685395451338|0.5379382954431553|-0.2025285661220551|0.9371038675308228|0.2842865884304047|0|0|0|-1|-1|3
2021-04-22 20:28:46.827 +0100|136824.50739325|-0.2145538330078125|0.9535675048828125|0.303192138671875|136824.48743225|3.120103797175829|-2.494979936533137|-1.211709330029705|-0.2129805237054825|0.3254606425762177|-0.4351525008678436|0.04700620472431183|-0.1429595947265625|-0.03072214126586914|XArbitraryZVertical|-0.7774384768750925|0.1892848131454857|-0.2669436728934028|0.5371237206747689|-0.2117258459329605|0.9362180829048157|0.2804786562919617|0|0|0|-1|-1|3
2021-04-22 20:28:46.848 +0100|136824.52735425|-0.2447967529296875|0.8835906982421875|0.305816650390625|136824.50739325|3.131458501556669|-2.478609223059356|-1.20299655174828|-0.1973898112773895|0.2674994170665741|-0.506857693195343|-0.004438504576683044|-0.003875970840454102|0.01752552390098572|XArbitraryZVertical|-0.7786587375081334|0.1881152857830551|-0.2710409920171458|0.5337041608777907|-0.2213010489940643|0.9331207275390625|0.2833935916423798|0|0|0|-1|-1|3
2021-04-22 20:28:46.868 +0100|136824.54731625|-0.2431182861328125|0.9648895263671875|0.2972564697265625|136824.52735425|-3.133731188622414|-2.45726944418746|-1.195549854115584|-0.1673549860715866|0.1974720507860184|-0.5664692521095276|-0.0008454471826553345|-0.03895318508148193|0.01298359036445618|XArbitraryZVertical|-0.7794103045883378|0.1857724049114994|-0.2752550570315093|0.5312655765424074|-0.2316842824220657|0.9304172992706299|0.2839836180210114|0|0|0|-1|-1|3
2021-04-22 20:28:46.888 +0100|136824.56727725|-0.24853515625|0.93304443359375|0.3044281005859375|136824.54731625|-3.114421910549162|-2.435772134154324|-1.1880890604206|0.01697370037436485|0.1810197234153748|-0.5514988303184509|0.004025012254714966|0.03987199068069458|0.009061574935913086|XArbitraryZVertical|-0.7801690136738312|0.1828735019688115|-0.2792566862270736|0.529064691290156|-0.2422309964895248|0.9276570677757263|0.2842128276824951|0|0|0|-1|-1|3
2021-04-22 20:28:46.907 +0100|136824.587238625|-0.259674072265625|0.8899993896484375|0.3167572021484375|136824.56727725|-3.090960174935081|-2.410454378831385|-1.183032895675902|0.1269197016954422|0.1932494044303894|-0.5503786206245422|-0.005717962980270386|0.01897543668746948|0.02354589104652405|XArbitraryZVertical|-0.7800413959214054|0.1796506495043782|-0.2834660130324847|0.5281177133799452|-0.2524770796298981|0.9257570505142212|0.2814778685569763|0|0|0|-1|-1|3
2021-04-22 20:28:46.928 +0100|136824.607199625|-0.25616455078125|0.876678466796875|0.29913330078125|136824.587238625|-3.067885916607998|-2.385658331091079|-1.177166435125919|0.07486818730831146|0.1888832598924637|-0.5751343369483948|0.00671994686126709|-0.0331423282623291|0.03801500797271729|XArbitraryZVertical|-0.780046097123103|0.1762591878783709|-0.2877140869772203|0.526955026881721|-0.2630991637706757|0.92352294921875|0.2790784239768982|0|0|0|-1|-1|3
2021-04-22 20:28:46.948 +0100|136824.627160625|-0.2615509033203125|0.9213104248046875|0.2595062255859375|136824.607199625|-3.046355873364448|-2.362381246804197|-1.170019348794938|-0.002052987925708294|0.177238255739212|-0.6161007881164551|0.02571031451225281|-0.03269678354263306|0.02150443196296692|XArbitraryZVertical|-0.780337614220165|0.1727929915114723|-0.2919875020856098|0.525318364544922|-0.2741549909114838|0.9207581281661987|0.2775684297084808|0|0|0|-1|-1|3
2021-04-22 20:28:46.967 +0100|136824.647122625|-0.27679443359375|0.89239501953125|0.252105712890625|136824.627160625|-3.027111859549387|-2.341666356672003|-1.161232694750706|-0.00842849537730217|0.1615732759237289|-0.6156434416770935|0.01901984214782715|-0.006574094295501709|-0.003118157386779785|XArbitraryZVertical|-0.7810921372092053|0.1691841674272954|-0.296136206823386|0.5230442874239173|-0.2856377065181732|0.9172946810722351|0.2774564325809479|0|0|0|-1|-1|3
2021-04-22 20:28:46.987 +0100|136824.667083625|-0.2944183349609375|0.84588623046875|0.2557373046875|136824.667083625|-2.989934624570421|-2.300948263244435|-1.144966242485804|0.04113176465034485|0.2356178462505341|-0.601749062538147|0.01884689927101135|-0.04327994585037231|-0.02487441897392273|XArbitraryZVertical|-0.7819351671890361|0.1622815126449694|-0.3045417268545132|0.5191307463729157|-0.3077731132507324|0.9106961488723755|0.2755157947540283|0|0|0|-1|-1|3
2021-04-22 20:28:47.008 +0100|136824.687044625|-0.3112945556640625|0.79583740234375|0.263885498046875|136824.687044625|-2.972030519895154|-2.280104978436121|-1.136688921571317|0.01306787505745888|0.2633995711803436|-0.626945436000824|0.01483497023582458|-0.09337294101715088|-0.01715067028999329|XArbitraryZVertical|-0.782088883220097|0.1590838228878787|-0.309227315514712|0.5171149469558969|-0.3191572427749634|0.9072458148002625|0.2739413678646088|0|0|0|-1|-1|3
2021-04-22 20:28:47.027 +0100|136824.707006625|-0.3244171142578125|0.77606201171875|0.26953125||||||||||||||||||||||||3
2021-04-22 20:28:47.047 +0100|136824.726967625|-0.3260650634765625|0.7948455810546875|0.2411956787109375|136824.707006625|-2.954914593069737|-2.259987302353728|-1.127319368217558|-0.01642438769340515|0.2438740134239197|-0.6525964736938477|0.009813755750656128|-0.1307130455970764|-0.003144741058349609|XArbitraryZVertical|-0.7824212904411251|0.1557136487676012|-0.314056022171415|0.5147224487839006|-0.3311496078968048|0.9032652378082275|0.2728596329689026|0|0|0|-1|-1|3
2021-04-22 20:28:47.067 +0100|136824.746928625|-0.3455352783203125|0.8206634521484375|0.2424468994140625|136824.726967625|-2.938070028464538|-2.240058951217668|-1.118044523868124|-0.02606078423559666|0.2658042907714844|-0.6481105089187622|0.01719397306442261|-0.1144875884056091|-0.0220024585723877|XArbitraryZVertical|-0.7826169049366888|0.1523387386653445|-0.3189321125219163|0.5124316371214006|-0.3430769443511963|0.8992467522621155|0.2713926136493683|0|0|0|-1|-1|3
2021-04-22 20:28:47.087 +0100|136824.766890625|-0.361175537109375|0.8680267333984375|0.2365570068359375|136824.746928625|-2.92258088446981|-2.220323263405565|-1.107130126862883|-0.09972147643566132|0.3196802139282227|-0.6439178586006165|0.01566016674041748|-0.07612091302871704|-0.03324532508850098|XArbitraryZVertical|-0.782967849667986|0.1490170077303133|-0.3243996139550295|0.5094313626706014|-0.3561610579490662|0.8944188952445984|0.2704894542694092|0|0|0|-1|-1|3
2021-04-22 20:28:47.107 +0100|136824.786851625|-0.3720550537109375|0.852325439453125|0.2486114501953125|136824.766890625|-2.908972676617946|-2.201160593722486|-1.096383359589737|-0.04547456279397011|0.3724668622016907|-0.5918976068496704|0.01494100689888|-0.02080237865447998|-0.03499689698219299|XArbitraryZVertical|-0.783102439707688|0.1462302474849624|-0.3301617434955398|0.5063205871375428|-0.3690221607685089|0.8895610570907593|0.2692654430866241|0|0|0|-1|-1|3
2021-04-22 20:28:47.127 +0100|136824.806813625|-0.3602294921875|0.8189697265625|0.2462310791015625|136824.786851625|-2.896419941312748|-2.182307426738011|-1.086728766994205|-0.02455425262451172|0.4019063711166382|-0.5285072922706604|0.006077110767364502|-0.0332266092300415|-0.02059683203697205|XArbitraryZVertical|-0.7828613513096898|0.1439367675574607|-0.3359486922012677|0.5035365054827498|-0.3810476660728455|0.8851093053817749|0.2671793699264526|0|0|0|-1|-1|3
2021-04-22 20:28:47.147 +0100|136824.826774625|-0.35162353515625|0.7957000732421875|0.2649993896484375|136824.806813625|-2.88383215954865|-2.1627986077665|-1.078630560293042|0.02375810220837593|0.433247298002243|-0.4825401604175568|0.02894705533981323|-0.04102545976638794|-0.01893502473831177|XArbitraryZVertical|-0.7820851410312362|0.1420777858588957|-0.3417683225952368|0.5013496038151012|-0.3921225666999817|0.8813115358352661|0.2636865377426147|0|0|0|-1|-1|3
2021-04-22 20:28:47.167 +0100|136824.846735625|-0.3419342041015625|0.80938720703125|0.256561279296875|136824.826774625|-2.873715379124505|-2.145499905393159|-1.070393883705798|-0.06954310089349747|0.4104082584381104|-0.4762690365314484|0.05104941129684448|-0.08423793315887451|-0.002896875143051147|XArbitraryZVertical|-0.7814398287604797|0.1405435875285275|-0.3473987728517832|0.4989125080120584|-0.4027045667171478|0.8773895502090454|0.2608014047145844|0|0|0|-1|-1|3
2021-04-22 20:28:47.187 +0100|136824.866697625|-0.3548126220703125|0.877105712890625|0.2683563232421875|136824.846735625|-2.866823106851967|-2.131547000774965|-1.061009027466114|-0.1629160195589066|0.3809150159358978|-0.4929823279380798|0.06668499112129211|-0.06498748064041138|-0.0006895363330841064|XArbitraryZVertical|-0.7812874486762681|0.139112585465389|-0.3527505848425749|0.4957869431281058|-0.4132587909698486|0.8728483319282532|0.259524792432785|0|0|0|-1|-1|3
2021-04-22 20:28:47.207 +0100|136824.886658625|-0.3646697998046875|0.943267822265625|0.2866058349609375|136824.866697625|-2.863035684181906|-2.120751041911735|-1.050994506383085|-0.1820544451475143|0.3743906319141388|-0.4537908136844635|0.07417798042297363|-0.006925642490386963|0.003991961479187012|XArbitraryZVertical|-0.7815255429424899|0.1379123802783621|-0.3577692469738835|0.4921374766324899|-0.4234679043292999|0.8679176568984985|0.2596040070056915|0|0|0|-1|-1|3
2021-04-22 20:28:47.227 +0100|136824.906620625|-0.3913116455078125|1.037933349609375|0.3112030029296875|136824.886658625|-2.859470748907732|-2.110418541048018|-1.043027012090592|-0.05799571797251701|0.3678024411201477|-0.3661374747753143|0.06757387518882751|0.06197011470794678|0.02668696641921997|XArbitraryZVertical|-0.7813921300793332|0.137135285875833|-0.3623195513843577|0.4892287679766684|-0.4320462346076965|0.8639326095581055|0.2587594985961914|0|0|0|-1|-1|3
2021-04-22 20:28:47.247 +0100|136824.926581625|-0.380401611328125|1.210357666015625|0.3062286376953125|136824.906620625|-2.852331571245781|-2.097565225713199|-1.039663598147644|0.3104178607463837|0.3584436774253845|-0.1828353106975555|0.0522247850894928|0.1365295648574829|0.04979914426803589|XArbitraryZVertical|-0.7801560384466526|0.1366704216270337|-0.3661833477233885|0.4884542209542979|-0.4378457963466644|0.8622338771820068|0.2546444833278656|0|0|0|-1|-1|3
2021-04-22 20:28:47.267 +0100|136824.946542625|-0.2364959716796875|1.21527099609375|0.225311279296875|136824.926581625|-2.827193146094819|-2.068946771718367|-1.045995779480263|1.169235825538635|0.3594253659248352|0.07083798199892044|0.05255863070487976|0.3059623837471008|0.06893670558929443|XArbitraryZVertical|-0.7754615548576231|0.1354931532533449|-0.3699997369413561|0.4933571663062097|-0.4401481151580811|0.8654239177703857|0.2393980324268341|0|0|0|-1|-1|3
2021-04-22 20:28:47.287 +0100|136824.966504625|-0.044647216796875|1.13336181640625|0.17645263671875|136824.946542625|-2.779206293153988|-2.021422680068618|-1.06283512044161|1.564332842826843|0.1828963607549667|0.2992857098579407|0.1515254378318787|0.3963268995285034|0.04618620872497559|XArbitraryZVertical|-0.7669283347874603|0.1331956582381463|-0.37312821972759|0.5048319595034684|-0.4378423690795898|0.8737379908561707|0.2118403017520905|0|0|0|-1|-1|3
2021-04-22 20:28:47.307 +0100|136824.986465625|0.108367919921875|1.095932006835938|0.1753997802734375|136824.966504625|-2.722961237556203|-1.9706345605384|-1.082509367645656|1.809392690658569|-0.04148555919528008|0.3488978445529938|0.352383941411972|0.20376056432724|0.004598841071128845|XArbitraryZVertical|-0.7578848844483119|0.1300628143686311|-0.3740489045888351|0.5184415698358614|-0.432112067937851|0.8831377625465393|0.1826116740703583|0|0|0|-1|-1|3
2021-04-22 20:28:47.326 +0100|136825.006426625|0.281707763671875|1.027496337890625|0.158355712890625|136824.986465625|-2.64111104645575|-1.901603670400856|-1.103513477081627|2.340951919555664|-0.3841470777988434|0.2721491456031799|0.4908110201358795|0.2211261391639709|0.02991102635860443|XArbitraryZVertical|-0.7469395634542475|0.1234418010797948|-0.3737488699967236|0.535868715114741|-0.4260384440422058|0.8927955627441406|0.1463131755590439|0|0|0|-1|-1|3
2021-04-22 20:28:47.347 +0100|136825.026388625|0.5085296630859375|1.21820068359375|0.121856689453125|136825.006426625|-2.540532105226908|-1.824570407438024|-1.121364315455245|2.351507902145386|-0.939297616481781|0.1161812320351601|0.6552644968032837|0.1490645408630371|0.05747652053833008|XArbitraryZVertical|-0.7361191525493509|0.1125407701365283|-0.3705182756564381|0.5551391955831702|-0.4205396175384521|0.9006940126419067|0.1090736612677574|0|0|0|-1|-1|3
2021-04-22 20:28:47.366 +0100|136825.046349625|0.770965576171875|1.576812744140625|0.0045318603515625|136825.026388625|-2.434698455207701|-1.752903166810204|-1.131617924650291|2.33836030960083|-1.447201490402222|-0.09709882736206055|0.8815129399299622|0.2184334993362427|0.0537339448928833|XArbitraryZVertical|-0.7273484621255093|0.09729425427134417|-0.3641706428422652|0.573478827523709|-0.418165534734726|0.9051012992858887|0.07700391113758087|0|0|0|-1|-1|3
2021-04-22 20:28:47.386 +0100|136825.066311625|1.013504028320312|2.404006958007812|-0.16552734375|136825.046349625|-2.325969239287752|-1.68796619040852|-1.134276601423914|2.240155935287476|-1.926046133041382|-0.2814391851425171|1.107953071594238|0.5477200150489807|-0.0142068937420845|XArbitraryZVertical|-0.7201883253728149|0.07772491891936628|-0.3552765382818865|0.5908183019527563|-0.4198894202709198|0.9062285423278809|0.04942477494478226|0|0|0|-1|-1|3
2021-04-22 20:28:47.407 +0100|136825.086272625|1.400009155273438|3.483474731445312|-0.4960174560546875|136825.066311625|-2.215312635689926|-1.630798590252571|-1.134267340257944|2.718180656433105|-2.376867532730103|-0.03510282933712006|1.373039126396179|1.235742807388306|-0.166679859161377|XArbitraryZVertical|-0.7138849491811022|0.05518201209730018|-0.3426061785942632|0.6082305391734475|-0.4220360219478607|0.9062246680259705|0.02535355091094971|0|0|0|-1|-1|3
2021-04-22 20:28:47.426 +0100|136825.106233625|1.49078369140625|3.961807250976562|-0.9482421875|136825.086272625|-2.043346063349199|-1.522990556319096|-1.144232266917414|4.689485549926758|-2.306949138641357|1.118836164474487|1.704913139343262|2.27336859703064|-0.3404569029808044|XArbitraryZVertical|-0.6993736394309212|0.0314732735594452|-0.3240931035856653|0.6362780440258079|-0.4132728278636932|0.910392701625824|-0.0197718907147646|0|0|0|-1|-1|3
2021-04-22 20:28:47.446 +0100|136825.126195625|0.8414306640625|2.681381225585938|-0.891815185546875|136825.106233625|-1.725613917407863|-1.266958748964063|-1.164590274733476|7.475407123565674|-1.011472582817078|3.091434478759766|1.961423993110657|3.12281608581543|-0.7435388565063477|XArbitraryZVertical|-0.6638229973231712|0.01520297784056018|-0.2996720009198775|0.6850581493757254|-0.3770284950733185|0.9186265468597412|-0.1182157918810844|0|0|0|-1|-1|3
2021-04-22 20:28:47.466 +0100|136825.146156625|0.0817718505859375|1.460479736328125|-0.8447265625|136825.126195625|-1.302842742123312|-0.8824448366620635|-1.158971160311718|6.750149726867676|0.6494139432907104|4.063004970550537|1.310203552246094|2.193166255950928|-0.6472789645195007|XArbitraryZVertical|-0.610408939236185|0.01606314615148786|-0.2727851099499175|0.7434591261243521|-0.3091363608837128|0.9163917899131775|-0.2542858123779297|0|0|0|-1|-1|3
2021-04-22 20:28:47.486 +0100|136825.166117625|-0.7261962890625|0.98291015625|-0.544281005859375|136825.146156625|-1.006789652418994|-0.5831909512318615|-1.146707058983732|1.850278496742249|2.265586137771606|3.832658290863037|0.6183879375457764|0.7558225989341736|-0.5580433011054993|XArbitraryZVertical|-0.5716070186873341|0.03908399793703773|-0.2515523940250332|0.7800381146796936|-0.2266042083501816|0.911413848400116|-0.343475729227066|0|0|0|-1|-1|3
2021-04-22 20:28:47.506 +0100|136825.186079625|-0.9288177490234375|-0.2219696044921875|0.08709716796875|136825.166117625|-0.8638868011095315|-0.3885969795125691|-1.193957585563086|-2.759891271591187|4.017039775848389|3.522545099258423|-0.604548454284668|0.03610998392105103|-0.2554149925708771|XArbitraryZVertical|-0.5677582997757592|0.0858899347391031|-0.2411439082924601|0.7823830141638012|-0.1394252628087997|0.9298325777053833|-0.3405468761920929|0|0|0|-1|-1|3
2021-04-22 20:28:47.526 +0100|136825.206040625|-1.9688720703125|1.081710815429688|0.931396484375|136825.186079625|-0.7649739856073985|-0.1974631687099013|-1.282034979384613|-5.758104801177979|5.412590503692627|2.430377244949341|-1.089032530784607|-0.5020542144775391|-0.09302130341529846|XArbitraryZVertical|-0.5815830731048747|0.1488132875954351|-0.2429943753439716|0.761951123622672|-0.05586592853069305|0.9585973620414734|-0.279231458902359|0|0|0|-1|-1|3
2021-04-22 20:28:47.546 +0100|136825.226002625|-1.990875244140625|1.016098022460938|0.74871826171875|136825.206040625|-0.6601803142282862|0.01854744305876928|-1.388073924214695|-4.112791061401367|5.604371070861816|1.010726094245911|-2.019499540328979|0.1487580537796021|0.9617668986320496|XArbitraryZVertical|-0.6027765054418406|0.2140617946985202|-0.2547485916788014|0.7252180265791033|0.003370012855157256|0.9833526611328125|-0.181676059961319|0|0|0|-1|-1|3
2021-04-22 20:28:47.566 +0100|136825.245963625|-2.264511108398438|2.530380249023438|-0.379638671875|136825.226002625|-0.5040067755828507|0.2658108863798792|-1.467444259650291|-4.453641414642334|3.64640998840332|0.3560284376144409|-1.966388344764709|-0.1083568334579468|1.021758317947388|XArbitraryZVertical|-0.6182286996961905|0.2608058342700751|-0.2694854000655604|0.6907615246015064|0.02710205502808094|0.9946639537811279|-0.09954718500375748|0|0|0|-1|-1|3
2021-04-22 20:28:47.586 +0100|136825.265924625|-2.03436279296875|1.150482177734375|-0.9327239990234375|136825.245963625|0.3121054397321961|1.139917778929603|-1.525418214804085|-2.410606384277344|2.574958324432373|0.7240206599235535|-2.311163902282715|1.366279244422913|-0.02708739042282104|XArbitraryZVertical|-0.6352323434176438|0.2949675898617649|-0.2736653882730022|0.6592278863019853|0.04121951013803482|0.9989705681800842|-0.01894798129796982|0|0|0|-1|-1|3
2021-04-22 20:28:47.606 +0100|136825.285886625|-1.85589599609375|0.2686004638671875|-0.585296630859375|136825.265924625|0.5766303527456442|1.448986544778389|-1.514440419481235|1.073798298835754|1.718584895133972|0.6907349228858948|-2.172212839126587|0.5416572093963623|-0.8711919784545898|XArbitraryZVertical|-0.6300995813936919|0.3155193106508153|-0.2817181992955688|0.6511965618230645|0.05590914189815521|0.9984124302864075|-0.006844164337962866|0|0|0|-1|-1|3
2021-04-22 20:28:47.626 +0100|136825.305847625|-1.688629150390625|0.4485931396484375|-0.2010955810546875|136825.285886625|0.1261856803782631|1.019795837914946|-1.488088538638762|2.358830690383911|0.3311090171337128|0.702813446521759|-1.911040782928467|-0.5849909782409668|-0.6800603866577148|XArbitraryZVertical|-0.6125821243558669|0.3211187834574847|-0.2894210904663993|0.6617109208595345|0.07038723677396774|0.9965816736221313|-0.04325173422694206|0|0|0|-1|-1|3
2021-04-22 20:28:47.646 +0100|136825.325808625|-1.42022705078125|0.4077301025390625|-0.0690155029296875|136825.305847625|-0.1577261345756849|0.7335375727242027|-1.444304028582504|2.376877307891846|-0.6775321364402771|0.7983251214027405|-1.827215194702148|-0.490331768989563|-0.2027828097343445|XArbitraryZVertical|-0.5939212055639259|0.3168633356858236|-0.2914829690352381|0.6796271722044536|0.08446203172206879|0.9920105338096619|-0.09371045976877213|0|0|0|-1|-1|3
2021-04-22 20:28:47.666 +0100|136825.345770625|-1.113296508789062|0.428680419921875|-0.20123291015625|136825.325808625|-0.2234030686824348|0.6477522170596408|-1.402753737832696|1.454105496406555|-1.357290625572205|1.138813138008118|-1.600951671600342|-0.5747809410095215|0.06854075193405151|XArbitraryZVertical|-0.5808085930073269|0.3097965021965667|-0.2848031244996156|0.6968319891949089|0.1009200215339661|0.9859140515327454|-0.1333750039339066|0|0|0|-1|-1|3
