loggingTime(txt)|accelerometerTimestamp_sinceReboot(s)|accelerometerAccelerationX(G)|accelerometerAccelerationY(G)|accelerometerAccelerationZ(G)|motionTimestamp_sinceReboot(s)|motionYaw(rad)|motionRoll(rad)|motionPitch(rad)|motionRotationRateX(rad/s)|motionRotationRateY(rad/s)|motionRotationRateZ(rad/s)|motionUserAccelerationX(G)|motionUserAccelerationY(G)|motionUserAccelerationZ(G)|motionAttitudeReferenceFrame(txt)|motionQuaternionX(R)|motionQuaternionY(R)|motionQuaternionZ(R)|motionQuaternionW(R)|motionGravityX(G)|motionGravityY(G)|motionGravityZ(G)|motionMagneticFieldX(µT)|motionMagneticFieldY(µT)|motionMagneticFieldZ(µT)|motionHeading(°)|motionMagneticFieldCalibrationAccuracy(Z)|label
2021-04-22 21:38:47.078 +0100|139901.3990139167|-0.1037139892578125|-0.186187744140625|-0.9613800048828125|139901.3790539167|-1.257277019790113|-0.01421764604590312|0.1629799098657246|-0.09865188598632812|-0.2756867408752441|-0.0423336923122406|0.1108141764998436|0.09850785136222839|-0.02789312601089478|XArbitraryZVertical|0.061670445786089|-0.05359614527533645|-0.5865458963638356|0.8057842278360766|-0.0140287633985281|-0.1622593402862549|-0.9866484403610229|0|0|0|-1|-1|3
2021-04-22 21:38:47.085 +0100|139901.4189739167|0.033355712890625|-0.18896484375|-0.9939727783203125|139901.3990139167|-1.257958020555456|-0.01515935000327828|0.1621796447589453|-0.1501962840557098|0.04297635704278946|-0.08977213501930237|-0.08976230770349503|-0.01138219237327576|0.01897567510604858|XArbitraryZVertical|0.06105325420500086|-0.05376201839114774|-0.5868658580133245|0.8055872403011759|-0.01495985127985477|-0.1614696383476257|-0.9867643117904663|0|0|0|-1|-1|3
2021-04-22 21:38:47.099 +0100|139901.4389349167|-0.010711669921875|-0.1295318603515625|-0.987640380859375|139901.4189739167|-1.260065696995278|-0.01293371650010584|0.1589055488259401|-0.2212045192718506|0.01542302686721087|-0.07993388921022415|0.02229081094264984|-0.04691703617572784|-1.430511474609375e-06|XArbitraryZVertical|0.06033158287355122|-0.05196982138041648|-0.5877150551353383|0.8051400431574565|-0.01277040969580412|-0.158237636089325|-0.9873184561729431|0|0|0|-1|-1|3
2021-04-22 21:38:47.119 +0100|139901.4588949167|0.002655029296875|-0.1501922607421875|-0.9857940673828125|139901.4389349167|-1.261752471463918|-0.01251978135406739|0.1561317894007088|-0.1051584556698799|-0.02773962169885635|-0.08151935786008835|0.01831701397895813|0.0217699408531189|-0.004978001117706299|XArbitraryZVertical|0.05929267863111214|-0.05103920447053123|-0.5884387830838561|0.8047479775003834|-0.01236716937273741|-0.1554982215166092|-0.9877587556838989|0|0|0|-1|-1|3
2021-04-22 21:38:47.139 +0100|139901.4788559167|0.0095062255859375|-0.146514892578125|-1.004592895507812|139901.4588949167|-1.263638146315214|-0.0110610929102682|0.153785043846643|-0.05263471230864525|0.006370889022946358|-0.08176631480455399|0.00470365583896637|0.01304261386394501|0.008279561996459961|XArbitraryZVertical|0.05872994290879067|-0.0498180280681518|-0.589202327888793|0.804306917899364|-0.01093033142387867|-0.1531796008348465|-0.9881379008293152|0|0|0|-1|-1|3
2021-04-22 21:38:47.159 +0100|139901.4988159167|0.0078125|-0.1384735107421875|-1.017440795898438|139901.4788559167|-1.265099281859012|-0.01143589355176318|0.15261397254746|-0.03658660128712654|-0.01058178208768368|-0.07437746971845627|0.02373756468296051|0.002043336629867554|-0.0105278491973877|XArbitraryZVertical|0.05811199660654706|-0.04966661828850643|-0.5898245488174682|0.803905075105017|-0.01130272820591927|-0.1520222425460815|-0.9883124232292175|0|0|0|-1|-1|3
2021-04-22 21:38:47.179 +0100|139901.5187759167|0.0143890380859375|-0.1516876220703125|-1.00286865234375|139901.4988159167|-1.266491579385258|-0.01173426037723793|0.1533315943726164|0.002861103042960167|-0.004360371269285679|-0.07570132613182068|0.01850747317075729|0.01546315848827362|-0.02419036626815796|XArbitraryZVertical|0.05827781683003112|-0.05003850353766316|-0.5903781650906655|0.8034635345197547|-0.01159632485359907|-0.1527314782142639|-0.9881997108459473|0|0|0|-1|-1|3
2021-04-22 21:38:47.198 +0100|139901.5387369167|0.0047760009765625|-0.14324951171875|-0.991973876953125|139901.5187759167|-1.268114871396142|-0.0111365407083131|0.1530842337495748|-0.02569054625928402|-0.01961506530642509|-0.074196457862854|0.02728611975908279|0.001668870449066162|-0.01972085237503052|XArbitraryZVertical|0.05831443915917281|-0.04977280038536802|-0.5910177318990557|0.8030069753377336|-0.01100607682019472|-0.1524870246648788|-0.9882441759109497|0|0|0|-1|-1|3
2021-04-22 21:38:47.219 +0100|139901.5586969167|-0.003204345703125|-0.1279754638671875|-0.9903717041015625|139901.5387369167|-1.269679496985155|-0.01140188659357098|0.1518701817001432|-0.04380688443779945|-0.03132525086402893|-0.07272452861070633|0.01706766337156296|0.006282508373260498|-0.004845201969146729|XArbitraryZVertical|0.05770950052978324|-0.04956613685558245|-0.591678100365175|0.8025771787205878|-0.01127040572464466|-0.1512870490550995|-0.988425612449646|0|0|0|-1|-1|3
2021-04-22 21:38:47.239 +0100|139901.5786569167|-0.0011138916015625|-0.12530517578125|-0.99969482421875|139901.5586969167|-1.271176552432208|-0.01135195387535979|0.1510934337306795|-0.02723384834825993|-0.03014387190341949|-0.07307633012533188|0.009985335171222687|0.01981213688850403|-0.001156866550445557|XArbitraryZVertical|0.05737543893558222|-0.04935953886273529|-0.5922929305563116|0.8021601963542436|-0.01122238114476204|-0.1505191922187805|-0.9885433912277222|0|0|0|-1|-1|3
2021-04-22 21:38:47.258 +0100|139901.5986179167|-0.011932373046875|-0.1160736083984375|-1.000167846679688|139901.5786569167|-1.272614955930409|-0.01123074006908855|0.150478095749309|0.0001226076856255531|-0.02437205612659454|-0.06722616404294968|0.010003880597651|0.0241629034280777|-0.009211242198944092|XArbitraryZVertical|0.05712903001775647|-0.04917000845016906|-0.592878613783791|0.8017565649042212|-0.01110359374433756|-0.1499108374118805|-0.9886371493339539|0|0|0|-1|-1|3
2021-04-22 21:38:47.278 +0100|139901.6185779167|-0.0166778564453125|-0.1189727783203125|-0.9895782470703125|139901.5986179167|-1.273949704589187|-0.01094610024037437|0.1506763595592506|0.03183718025684357|-0.01850394159555435|-0.05242219194769859|0.0005668774247169495|0.03269021213054657|-0.01053488254547119|XArbitraryZVertical|0.05726014534877942|-0.04915282874577966|-0.5934014137538148|0.8013614558384823|-0.01082186214625835|-0.1501068621873856|-0.988610565662384|0|0|0|-1|-1|3
2021-04-22 21:38:47.298 +0100|139901.6385379167|-0.005096435546875|-0.1331787109375|-0.9945526123046875|139901.6185779167|-1.274872912049489|-0.01070925859206444|0.1517645281478491|0.07546519488096237|-0.00600812304764986|-0.02894260920584202|-0.005513145588338375|0.03671091794967651|-0.002105534076690674|XArbitraryZVertical|0.05774387947403911|-0.04940708920018201|-0.593742357933301|0.8010584921448846|-0.01058596279472113|-0.1511826068162918|-0.9884491562843323|0|0|0|-1|-1|3
2021-04-22 21:38:47.318 +0100|139901.6584989167|0.007080078125|-0.1536712646484375|-0.9921417236328125|139901.6385379167|-1.275389101085185|-0.01030279522102996|0.1528332262291173|0.06065928563475609|0.01155766099691391|-0.02121127396821976|0.0006294399499893188|0.02562123537063599|-0.003331601619720459|XArbitraryZVertical|0.05828004158972355|-0.0495762406097051|-0.5939153338164563|0.800881052650909|-0.01018252316862345|-0.1522389352321625|-0.9882912635803223|0|0|0|-1|-1|3
2021-04-22 21:38:47.338 +0100|139901.6784589167|0.00347900390625|-0.145721435546875|-0.9948883056640625|139901.6584989167|-1.275888059757236|-0.009847708452489086|0.1528829408148524|-0.02245448902249336|0.008862489834427834|-0.02862365171313286|0.01575883477926254|0.0006154328584671021|-0.005257248878479004|XArbitraryZVertical|0.05842277326648646|-0.04942333708039975|-0.5941008261918642|0.8007424159267076|-0.009732688777148724|-0.1522880792617798|-0.9882882237434387|0|0|0|-1|-1|3
2021-04-22 21:38:47.358 +0100|139901.6984189167|0.0029144287109375|-0.0962982177734375|-1.000808715820312|139901.6784589167|-1.27648951819366|-0.009696557004965302|0.1511194545687369|-0.07785513252019882|0.003006464336067438|-0.02957271225750446|0.01381150633096695|-0.003370761871337891|-0.006804585456848145|XArbitraryZVertical|0.05774651792617172|-0.04885684528701977|-0.5943736394181505|0.8006238673773276|-0.009585896506905556|-0.1505449265241623|-0.9885566830635071|0|0|0|-1|-1|3
2021-04-22 21:38:47.378 +0100|139901.7183799167|0|-0.0793914794921875|-1.003631591796875|139901.6984189167|-1.276801244707252|-0.009533127719426934|0.1488605712499008|-0.04203355312347412|0.01527229230850935|-0.0004362203180789948|0.01354634761810303|0.04278133809566498|-0.008510172367095947|XArbitraryZVertical|0.0568828027854996|-0.04812960707392236|-0.5945398181079502|0.8006063466062775|-0.009427554905414581|-0.1483114063739777|-0.9888957738876343|0|0|0|-1|-1|3
2021-04-22 21:38:47.404 +0100|139901.7383399167|0.004302978515625|-0.1187744140625|-0.9999542236328125|139901.7183799167|-1.276336835586705|-0.009241848191217383|0.1484687298267038|0.06266268342733383|0.02519762702286243|0.03755616769194603|0.009444147348403931|0.06830324232578278|-0.01527011394500732|XArbitraryZVertical|0.05682357323993263|-0.04788344097082847|-0.5943535506810996|0.8007635801178336|-0.009140046313405037|-0.1479238867759705|-0.9889565110206604|0|0|0|-1|-1|3
2021-04-22 21:38:47.418 +0100|139901.7582999167|0.0079193115234375|-0.160919189453125|-0.9913787841796875|139901.7383399167|-1.275335421663456|-0.008544811300929963|0.150407286905935|0.1223487481474876|0.02755820006132126|0.06231983751058578|0.01061390340328217|0.04313585162162781|-0.0099526047706604|XArbitraryZVertical|0.05783134747891606|-0.04815096429851665|-0.5938929206517686|0.8010171298167342|-0.008448238484561443|-0.1498408317565918|-0.9886740446090698|0|0|0|-1|-1|3
2021-04-22 21:38:47.438 +0100|139901.7782609167|0.0037994384765625|-0.1551971435546875|-1.000564575195312|139901.7582999167|-1.274160971401992|-0.00792441521369017|0.1526302602263384|0.08223143965005875|0.02798622101545334|0.058177649974823|0.01657442003488541|0.001143902540206909|-0.001631379127502441|XArbitraryZVertical|0.05893477061464069|-0.04852741697799137|-0.5933579627815291|0.8013103151887081|-0.007832208648324013|-0.1520383358001709|-0.9883435368537903|0|0|0|-1|-1|3
2021-04-22 21:38:47.458 +0100|139901.7982209167|-0.01092529296875|-0.1226654052734375|-0.978607177734375|139901.7782609167|-1.273014809756621|-0.007361849868375883|0.1528422082471368|0.02738122642040253|0.01855618320405483|0.05743240565061569|0.01467539370059967|-0.00883948802947998|-0.0059928297996521|XArbitraryZVertical|0.05921433095382502|-0.0483309210013779|-0.5928775426355622|0.8016571455628207|-0.007275962270796299|-0.152247816324234|-0.9883155822753906|0|0|0|-1|-1|3
2021-04-22 21:38:47.478 +0100|139901.8181809167|-0.0021209716796875|-0.1284942626953125|-0.9796295166015625|139901.7982209167|-1.271613139376979|-0.007158616606482519|0.152075396782152|0.04359275102615356|0.02099126949906349|0.07743682712316513|0.002756617963314056|0.02272070944309235|0.01003998517990112|XArbitraryZVertical|0.05900072685047733|-0.04798097118657848|-0.5923257740507272|0.8021017259917946|-0.007075936999171972|-0.1514898985624313|-0.9884334802627563|0|0|0|-1|-1|3
2021-04-22 21:38:47.498 +0100|139901.8381419167|0.00799560546875|-0.1362152099609375|-0.9742279052734375|139901.8181809167|-1.269925828014592|-0.006664267075413458|0.1520969818547502|0.08262647688388824|0.02869877777993679|0.09213152527809143|-0.0006312057375907898|0.02918125689029694|0.009216129779815674|XArbitraryZVertical|0.05919609088630218|-0.04773918469599803|-0.5916338138944881|0.8026121670191475|-0.006587282754480839|-0.1515112370252609|-0.9884335994720459|0|0|0|-1|-1|3
2021-04-22 21:38:47.518 +0100|139901.8581019167|0.010284423828125|-0.15203857421875|-0.978118896484375|139901.8381419167|-1.268060133113089|-0.006224341147928061|0.1535637019064314|0.08571668714284897|0.02299588546156883|0.08910822123289108|0.01402350515127182|0.01943093538284302|0.0161062479019165|XArbitraryZVertical|0.05995977513726165|-0.04794030561676769|-0.5908404657600302|0.8031277322385868|-0.006151054985821247|-0.152960866689682|-0.9882131218910217|0|0|0|-1|-1|3
2021-04-22 21:38:47.538 +0100|139901.8780619167|0.0183868408203125|-0.1745452880859375|-0.98809814453125|139901.8581019167|-1.26635489926689|-0.005884642801638596|0.1553068827690589|0.0709577277302742|0.01164314895868301|0.08046369254589081|0.01478486508131027|0.01048746705055237|0.008195459842681885|XArbitraryZVertical|0.06080151786333287|-0.04826669166451915|-0.5901075578076083|0.8035836939772044|-0.005813782103359699|-0.1546832919120789|-0.9879469871520996|0|0|0|-1|-1|3
2021-04-22 21:38:47.558 +0100|139901.898021625|0.00244140625|-0.1557464599609375|-0.9849395751953125|139901.8780619167|-1.264866362529372|-0.005803115453653441|0.1556316984824024|0.002443386008962989|0.0003553405404090881|0.07267527282238007|0.02442387491464615|-0.01539096236228943|0.003461241722106934|XArbitraryZVertical|0.06099207761546057|-0.04828433451942994|-0.5894997608359062|0.8040141471141179|-0.005732945632189512|-0.1550041884183884|-0.9878971576690674|0|0|0|-1|-1|3
2021-04-22 21:38:47.578 +0100|139901.917981625|-0.0043487548828125|-0.135345458984375|-0.97515869140625|139901.898021625|-1.263345000305394|-0.006315163201633675|0.1546832242215742|-0.02301584929227829|-0.01301894802600145|0.0788857638835907|0.01473778486251831|-0.009858310222625732|-0.002575099468231201|XArbitraryZVertical|0.06049637286091935|-0.04816478446142266|-0.588924090334685|0.8044805421838906|-0.006239721085876226|-0.1540671139955521|-0.9880406856536865|0|0|0|-1|-1|3
2021-04-22 21:38:47.598 +0100|139901.937941625|-0.001495361328125|-0.15374755859375|-0.975372314453125|139901.917981625|-1.261814979940876|-0.006530356198926067|0.1542170536475601|0.01902316138148308|-0.01492454577237368|0.08069218695163727|0.002133488655090332|0.01761990785598755|0.01194530725479126|XArbitraryZVertical|0.06028221482835344|-0.04806806871567428|-0.5883249952396067|0.804940559232792|-0.006452808622270823|-0.1536064893007278|-0.9881110191345215|0|0|0|-1|-1|3
2021-04-22 21:38:47.618 +0100|139901.957902625|-0.00482177734375|-0.1526641845703125|-0.967926025390625|139901.937941625|-1.260140744615444|-0.00678668574817462|0.1543800061710674|0.02044487372040749|-0.02135410904884338|0.08483278006315231|0.004293948411941528|0.003819122910499573|0.01153713464736938|XArbitraryZVertical|0.06031276373352802|-0.04816866196141184|-0.587655208466454|0.8054213770024437|-0.006705920677632093|-0.1537675112485886|-0.9880843162536621|0|0|0|-1|-1|3
2021-04-22 21:38:47.638 +0100|139901.977862625|-0.006927490234375|-0.172943115234375|-0.9800872802734375|139901.957902625|-1.258541255281157|-0.007112977984131297|0.1548642917007674|0.01622186601161957|-0.02998834289610386|0.08727161586284637|0.005332984030246735|0.003610998392105103|0.01829624176025391|XArbitraryZVertical|0.06045071146859246|-0.04839391253583956|-0.5870103966160281|0.8058677437832447|-0.007027794141322374|-0.1542460173368454|-0.9880074858665466|0|0|0|-1|-1|3
2021-04-22 21:38:47.658 +0100|139901.997822625|-0.016326904296875|-0.1802520751953125|-0.996917724609375|139901.977862625|-1.257094527256118|-0.007511406311410558|0.1552307556610286|-0.02181876078248024|-0.02710147760808468|0.06682351231575012|0.0005229637026786804|-0.01214021444320679|0.01205694675445557|XArbitraryZVertical|0.06051667543427296|-0.04861816986568649|-0.5864315679732101|0.8062705408042555|-0.007421018555760384|-0.1546080857515335|-0.9879480004310608|0|0|0|-1|-1|3
2021-04-22 21:38:47.678 +0100|139902.017783625|-0.03717041015625|-0.1407623291015625|-0.9968719482421875|139901.997822625|-1.256210178348322|-0.008047376543908412|0.1535159202028478|-0.1053155362606049|-0.0107525447383523|0.02504783496260643|-0.004057100974023342|-0.0270792692899704|-0.007825076580047607|XArbitraryZVertical|0.05968924860984184|-0.04830544017248028|-0.5861272808036163|0.8065721341498308|-0.00795265007764101|-0.1529136449098587|-0.9882075786590576|0|0|0|-1|-1|3
2021-04-22 21:38:47.698 +0100|139902.037743625|-0.04571533203125|-0.1366729736328125|-0.9943084716796875|139902.017783625|-1.255884457404393|-0.007942182508804839|0.1514438944610341|-0.08167292177677155|0.02079920470714569|0.009454581886529922|-0.02198082208633423|-0.000654369592666626|-0.008699774742126465|XArbitraryZVertical|0.05889181127492282|-0.04764666399841718|-0.5860357850340261|0.806736581414162|-0.007851195521652699|-0.1508656591176987|-0.9885231256484985|0|0|0|-1|-1|3
2021-04-22 21:38:47.718 +0100|139902.057704625|-0.0398406982421875|-0.169586181640625|-1.001144409179688|139902.037743625|-1.255840584945333|-0.006983023248415115|0.1506636877882589|-0.02681802958250046|0.06675823032855988|-0.007497237529605627|-0.0390109196305275|0.01596932113170624|-0.009765446186065674|XArbitraryZVertical|0.05885904286282158|-0.04703003963770547|-0.5860059818538753|0.8067967220871936|-0.006903861183673143|-0.1500943303108215|-0.9886475801467896|0|0|0|-1|-1|3
2021-04-22 21:38:47.738 +0100|139902.077664625|-0.0338134765625|-0.2005462646484375|-0.99957275390625|139902.057704625|-1.256265160076254|-0.005052734420052618|0.1499149524603282|-0.09550145268440247|0.1194651648402214|-0.03686746582388878|-0.0360664427280426|-0.01380844414234161|-0.01061838865280151|XArbitraryZVertical|0.05911267895181117|-0.04604464328305566|-0.5861359214715643|0.8067406370166321|-0.004996040835976601|-0.1493540406227112|-0.9887711405754089|0|0|0|-1|-1|3
2021-04-22 21:38:47.758 +0100|139902.097624625|-0.0235443115234375|-0.1865997314453125|-0.9804229736328125|139902.077664625|-1.257402656407264|-0.001963373205914756|0.1476072513717596|-0.1802708357572556|0.1819595992565155|-0.06960818916559219|-0.03559567779302597|-0.04254940152168274|-0.01067769527435303|XArbitraryZVertical|0.05906181858762938|-0.04415593326903858|-0.5865522049879064|0.8065473476749834|-0.001942021888680756|-0.1470718234777451|-0.9891238808631897|0|0|0|-1|-1|3
2021-04-22 21:38:47.778 +0100|139902.117585625|-0.011016845703125|-0.17901611328125|-0.9744720458984375|139902.117585625|-1.260812240365209|0.006760797429788291|0.1384252119235923|-0.2976331412792206|0.3045116662979126|-0.1056239828467369|-0.0198807492852211|-0.0417499840259552|0.009851634502410889|XArbitraryZVertical|0.05785205473473988|-0.03804204000775369|-0.587869302984387|0.8059875077477657|0.006696076132357121|-0.1379835605621338|-0.9904118776321411|0|0|0|-1|-1|3
2021-04-22 21:38:47.798 +0100|139902.137545625|-0.004241943359375|-0.1936187744140625|-0.947479248046875||||||||||||||||||||||||3
2021-04-22 21:38:47.818 +0100|139902.157505625|-0.02020263671875|-0.22705078125|-0.9062042236328125|139902.137545625|-1.262741415072468|0.01280070538429513|0.1314647557233636|-0.440546452999115|0.3772275745868683|-0.110835075378418|-0.01499505713582039|-0.05450651049613953|0.03274786472320557|XArbitraryZVertical|0.05679078340323775|-0.03361462370862052|-0.5886256341918579|0.8057076792428043|0.01268990058451891|-0.1310863941907883|-0.9912897348403931|0|0|0|-1|-1|3
2021-04-22 21:38:47.838 +0100|139902.177466625|-0.045135498046875|-0.242828369140625|-0.84075927734375|139902.157505625|-1.264775604848066|0.02061996252471184|0.1216807188528436|-0.6655994653701782|0.4934209585189819|-0.1272858679294586|-0.0368703231215477|-0.100787565112114|0.07161867618560791|XArbitraryZVertical|0.0551246402564047|-0.02763627634361319|-0.5894418684814074|0.8054538992698838|0.02046604827046394|-0.1213806718587875|-0.9923950433731079|0|0|0|-1|-1|3
2021-04-22 21:38:47.858 +0100|139902.197426625|-0.082733154296875|-0.2388458251953125|-0.7531585693359375|139902.177466625|-1.267078458195672|0.03087500827051329|0.107014250591455|-0.9881135821342468|0.6202287673950195|-0.1550511866807938|-0.06867371499538422|-0.1325852870941162|0.1330267786979675|XArbitraryZVertical|0.05222325208908667|-0.01923401434015736|-0.5904177855822552|0.8051768170470931|0.03069350868463516|-0.1068101152777672|-0.9938055872917175|0|0|0|-1|-1|3
2021-04-22 21:38:47.877 +0100|139902.217386625|-0.0525054931640625|-0.2216033935546875|-0.69451904296875|139902.197426625|-1.26976026554683|0.04509350795975178|0.0822766692054227|-1.515035390853882|0.7848319411277771|-0.2109740972518921|-0.1212360113859177|-0.1574098765850067|0.2189012169837952|XArbitraryZVertical|0.04646407917061374|-0.006248820082749579|-0.5916820747575122|0.8048071146779129|0.04492573440074921|-0.08218387514352798|-0.9956040978431702|0|0|0|-1|-1|3
2021-04-22 21:38:47.903 +0100|139902.237347625|0.0440216064453125|-0.131622314453125|-0.6480712890625|139902.217386625|-1.273189554897746|0.063383312458726|0.0462248494245962|-2.099729776382446|1.036083698272705|-0.319660097360611|-0.1342429220676422|-0.1957810074090958|0.2937703728675842|XArbitraryZVertical|0.03740554373046785|0.01174166672475438|-0.5934146309423414|0.8039415700887522|0.06327322125434875|-0.04620838910341263|-0.9969258904457092|0|0|0|-1|-1|3
2021-04-22 21:38:47.919 +0100|139902.257307625|0.071533203125|-0.0379180908203125|-0.5934600830078125|139902.237347625|-1.277440122995061|0.08588076285894232|-0.002065218111144812|-2.677675485610962|1.19129478931427|-0.4533583521842957|-0.06069066375494003|-0.1530817151069641|0.3429462313652039|XArbitraryZVertical|0.02476353385453874|0.03507952018250676|-0.5956540279923518|0.8020926775590511|0.08577504754066467|0.002065216656774282|-0.9963123798370361|0|0|0|-1|-1|3
2021-04-22 21:38:47.937 +0100|139902.277267625|0.09161376953125|0.0605316162109375|-0.5336761474609375|139902.257307625|-1.281615945866733|0.1105298940257881|-0.06250223085327362|-3.301117420196533|1.298157215118408|-0.5648742914199829|-0.04022064805030823|-0.121726930141449|0.3824293613433838|XArbitraryZVertical|0.007997846806531293|0.0629086332154378|-0.5980226162589908|0.7989666975947133|0.1100895926356316|0.06246154382824898|-0.9919570684432983|0|0|0|-1|-1|3
2021-04-22 21:38:47.957 +0100|139902.297228625|0.115203857421875|0.1819610595703125|-0.48089599609375|139902.277267625|-1.284980158638181|0.1370376646009329|-0.1354708063026988|-3.91288948059082|1.3682861328125|-0.6590734124183655|-0.05134367942810059|-0.1008163392543793|0.4332545399665833|XArbitraryZVertical|-0.01313110967897045|0.09514823162861683|-0.6001240334242836|0.7941193889630718|0.135357528924942|0.1350568234920502|-0.9815487861633301|0|0|0|-1|-1|3
2021-04-22 21:38:47.977 +0100|139902.317188625|0.1636962890625|0.333831787109375|-0.475982666015625|139902.297228625|-1.286605481815939|0.1635883462544727|-0.2205047471316514|-4.473731517791748|1.314981818199158|-0.7870757579803467|-0.04916095733642578|-0.06865221261978149|0.4777435660362244|XArbitraryZVertical|-0.03903081940779441|0.1307545597398159|-0.6013988364414806|0.787209921001391|0.1589163988828659|0.2187221795320511|-0.9627596735954285|0|0|0|-1|-1|3
2021-04-22 21:38:47.997 +0100|139902.337149625|0.2366485595703125|0.5257415771484375|-0.5125732421875|139902.317188625|-1.287437286516256|0.1886062797002674|-0.317557876548642|-5.096681594848633|1.204297542572021|-1.010563850402832|-0.02838224172592163|-0.01859229803085327|0.4645867943763733|XArbitraryZVertical|-0.0701039744073219|0.1688444628171469|-0.6019000900217988|0.7773630596266001|0.1781157255172729|0.3122474849224091|-0.9331539869308472|0|0|0|-1|-1|3
2021-04-22 21:38:48.017 +0100|139902.357109625|0.2606353759765625|0.7480926513671875|-0.5262298583984375|139902.337149625|-1.288551560819515|0.2100540114377452|-0.4276189749605049|-5.708546161651611|0.9691043496131897|-1.280685424804688|0.02965250611305237|0.05755400657653809|0.3793647289276123|XArbitraryZVertical|-0.1071822324365234|0.2086496137613398|-0.6014939992450664|0.7636637510721741|0.1897373497486115|0.414705365896225|-0.8899546265602112|0|0|0|-1|-1|3
2021-04-22 21:38:48.037 +0100|139902.377069625|0.191741943359375|1.007308959960938|-0.4775390625|139902.357109625|-1.289739249296561|0.2268306802348252|-0.5515757882725827|-6.328207015991211|0.7614438533782959|-1.509923815727234|0.07084991037845612|0.1723046898841858|0.3032252788543701|XArbitraryZVertical|-0.1507656367538846|0.2496564498633811|-0.599292168254819|0.7455136067454536|0.1915392279624939|0.5240299701690674|-0.8298827409744263|0|0|0|-1|-1|3
2021-04-22 21:38:48.057 +0100|139902.397030625|0.06182861328125|1.313568115234375|-0.3520660400390625|139902.377069625|-1.29052013074396|0.2400022971152685|-0.6829303147616408|-6.443456172943115|0.6248970031738281|-1.569417953491211|0.03113536536693573|0.2991983890533447|0.2535989880561829|XArbitraryZVertical|-0.1977769363472606|0.2900655067344113|-0.5946369102825402|0.7232934886362812|0.184394046664238|0.6310688257217407|-0.7534925937652588|0|0|0|-1|-1|3
2021-04-22 21:38:48.077 +0100|139902.416990625|-0.0088958740234375|1.531845092773438|-0.2706451416015625|139902.397030625|-1.288674589209594|0.2532210180802061|-0.8132247016733269|-6.113704204559326|0.6010493040084839|-1.490676045417786|-0.07762235403060913|0.5085852146148682|0.2738578319549561|XArbitraryZVertical|-0.2440068378282063|0.3283863318687681|-0.5872053174110949|0.6984362282721142|0.1721495985984802|0.7265068292617798|-0.6652461886405945|0|0|0|-1|-1|3
2021-04-22 21:38:48.097 +0100|139902.436950625|0.0871124267578125|1.464340209960938|-0.238677978515625|139902.416990625|-1.286688123278235|0.2682287184461722|-0.9302362480087421|-5.204821586608887|0.8021783828735352|-1.42605721950531|-0.1634112596511841|0.6960567831993103|0.2898661494255066|XArbitraryZVertical|-0.2839525202229311|0.3622622619911785|-0.5793190733239665|0.6727009844216254|0.1583901345729828|0.8017611503601074|-0.576274037361145|0|0|0|-1|-1|3
2021-04-22 21:38:48.118 +0100|139902.456911625|0.1468505859375|1.236663818359375|-0.226318359375|139902.436950625|-1.288817466229889|0.2829269646954319|-1.025781746491232|-4.001538276672363|0.8407962918281555|-1.265389084815979|-0.08818082511425018|0.6479930281639099|0.2446449100971222|XArbitraryZVertical|-0.3145729376615024|0.3900439443460462|-0.5735114549391961|0.6480697211324408|0.1447289735078812|0.8551197052001953|-0.497819185256958|0|0|0|-1|-1|3
2021-04-22 21:38:48.137 +0100|139902.476871625|0.1461029052734375|1.093399047851562|-0.2518463134765625|139902.456911625|-1.292639935338225|0.295597344897216|-1.100072696017504|-3.157944917678833|0.7432882785797119|-1.027086496353149|0.009588539600372314|0.4018504619598389|0.2003248929977417|XArbitraryZVertical|-0.3371320351353822|0.4115962006244725|-0.5692766143045482|0.6267813574348726|0.1321188807487488|0.8912403583526611|-0.43386110663414|0|0|0|-1|-1|3
2021-04-22 21:38:48.157 +0100|139902.496831625|0.184417724609375|0.882049560546875|-0.2218780517578125|139902.476871625|-1.294668958594757|0.3098915339661253|-1.160623648332729|-2.699917554855347|0.9242401123046875|-0.9104116559028625|0.01581332087516785|0.2007916569709778|0.1330535411834717|XArbitraryZVertical|-0.3542914510106791|0.4296404091524552|-0.5657907124889086|0.608085335183721|0.1216064393520355|0.9170519709587097|-0.3797733783721924|0|0|0|-1|-1|3
2021-04-22 21:38:48.177 +0100|139902.516792625|0.1551361083984375|0.8358001708984375|-0.1188201904296875|139902.496831625|-1.29252733130733|0.331475525291224|-1.218635217134154|-2.763069868087769|1.014023661613464|-0.8204509615898132|0.07051616162061691|0.007873237133026123|0.08034631609916687|XArbitraryZVertical|-0.3691624700793719|0.447932766263485|-0.5624453089351356|0.5888384506420404|0.1122526749968529|0.9386295080184937|-0.3261506259441376|0|0|0|-1|-1|3
2021-04-22 21:38:48.197 +0100|139902.536752625|0.1212005615234375|0.9362030029296875|-0.091064453125|139902.516792625|-1.279289848099005|0.365100177637729|-1.274479970592198|-2.602423191070557|1.119852066040039|-0.7087578773498535|0.06152965128421783|-0.135327935218811|0.1365523636341095|XArbitraryZVertical|-0.3823299007743942|0.4663125965508836|-0.5584480671901065|0.5696596824803352|0.1042561829090118|0.9564185738563538|-0.2727528214454651|0|0|0|-1|-1|3
2021-04-22 21:38:48.217 +0100|139902.556712625|0.0998992919921875|0.913543701171875|-0.1037445068359375|139902.536752625|-1.259606228415365|0.4073781528265664|-1.322395633169981|-2.029518842697144|1.219440340995789|-0.5897546410560608|0.02990999817848206|-0.0570753812789917|0.1268875598907471|XArbitraryZVertical|-0.3919580387623635|0.4832200806193283|-0.555634373857202|0.5514869456988857|0.09740841388702393|0.9693068861961365|-0.2257345020771027|0|0|0|-1|-1|3
2021-04-22 21:38:48.237 +0100|139902.576673625|0.0887603759765625|0.8811492919921875|-0.0908355712890625|139902.556712625|-1.241274891516809|0.4503767159927975|-1.357354672238342|-1.357841610908508|1.288942098617554|-0.4792169332504272|0.01229804009199142|-0.04562121629714966|0.08295978605747223|XArbitraryZVertical|-0.3967174054825271|0.497256441202089|-0.5552864158761018|0.5357317033656905|0.09220850467681885|0.9773076772689819|-0.1907026618719101|0|0|0|-1|-1|3
2021-04-22 21:38:48.257 +0100|139902.596633625|0.0713958740234375|0.960601806640625|-0.0769195556640625|139902.576673625|-1.222368703343999|0.4953074713879551|-1.382839269283995|-1.144733190536499|1.367625713348389|-0.3466623425483704|0.004693590104579926|-0.09916353225708008|0.07954229414463043|XArbitraryZVertical|-0.3979081756983858|0.5093825402897962|-0.5565711681478683|0.5219454736784356|0.08881138265132904|0.9823880195617676|-0.1643970161676407|0|0|0|-1|-1|3
2021-04-22 21:38:48.277 +0100|139902.616594625|0.0478668212890625|1.101242065429688|-0.0328826904296875|139902.596633625|-1.193353135642447|0.5521008054198614|-1.404220157340244|-0.9004724025726318|1.448578476905823|-0.2765268385410309|-0.0145142450928688|-0.05343419313430786|0.04801692068576813|XArbitraryZVertical|-0.3970826356881803|0.521286084305253|-0.5583651707000181|0.5087382542789434|0.08696211874485016|0.9861582517623901|-0.141172394156456|0|0|0|-1|-1|3
2021-04-22 21:38:48.297 +0100|139902.636554625|0.00140380859375|1.209014892578125|0.0146026611328125|139902.616594625|-1.173258984650613|0.60100727345618|-1.418264142339348|-0.450171023607254|1.453571796417236|-0.2435775846242905|-0.02821130305528641|0.08010727167129517|0.07519097626209259|XArbitraryZVertical|-0.3936510566461753|0.5313948621938555|-0.561806674988353|0.4970228525619159|0.08591920137405396|0.9883894920349121|-0.1253166943788528|0|0|0|-1|-1|3
2021-04-22 21:38:48.317 +0100|139902.656514625|0.00201416015625|1.2484130859375|-0.085906982421875|139902.636554625|-1.190926353658681|0.6125732929971497|-1.42601297521653|-0.09762200713157654|1.459565758705139|-0.4495059847831726|-0.07142224162817001|0.2002823352813721|0.130114421248436|XArbitraryZVertical|-0.3884058014719849|0.5386262590977327|-0.5677953004648798|0.4864477667809846|0.08295710384845734|0.9895371794700623|-0.118045374751091|0|0|0|-1|-1|3
2021-04-22 21:38:48.337 +0100|139902.676475625|0.01654052734375|1.263259887695312|-0.2049407958984375|139902.656514625|-1.246078760076683|0.5880871090887263|-1.436868014817501|-0.4489902257919312|1.57623291015625|-0.8176100850105286|-0.07470505684614182|0.2562544345855713|0.07554410398006439|XArbitraryZVertical|-0.3842774555541131|0.5447770019888799|-0.5753520441599899|0.4738345592408051|0.07407870143651962|0.9910449981689453|-0.1110977083444595|0|0|0|-1|-1|3
2021-04-22 21:38:48.357 +0100|139902.696435625|-0.0240478515625|1.419784545898438|-0.26611328125|139902.676475625|-1.340769353145866|0.5257204440020906|-1.457845269740503|-0.75436931848526|1.566956043243408|-1.281928420066833|-0.03970307111740112|0.246423602104187|-0.09110713005065918|XArbitraryZVertical|-0.3835757595002749|0.5514739565093929|-0.5831124825833429|0.4568655655998339|0.05656329542398453|0.9936277866363525|-0.09749222546815872|0|0|0|-1|-1|3
2021-04-22 21:38:48.377 +0100|139902.716395625|-0.0685272216796875|1.555511474609375|-0.2671051025390625|139902.696435625|-1.532270058651605|0.3658839644563382|-1.486515543222236|-1.019812703132629|1.515804290771484|-1.626673460006714|-0.03939678892493248|0.3719731569290161|-0.1798581480979919|XArbitraryZVertical|-0.38661231067907|0.5578757373847738|-0.5906857722403569|0.4363440399862002|0.03011872433125973|0.9964504837989807|-0.07861116528511047|0|0|0|-1|-1|3
2021-04-22 21:38:48.417 +0100|139902.736356625|-0.074920654296875|1.509597778320312|-0.3136444091796875|139902.736356625|-2.758210022034816|-0.8004701853749298|-1.524494488171357|-1.063236951828003|1.327894568443298|-1.581968545913696|-0.0449066124856472|0.5309332013130188|-0.268717348575592|XArbitraryZVertical|-0.3978209475567167|0.5706331879906698|-0.6026621830377525|0.3910429776214834|-0.03321908041834831|0.9989282488822937|-0.03223251551389694|0|0|0|-1|-1|3
2021-04-22 21:38:48.419 +0100|139902.756316625|-0.014373779296875|1.324111938476562|-0.3639373779296875||||||||||||||||||||||||3
2021-04-22 21:38:48.437 +0100|139902.776276625|0.0640411376953125|1.056411743164062|-0.4305419921875|139902.756316625|2.949906056822257|-1.35015143124293|-1.507113379784758|-0.853588342666626|1.122713565826416|-1.357205867767334|0.029246985912323|0.3923622369766235|-0.3268465399742126|XArbitraryZVertical|-0.4025467518371094|0.5753188002973377|-0.6076139876974072|0.3711735644154904|-0.06209981441497803|0.9979729056358337|-0.01392878126353025|0|0|0|-1|-1|3
2021-04-22 21:38:48.457 +0100|139902.796237625|0.0960845947265625|0.818389892578125|-0.4893646240234375|139902.796237625|2.53515275515204|-1.732790712525246|-1.462990162563202|-0.9555110931396484|0.4025830626487732|-0.9035679697990417|0.1989636272192001|-0.1253589391708374|-0.50331711769104|XArbitraryZVertical|-0.4120291933566994|0.5821590318602182|-0.6119136631617194|0.3418840394079832|-0.1061908230185509|0.9941945672035217|0.01735438965260983|0|0|0|-1|-1|3
2021-04-22 21:38:48.476 +0100|139902.816197625|0.095428466796875|0.733978271484375|-0.4837646484375||||||||||||||||||||||||3
2021-04-22 21:38:48.496 +0100|139902.836157625|0.076019287109375|0.9034576416015625|-0.41119384765625|139902.816197625|2.40843180539227|-1.85354107586139|-1.442490007493852|-0.9857885241508484|0.07475282251834869|-0.7489367723464966|0.2174485325813293|-0.2580000162124634|-0.5265136957168579|XArbitraryZVertical|-0.4185446351065201|0.5853800047791237|-0.6102131107417383|0.3313468859130302|-0.1228751614689827|0.9917800426483154|0.03569872304797173|0|0|0|-1|-1|3
2021-04-22 21:38:48.516 +0100|139902.856118625|0.0052947998046875|1.152496337890625|-0.354736328125|139902.836157625|2.312589982416327|-1.951370413766385|-1.426218629324084|-0.6837509274482727|-0.3298546671867371|-0.3264007270336151|0.2222523987293243|-0.1627845168113708|-0.4993648529052734|XArbitraryZVertical|-0.4255721000906817|0.5879176003965779|-0.6062656187212883|0.3250898984837676|-0.1337673217058182|0.9895668625831604|0.05351743474602699|0|0|0|-1|-1|3
2021-04-22 21:38:48.536 +0100|139902.876078625|0.032958984375|0.9663238525390625|-0.3395538330078125|139902.856118625|2.281598882229128|-1.987695030971274|-1.421982983141902|0.3001358509063721|-0.2430226504802704|0.04564578831195831|0.1612613052129745|0.1368457674980164|-0.3712707757949829|XArbitraryZVertical|-0.4288621654754258|0.5882988291647671|-0.6036923722545636|0.3248650782440198|-0.1355661451816559|0.9889476895332336|0.06003654003143311|0|0|0|-1|-1|3
2021-04-22 21:38:48.556 +0100|139902.8960415|0.0806427001953125|0.6716156005859375|-0.3543853759765625|139902.876078625|2.380402595062324|-1.894573150931491|-1.430855717751105|1.099745273590088|-0.2115340530872345|0.2809995412826538|0.152607336640358|0.05401098728179932|-0.4237570762634277|XArbitraryZVertical|-0.4266615849791194|0.5832224596473802|-0.6070046063651581|0.330691645224999|-0.132237508893013|0.990224301815033|0.04437709227204323|0|0|0|-1|-1|3
2021-04-22 21:38:48.577 +0100|139902.9160015|0.125885009765625|0.679534912109375|-0.270172119140625|139902.8960415|2.485130686233227|-1.793701706279214|-1.442655034339708|0.6430708169937134|-0.1001787260174751|0.4471790194511414|0.1938752382993698|-0.2475992441177368|-0.3551555871963501|XArbitraryZVertical|-0.422569085822213|0.5792759326785747|-0.6099602689019423|0.3373774075660287|-0.124631479382515|0.9918011426925659|0.02825047634541988|0|0|0|-1|-1|3
2021-04-22 21:38:48.596 +0100|139902.9359615|0.11993408203125|0.833404541015625|-0.2308349609375|139902.9160015|2.565039796837926|-1.717463669937793|-1.454359560961207|0.4016939699649811|-0.2353346347808838|0.548341691493988|0.2312297523021698|-0.3663214445114136|-0.3125110864639282|XArbitraryZVertical|-0.4187051773774405|0.577213147623908|-0.6110512080262299|0.343696863785562|-0.1149279102683067|0.9932289123535156|0.01697808690369129|0|0|0|-1|-1|3
2021-04-22 21:38:48.616 +0100|139902.9559225|0.0997772216796875|0.871368408203125|-0.06597900390625|139902.9359615|2.577130200913265|-1.711163648247318|-1.466097566291217|-0.06459666788578033|-0.3356688618659973|0.5629342794418335|0.2283890247344971|-0.1699237823486328|-0.2457472085952759|XArbitraryZVertical|-0.4166296369733151|0.577694137066363|-0.6087433237367414|0.349458086560314|-0.1034812480211258|0.9945240616798401|0.0146215409040451|0|0|0|-1|-1|3
2021-04-22 21:38:48.636 +0100|139902.9758825|0.0662078857421875|1.019683837890625|0.0286865234375|139902.9559225|2.520536356228888|-1.775544052359071|-1.475834068723353|-0.3519555926322937|-0.4752914011478424|0.5123440027236938|0.2004760801792145|-0.1498980522155762|-0.125725269317627|XArbitraryZVertical|-0.4167046609655033|0.5796523280624699|-0.6040818519683311|0.3541831855051831|-0.09284123033285141|0.9954944849014282|0.01927919127047062|0|0|0|-1|-1|3
2021-04-22 21:38:48.656 +0100|139902.9958425|0.0445556640625|1.154006958007812|0.0859375|139902.9758825|2.419390159474825|-1.886933001809705|-1.48307906631294|-0.3534355163574219|-0.6009122133255005|0.4364012777805328|0.1547053158283234|-0.0110325813293457|-0.02786278910934925|XArbitraryZVertical|-0.4184457882862112|0.5818258392086944|-0.5981393631361909|0.3586240342319927|-0.08326433598995209|0.996155321598053|0.02723637036979198|0|0|0|-1|-1|3
2021-04-22 21:38:48.676 +0100|139903.0158035|-0.0084686279296875|1.233612060546875|0.1441497802734375|139902.9958425|2.295152069227664|-2.024557033306147|-1.487874803155916|-0.4030660390853882|-0.7816861271858215|0.3867208063602448|0.1284933984279633|0.1273070573806763|0.044577956199646|XArbitraryZVertical|-0.4215561141341232|0.5834762338180096|-0.5913831439087891|0.3634723238399553|-0.07444743812084198|0.9965639710426331|0.03630814701318741|0|0|0|-1|-1|3
2021-04-22 21:38:48.696 +0100|139903.0357635|-0.0646514892578125|1.273391723632812|0.179473876953125|139903.0158035|2.189499756184976|-2.14733277226167|-1.490482481011373|-0.256363570690155|-0.9574322104454041|0.2831913232803345|0.07002145797014236|0.2205086350440979|0.06676876544952393|XArbitraryZVertical|-0.4259327689783218|0.5834797272847636|-0.5846766777578599|0.3691692941349917|-0.06726031750440598|0.9967765808105469|0.04373463243246078|0|0|0|-1|-1|3
2021-04-22 21:38:48.716 +0100|139903.0557235|-0.0886077880859375|1.329116821289062|0.207977294921875|139903.0357635|2.127384292451539|-2.228558689434216|-1.491899950288921|-0.07696345448493958|-0.9365887045860291|0.07825272530317307|0.01142136007547379|0.2633340954780579|0.1306947469711304|XArbitraryZVertical|-0.4309769014309148|0.5816790938186513|-0.5788588487709946|0.375274304372087|-0.0623711496591568|0.9968892931938171|0.04818331450223923|0|0|0|-1|-1|3
2021-04-22 21:38:48.736 +0100|139903.0756845|-0.0948944091796875|1.341171264648438|0.32110595703125|139903.0557235|2.123049651893239|-2.249940845234226|-1.489933853238479|-0.06201033666729927|-0.775112509727478|-0.2014106065034866|-0.02082764357328415|0.3174461126327515|0.1379064321517944|XArbitraryZVertical|-0.4365649002386885|0.5786015390594914|-0.5749771930770853|0.3795163484305611|-0.06285223364830017|0.9967324137687683|0.05073730647563934|0|0|0|-1|-1|3
2021-04-22 21:38:48.756 +0100|139903.0956445|-0.1351470947265625|1.24072265625|0.3477630615234375|139903.0756845|2.14971778250331|-2.238319010115882|-1.484095930305312|-0.1679939776659012|-0.7631767392158508|-0.3607881665229797|-0.0248132050037384|0.3562037348747253|0.2459548711776733|XArbitraryZVertical|-0.4429317413870967|0.5749903884681734|-0.572276166267194|0.3817036040707017|-0.06800675392150879|0.9962438941001892|0.05360494926571846|0|0|0|-1|-1|3
2021-04-22 21:38:48.776 +0100|139903.1156055|-0.174591064453125|1.162399291992188|0.2949981689453125|139903.0956445|2.160897114595485|-2.243460034486454|-1.475360421321175|-0.3032744228839874|-0.8510820865631104|-0.373106986284256|-0.04860436916351318|0.271594762802124|0.2827880382537842|XArbitraryZVertical|-0.4506024966152966|0.5715282845421474|-0.5687442643958276|0.3832009192875191|-0.07453484088182449|0.995449423789978|0.0593743808567524|0|0|0|-1|-1|3
2021-04-22 21:38:48.796 +0100|139903.1355655|-0.1655426025390625|1.041793823242188|0.2863311767578125|139903.1156055|2.156735734613911|-2.263960794077516|-1.465632248059854|-0.3187582492828369|-0.7781506776809692|-0.3469986915588379|-0.09025838971138|0.182648777961731|0.247957706451416|XArbitraryZVertical|-0.4585539099479951|0.5685645300775827|-0.5645814547073293|0.3843314451311755|-0.08074761182069778|0.9944753646850586|0.06707462668418884|0|0|0|-1|-1|3
2021-04-22 21:38:48.816 +0100|139903.1555255|-0.1254425048828125|0.88482666015625|0.282257080078125|139903.1355655|2.150030856120716|-2.284980212303353|-1.456951862338601|-0.3016196191310883|-0.6441834568977356|-0.2768538892269135|-0.08631104230880737|0.08969485759735107|0.2117393016815186|XArbitraryZVertical|-0.4655232869244584|0.566120249000476|-0.5606955126999734|0.385248771102059|-0.08583937585353851|0.9935266971588135|0.07440813630819321|0|0|0|-1|-1|3
2021-04-22 21:38:48.836 +0100|139903.1754865|-0.1118927001953125|0.826171875|0.29803466796875|139903.1555255|2.136197834110393|-2.309912720447457|-1.448327327470322|-0.4050690531730652|-0.4825311601161957|-0.2527727782726288|-0.04641679674386978|-0.07260322570800781|0.1988633871078491|XArbitraryZVertical|-0.4715065232442433|0.5646492713478454|-0.5571415857319048|0.3852872038703901|-0.09028750658035278|0.9925100207328796|0.08229440450668335|0|0|0|-1|-1|3
2021-04-22 21:38:48.856 +0100|139903.1954465|-0.120391845703125|0.8683929443359375|0.3009490966796875|139903.1754865|2.111456800976943|-2.342613565168446|-1.43881376926618|-0.4759364426136017|-0.3294134736061096|-0.2200138568878174|-0.01799412071704865|-0.1661837100982666|0.1992311477661133|XArbitraryZVertical|-0.4768137465217247|0.5643940034547154|-0.5536392393388418|0.3841768480950021|-0.09431137889623642|0.9913029670715332|0.09178388118743896|0|0|0|-1|-1|3
2021-04-22 21:38:48.876 +0100|139903.2154065|-0.1042327880859375|0.9371337890625|0.280548095703125|139903.1954465|2.090216456099701|-2.368314987099053|-1.430341164064751|-0.2495601922273636|-0.1264341920614243|-0.1749144643545151|-0.02009069919586182|-0.1331270933151245|0.198094367980957|XArbitraryZVertical|-0.4807556475683823|0.5647706901321793|-0.5510164304273442|0.3824775863825726|-0.09778425842523575|0.9901523590087891|0.1001838520169258|0|0|0|-1|-1|3
2021-04-22 21:38:48.896 +0100|139903.2353675|-0.0955047607421875|0.956756591796875|0.207855224609375|139903.2154065|2.099438160713445|-2.35975708538269|-1.427570446571979|0.1095174103975296|0.05896357819437981|-0.1068479716777802|-0.009187325835227966|-0.07023555040359497|0.188566192984581|XArbitraryZVertical|-0.4819264216167634|0.564261882457509|-0.5511282659003841|0.3815928462287176|-0.100569948554039|0.98976069688797|0.1012890934944153|0|0|0|-1|-1|3
2021-04-22 21:38:48.916 +0100|139903.2553275|-0.12042236328125|0.9667816162109375|0.1418609619140625|139903.2353675|2.131814824826825|-2.325294945761051|-1.430162923488164|0.4182716608047485|0.1750603467226028|-0.02450258657336235|0.006976723670959473|-0.03402680158615112|0.1288001537322998|XArbitraryZVertical|-0.4806656987047919|0.5629955452677939|-0.5533982450085323|0.3817683663535833|-0.1021313294768333|0.9901273846626282|0.09600699692964554|0|0|0|-1|-1|3
2021-04-22 21:38:48.936 +0100|139903.2752875|-0.1134033203125|0.923248291015625|0.0861358642578125|139903.2553275|2.186095137304845|-2.26683522447098|-1.437827857737291|0.6151943206787109|0.3150918185710907|0.1009847670793533|-0.01107047498226166|-0.0244826078414917|0.0744318887591362|XArbitraryZVertical|-0.4771016621029636|0.5611392845311785|-0.557347380665746|0.3832240786577534|-0.1017385497689247|0.991172730922699|0.08500658720731735|0|0|0|-1|-1|3
2021-04-22 21:38:48.955 +0100|139903.2952485|-0.0626220703125|0.9017791748046875|0.0790252685546875|139903.2752875|2.233763860863906|-2.211568722219401|-1.445699556650618|0.5868083238601685|0.4967620074748993|0.1681487858295441|-0.02046196162700653|-0.05792021751403809|0.0193718746304512|XArbitraryZVertical|-0.4723410857398528|0.5605260423321479|-0.5615070543585857|0.3839460031104266|-0.1000222340226173|0.9921855926513672|0.07459109276533127|0|0|0|-1|-1|3
2021-04-22 21:38:48.975 +0100|139903.3152085|-0.0157470703125|0.8429718017578125|0.0605926513671875|139903.2952485|2.256514258965009|-2.178647059858422|-1.451275936310758|0.4457895755767822|0.5563642978668213|0.1600691378116608|0.02160052955150604|-0.08139717578887939|0.01852596551179886|XArbitraryZVertical|-0.467557892393352|0.5616390115878223|-0.5649267066955668|0.3831570253361772|-0.09788001328706741|0.9928659200668335|0.06809752434492111|0|0|0|-1|-1|3
2021-04-22 21:38:48.995 +0100|139903.3351695|-0.001495361328125|0.845001220703125|0.021636962890625|139903.3152085|2.30245455731014|-2.122721095081314|-1.458158456313642|0.3471257984638214|0.4574654400348663|0.1315140873193741|0.07021358609199524|-0.14216148853302|0.002679109573364258|XArbitraryZVertical|-0.4622669114711211|0.5619402940028232|-0.5690846098388693|0.3829821089132951|-0.09571181237697601|0.9936630725860596|0.05893518403172493|0|0|0|-1|-1|3
2021-04-22 21:38:49.015 +0100|139903.3551295|0.00079345703125|0.863677978515625|-0.0328521728515625|139903.3351695|2.3369535119025|-2.080635829065062|-1.463149594997778|0.2589232623577118|0.331455409526825|0.09449570626020432|0.09231096506118774|-0.1545509099960327|-0.01956820487976074|XArbitraryZVertical|-0.4582633333536776|0.5623275020580647|-0.5720514337208126|0.3828052019679198|-0.09377660602331161|0.9942116737365723|0.052435003221035|0|0|0|-1|-1|3
2021-04-22 21:38:49.035 +0100|139903.3750895|0.009796142578125|0.8089447021484375|-0.051239013671875|139903.3551295|2.361398123295967|-2.050511473803124|-1.466443885686598|0.09820633381605148|0.2614777386188507|0.08176712691783905|0.09231389313936234|-0.1271896362304688|-0.06882692128419876|XArbitraryZVertical|-0.4553918862654603|0.5627213644438703|-0.57413998539133|0.3825260853690729|-0.09240618348121643|0.9945602416992188|0.04807420819997787|0|0|0|-1|-1|3
2021-04-22 21:38:49.055 +0100|139903.3950505|0.0249481201171875|0.7894134521484375|-0.037872314453125|139903.3750895|2.350507662116243|-2.056429643402111|-1.467463127961108|-0.1810534298419952|0.229493573307991|0.06092381104826927|0.09793853759765625|-0.1694246530532837|-0.0999218225479126|XArbitraryZVertical|-0.4536789646282016|0.5641359945959147|-0.5748366062599108|0.3814303281561983|-0.09122540056705475|0.9946658611297607|0.04814804717898369|0|0|0|-1|-1|3
2021-04-22 21:38:49.075 +0100|139903.4150105|0.0396270751953125|0.81884765625|0.0163421630859375|139903.3950505|2.292046626640901|-2.110440489212527|-1.465319312617126|-0.4608703553676605|0.1678814888000488|0.05438264086842537|0.109439879655838|-0.2114986181259155|-0.1041014194488525|XArbitraryZVertical|-0.4533849595779363|0.5670016737395517|-0.5737617414490679|0.3791421752958224|-0.09032139182090759|0.9944424629211426|0.05409763753414154|0|0|0|-1|-1|3
2021-04-22 21:38:49.095 +0100|139903.4349705|0.0436248779296875|0.8570556640625|-0.0284271240234375|139903.4150105|2.195042006484564|-2.20492532030859|-1.46006036472149|-0.6765745878219604|0.01172437611967325|0.08771724998950958|0.1275699436664581|-0.1809324026107788|-0.05479514598846436|XArbitraryZVertical|-0.4546165282514011|0.5710180519329031|-0.5706313017315108|0.3763539887756424|-0.08902700245380402|0.9938750267028809|0.06547560542821884|0|0|0|-1|-1|3
2021-04-22 21:38:49.115 +0100|139903.4549315|0.0412750244140625|0.970123291015625|-0.001220703125|139903.4349705|2.099024952572662|-2.30207148184491|-1.453197058517502|-0.5975027084350586|-0.1708794236183167|0.05413123965263367|0.1299176514148712|-0.15683513879776|-0.09546066075563431|XArbitraryZVertical|-0.4570663802297878|0.5746892960683974|-0.56626637447728|0.3743862357552842|-0.08733111619949341|0.9930931925773621|0.07835492491722107|0|0|0|-1|-1|3
2021-04-22 21:38:49.135 +0100|139903.4748915|0.03912353515625|1.053924560546875|0.0413055419921875|139903.4549315|2.023597180454822|-2.380847535644664|-1.444074487449884|-0.7424956560134888|-0.1961138844490051|-0.08574730157852173|0.1269465982913971|-0.0512007474899292|-0.1077485084533691|XArbitraryZVertical|-0.460625489528809|0.5775774330152128|-0.5616670204357658|0.3725034140868885|-0.08713716268539429|0.9919815063476562|0.09154306352138519|0|0|0|-1|-1|3
2021-04-22 21:38:49.155 +0100|139903.4948525|-0.0501251220703125|1.164779663085938|0.1559295654296875|139903.4748915|1.958043175385478|-2.450038068352816|-1.429383205435687|-0.8703263401985168|-0.2420124560594559|-0.226172149181366|0.1345916986465454|0.05508726835250854|-0.07049191743135452|XArbitraryZVertical|-0.4658456660228979|0.5807484819696505|-0.5564177106727847|0.3689422910613854|-0.0898842066526413|0.990017831325531|0.1085619702935219|0|0|0|-1|-1|3
2021-04-22 21:38:49.175 +0100|139903.5148125|-0.168060302734375|1.282180786132812|0.1769866943359375|139903.4948525|1.926774021106|-2.487611671030069|-1.414766397994996|-0.6013820171356201|-0.4319535195827484|-0.2946796417236328|0.07262468338012695|0.1324942111968994|-0.01006984710693359|XArbitraryZVertical|-0.4719125234887744|0.5822080262691919|-0.5517040553914081|0.3659989200664627|-0.09453708678483963|0.9878519773483276|0.1233352348208427|0|0|0|-1|-1|3
2021-04-22 21:38:49.195 +0100|139903.5347725|-0.2049102783203125|1.205108642578125|0.1021728515625|139903.5148125|1.92018644600727|-2.504072585146409|-1.404399175825729|-0.2722235321998596|-0.5440535545349121|-0.2367305159568787|-0.04408597201108932|0.280047595500946|0.05382250249385834|XArbitraryZVertical|-0.477849343366332|0.5815569714720192|-0.5477315396376334|0.3652968466546954|-0.09858445823192596|0.9861879348754883|0.1330970078706741|0|0|0|-1|-1|3
2021-04-22 21:38:49.215 +0100|139903.5547335|-0.13055419921875|1.06060791015625|0.100494384765625|139903.5347725|1.927201506602235|-2.507579722181866|-1.400074542426851|0.02049710415303707|-0.4760691821575165|-0.1184965446591377|-0.1046955287456512|0.2573050856590271|-0.01807272434234619|XArbitraryZVertical|-0.4822260161467014|0.5795658542324681|-0.5450659334407126|0.3666944321925029|-0.1006428003311157|0.9854623675346375|0.1368770152330399|0|0|0|-1|-1|3
2021-04-22 21:38:49.235 +0100|139903.5746935|-0.0928497314453125|1.009933471679688|0.0892486572265625|139903.5547335|1.937810360336407|-2.505762941536336|-1.399836381592338|-0.03359454125165939|-0.3925800621509552|-0.05471401661634445|-0.05186381191015244|0.1090300679206848|-0.04206444323062897|XArbitraryZVertical|-0.484876176485036|0.5773526229864042|-0.5435243341489665|0.3689720432159985|-0.1010300517082214|0.985421895980835|0.1368819177150726|0|0|0|-1|-1|3
2021-04-22 21:38:49.255 +0100|139903.5946535|-0.1187896728515625|1.107803344726562|0.1499176025390625|139903.5746935|1.927999430380827|-2.522560528110875|-1.395986232354827|-0.3685632050037384|-0.3354908525943756|-0.0318371057510376|0.008478827774524689|0.01929932832717896|-0.04350472986698151|XArbitraryZVertical|-0.4878263314276922|0.5769313411120714|-0.5407695709472328|0.3697891384800622|-0.1009173840284348|0.9847595691680908|0.141648605465889|0|0|0|-1|-1|3
2021-04-22 21:38:49.275 +0100|139903.6146145|-0.1100311279296875|1.139877319335938|0.1823577880859375|139903.5946535|1.904133899765918|-2.55176595362635|-1.389105653874983|-0.449638694524765|-0.2168071866035461|-0.01448989938944578|-0.01576824486255646|0.09132009744644165|-0.0291762501001358|XArbitraryZVertical|-0.4909811960371278|0.5779435478779651|-0.5371207629708799|0.369350853485519|-0.1005045026540756|0.9835395812988281|0.1501625627279282|0|0|0|-1|-1|3
2021-04-22 21:38:49.295 +0100|139903.6345745|-0.08697509765625|1.1361083984375|0.1935272216796875|139903.6146145|1.880569674477879|-2.578340348160959|-1.381594155464878|-0.3307344317436218|-0.1389017850160599|-0.01788871362805367|-0.01466171443462372|0.1640704274177551|0.02440306544303894|XArbitraryZVertical|-0.4936235903117966|0.5795229624177554|-0.5338562422626889|0.3680848167450073|-0.1004208624362946|0.9821546077728271|0.1590222269296646|0|0|0|-1|-1|3
2021-04-22 21:38:49.315 +0100|139903.6545345|-0.07183837890625|1.073333740234375|0.1800384521484375|139903.6345745|1.869220428999594|-2.59170351073499|-1.377991995372589|-0.1052371487021446|-0.08991074562072754|-0.00847257487475872|0.00717809796333313|0.1608328819274902|0.02225685119628906|XArbitraryZVertical|-0.4950084881724846|0.5802150062371659|-0.5321043511135066|0.3676713646350114|-0.1001354530453682|0.9814707636833191|0.1633657068014145|0|0|0|-1|-1|3
2021-04-22 21:38:49.335 +0100|139903.6744955|-0.0814666748046875|1.076522827148438|0.1634521484375|139903.6545345|1.866926891281287|-2.595443804688934|-1.376502770307062|-0.07567581534385681|-0.06010965257883072|-0.02180702239274979|0.02729925513267517|0.1053942441940308|0.02180933952331543|XArbitraryZVertical|-0.4957962835106573|0.5802413962626645|-0.5313733608167658|0.3676254545841462|-0.1002828627824783|0.9811843037605286|0.1649880707263947|0|0|0|-1|-1|3
2021-04-22 21:38:49.355 +0100|139903.6944555|-0.08935546875|1.049072265625|0.104644775390625|139903.6744955|1.863341160363761|-2.599983385798762|-1.374106940279312|-0.1663922071456909|-0.0444677360355854|-0.03488163277506828|0.02373254299163818|0.09299647808074951|0.01247549057006836|XArbitraryZVertical|-0.4966972432336675|0.5805339190323658|-0.5305384880045518|0.367152981878895|-0.1007444933056831|0.9807189106941223|0.1674555689096451|0|0|0|-1|-1|3
2021-04-22 21:38:49.375 +0100|139903.7144165|-0.0807952880859375|1.0621337890625|0.1504364013671875|139903.6944555|1.85972133277015|-2.603416216767997|-1.371032028681158|-0.1645225286483765|0.03052746504545212|-0.04709258303046227|0.009580850601196289|0.07680207490921021|-0.07204651832580566|XArbitraryZVertical|-0.4974986087526202|0.5811106387671807|-0.5298726053748974|0.3661157585112958|-0.1017142459750175|0.9801133871078491|0.1703888773918152|0|0|0|-1|-1|3
2021-04-22 21:38:49.395 +0100|139903.7343765|-0.0673828125|1.037139892578125|0.1361541748046875|139903.7144165|1.852137831620788|-2.609995596637286|-1.367463184534786|-0.1808823198080063|0.05750395357608795|-0.01299693156033754|0.02059073001146317|0.07789796590805054|-0.02750827372074127|XArbitraryZVertical|-0.4981250733649118|0.5821559737816708|-0.5290601013239707|0.3647758005179212|-0.1023633778095245|0.9793989658355713|0.1740683317184448|0|0|0|-1|-1|3
2021-04-22 21:38:49.415 +0100|139903.7543365|-0.0654449462890625|0.9989471435546875|0.1640167236328125|139903.7343765|1.84561659015855|-2.615212244320832|-1.365099812928313|-0.09714211523532867|0.05611453205347061|0.01698795519769192|0.03204341232776642|0.06942087411880493|-0.03470924496650696|XArbitraryZVertical|-0.4983238125877875|0.5830723919489789|-0.5285710058943047|0.3637480580836426|-0.1026161387562752|0.9789189696311951|0.1766000688076019|0|0|0|-1|-1|3
2021-04-22 21:38:49.434 +0100|139903.7742975|-0.0615234375|1.062362670898438|0.1729583740234375|139903.7543365|1.841576768966743|-2.618024388681797|-1.364250863323912|-0.006601191591471434|0.06486561894416809|0.0139737892895937|0.03702826052904129|0.02226203680038452|-0.02051974833011627|XArbitraryZVertical|-0.4981461719624538|0.5836562231146752|-0.5284678409571899|0.3632047599662632|-0.1025350242853165|0.9787452220916748|0.177608385682106|0|0|0|-1|-1|3
2021-04-22 21:38:49.455 +0100|139903.7942575|-0.0574188232421875|1.060867309570312|0.1407012939453125|139903.7742975|1.841939165234372|-2.616118669998634|-1.364732623830205|0.04653210192918777|0.09183013439178467|0.006173479370772839|0.04047191143035889|0.06539154052734375|-0.000553131103515625|XArbitraryZVertical|-0.4976020150116848|0.5838619887092894|-0.5289544589131103|0.3629116042053893|-0.102637030184269|0.9788438677787781|0.1770051717758179|0|0|0|-1|-1|3
2021-04-22 21:38:49.474 +0100|139903.8142175|-0.0647125244140625|1.00067138671875|0.116943359375|139903.7942575|1.848380192402065|-2.607927733922114|-1.366873508519943|0.2003782540559769|0.09435699135065079|-0.01258724834769964|0.0438576340675354|0.09149074554443359|-0.0290292501449585|XArbitraryZVertical|-0.4966621323251511|0.5835266704880558|-0.5301644316872535|0.3629726332608952|-0.103016771376133|0.9792796969413757|0.174353301525116|0|0|0|-1|-1|3
2021-04-22 21:38:49.494 +0100|139903.8341785|-0.070831298828125|0.9762420654296875|0.112457275390625|139903.8142175|1.860840074700783|-2.593881600008023|-1.370172006411229|0.19805608689785|0.09306849539279938|-0.03695410490036011|0.04140964150428772|0.03423327207565308|-0.05129611492156982|XArbitraryZVertical|-0.4955567470169377|0.5826568206287505|-0.5319024954800681|0.3633379243640446|-0.1037731021642685|0.9799423813819885|0.1701309233903885|0|0|0|-1|-1|3
2021-04-22 21:38:49.514 +0100|139903.8541385|-0.0593719482421875|0.9781494140625|0.1003570556640625|139903.8341785|1.869380245725956|-2.583435227900371|-1.373150204365729|0.08316375315189362|0.1194835528731346|-0.02886750921607018|0.03351761400699615|-0.004090785980224609|-0.05488322675228119|XArbitraryZVertical|-0.4943454513577694|0.58215413759584|-0.5333895063615578|0.3636138336066259|-0.1039987578988075|0.9805315136909485|0.1665617376565933|0|0|0|-1|-1|3
2021-04-22 21:38:49.534 +0100|139903.8740985|-0.0549774169921875|0.96929931640625|0.091400146484375|139903.8541385|1.871517319153125|-2.579095490662087|-1.374751778042686|0.1143927574157715|0.1110456362366676|0.0006648192647844553|0.03997804224491119|-0.002054333686828613|-0.0666356235742569|XArbitraryZVertical|-0.4933148291513707|0.5822630547652247|-0.5343126654417243|0.3634835859785248|-0.1038825958967209|0.9808447360992432|0.1647795736789703|0|0|0|-1|-1|3
2021-04-22 21:38:49.554 +0100|139903.89405925|-0.0663299560546875|0.982177734375|0.1226654052734375|139903.8740985|1.872261029413874|-2.57648374796007|-1.377786383728162|0.1186444461345673|0.08359260112047195|0.05613899603486061|0.04854844510555267|-0.006287813186645508|-0.05806590616703033|XArbitraryZVertical|-0.4918943908333706|0.5822682671697783|-0.5352724093795354|0.3639877412957918|-0.1027179658412933|0.9814313054084778|0.1619928479194641|0|0|0|-1|-1|3
2021-04-22 21:38:49.574 +0100|139903.91401925|-0.060089111328125|0.9514312744140625|0.10955810546875|139903.89405925|1.873982806942808|-2.573713344053145|-1.382779028102147|0.2296493500471115|0.03971819207072258|0.1069346219301224|0.03581678867340088|-0.0115666389465332|-0.04655313491821289|XArbitraryZVertical|-0.4901052309620308|0.5818802148910021|-0.5363762000537111|0.3653943436468908|-0.1005300879478455|0.982376754283905|0.1575754433870316|0|0|0|-1|-1|3
2021-04-22 21:38:49.594 +0100|139903.93398025|-0.0636749267578125|0.9143524169921875|0.095001220703125|139903.91401925|1.876203904769489|-2.571001441928305|-1.389185916134744|0.2351525574922562|0.008253743872046471|0.1333594769239426|0.03655035793781281|-0.01195037364959717|-0.02854441106319427|XArbitraryZVertical|-0.4880300832073161|0.5812297286352851|-0.5375690869808485|0.3674484926872402|-0.09755579382181168|0.9835541248321533|0.1520027220249176|0|0|0|-1|-1|3
2021-04-22 21:38:49.614 +0100|139903.95394025|-0.070770263671875|0.931732177734375|0.100555419921875|139903.93398025|1.873632671829422|-2.573774381173789|-1.395109161521877|0.117300845682621|-0.02708161063492298|0.178341880440712|0.031405970454216|-0.07132232189178467|-0.05505730211734772|XArbitraryZVertical|-0.4861822120658015|0.5807799866710669|-0.5382283906530325|0.3696372484817181|-0.09399830549955368|0.9846066832542419|0.1473570764064789|0|0|0|-1|-1|3
2021-04-22 21:38:49.634 +0100|139903.97390025|-0.077178955078125|0.937774658203125|0.0826416015625|139903.95394025|1.853942647866527|-2.593886701305733|-1.398972298881874|-0.03938901424407959|-0.03789505735039711|0.2418875694274902|0.0200948491692543|-0.06071382761001587|-0.04643751680850983|XArbitraryZVertical|-0.4846687745874778|0.5814474685113733|-0.5375688881913055|0.3715304293363501|-0.08903485536575317|0.9852745532989502|0.145969957113266|0|0|0|-1|-1|3
2021-04-22 21:38:49.654 +0100|139903.99386125|-0.0520477294921875|0.98236083984375|0.1356048583984375|139903.97390025|1.824613823596534|-2.623115982884415|-1.401519976449034|0.003661899128928781|0.007192207965999842|0.2509662806987762|0.005330495536327362|-0.049518883228302|-0.06133840978145599|XArbitraryZVertical|-0.483194123654752|0.58282764276506|-0.5363534012699669|0.3730423683116417|-0.08348681777715683|0.9857069253921509|0.1463292390108109|0|0|0|-1|-1|3
2021-04-22 21:38:49.674 +0100|139904.01382125|-0.0565032958984375|0.9968109130859375|0.1441802978515625|139903.99386125|1.799326426089995|-2.647682380287302|-1.404568525488298|0.006022990681231022|0.01734668016433716|0.2286579608917236|0.02213606983423233|-0.005975961685180664|-0.01467718183994293|XArbitraryZVertical|-0.481472138588226|0.5839767343408981|-0.5356558205678843|0.3744711688459325|-0.0784418061375618|0.9862159490585327|0.1456884890794754|0|0|0|-1|-1|3
2021-04-22 21:38:49.694 +0100|139904.03378125|-0.0762481689453125|1.022552490234375|0.156341552734375|139904.01382125|1.779385998429278|-2.667414909818141|-1.407718956954513|0.02011422626674175|-0.02505787461996078|0.1865828335285187|0.02292417734861374|0.002495288848876953|-0.002904161810874939|XArbitraryZVertical|-0.4799772980886349|0.5846741373750443|-0.5351936769188534|0.3759599955681579|-0.07413345575332642|0.9867323040962219|0.1444441080093384|0|0|0|-1|-1|3
2021-04-22 21:38:49.714 +0100|139904.05374225|-0.08197021484375|1.040939331054688|0.147735595703125|139904.03378125|1.765233667514649|-2.682020231283006|-1.410204090573634|0.007674234453588724|-0.04127604514360428|0.1292393058538437|-0.002437353134155273|0.02835512161254883|0.008801698684692383|XArbitraryZVertical|-0.4790008615820926|0.5849909547424508|-0.5347953135238551|0.3772768935556796|-0.070927694439888|0.987132728099823|0.1433124840259552|0|0|0|-1|-1|3
2021-04-22 21:38:49.734 +0100|139904.07370225|-0.0905609130859375|1.058273315429688|0.1324462890625|139904.05374225|1.755291677643334|-2.69262722711123|-1.411273665622209|-0.06438349932432175|-0.0458776131272316|0.0799708217382431|-0.01140853017568588|0.05201876163482666|0.00789545476436615|XArbitraryZVertical|-0.4786085785809732|0.5852232416272746|-0.5343258518423986|0.3780786864912717|-0.06894500553607941|0.9873031973838806|0.1431048214435577|0|0|0|-1|-1|3
2021-04-22 21:38:49.754 +0100|139904.09366325|-0.1009521484375|1.051315307617188|0.1278839111328125|139904.07370225|1.745984878695278|-2.702663303696868|-1.411441784207488|-0.03368636965751648|-0.03978424891829491|0.05513427779078484|-0.01999820023775101|0.06546580791473389|-0.009333357214927673|XArbitraryZVertical|-0.4785143797466697|0.5855290750486377|-0.5337159078054586|0.378585850814555|-0.06743542850017548|0.98732990026474|0.1436406224966049|0|0|0|-1|-1|3
2021-04-22 21:38:49.774 +0100|139904.11362325|-0.104736328125|1.020858764648438|0.1364288330078125|139904.09366325|1.739344031403049|-2.709965393265773|-1.412231962850489|0.05665246397256851|-0.03159183263778687|0.04138268530368805|-0.03297238796949387|0.06976556777954102|-0.01280499994754791|XArbitraryZVertical|-0.4782847848332222|0.5856223011367985|-0.5333738842097751|0.3792130938769206|-0.06605793535709381|0.9874550104141235|0.143419623374939|0|0|0|-1|-1|3
2021-04-22 21:38:49.794 +0100|139904.13358325|-0.0894317626953125|0.983123779296875|0.1219024658203125|139904.11362325|1.73988392506783|-2.709964007125928|-1.414533458774941|0.1576151698827744|-0.01961506530642509|0.05179369449615479|-0.03813401609659195|0.04332774877548218|-0.004302248358726501|XArbitraryZVertical|-0.4777637125392289|0.5851665736334156|-0.5337009768110125|0.3801124152531971|-0.06510776281356812|0.987815797328949|0.1413561701774597|0|0|0|-1|-1|3
2021-04-22 21:38:49.814 +0100|139904.15354425|-0.0693206787109375|0.9439849853515625|0.0947418212890625|139904.13358325|1.74433989579686|-2.705825500858092|-1.418324032846302|0.2211252301931381|-0.006531380116939545|0.06325780600309372|-0.03250870108604431|0.001195073127746582|-0.01044666767120361|XArbitraryZVertical|-0.4768408681994686|0.5843520335549787|-0.5345426893474778|0.3813393636020683|-0.06411073356866837|0.9883986115455627|0.1376890242099762|0|0|0|-1|-1|3
2021-04-22 21:38:49.834 +0100|139904.17350425|-0.0726165771484375|0.938629150390625|0.0991363525390625|139904.15354425|1.752954908427014|-2.697558111373648|-1.422817995024502|0.2091132551431656|-0.02890949696302414|0.04777791351079941|-0.01043865829706192|-0.03408432006835938|-0.03565476834774017|XArbitraryZVertical|-0.4758082264891296|0.583247638000586|-0.5356875481663463|0.3827110974626669|-0.06333839893341064|0.9890711903572083|0.1331425458192825|0|0|0|-1|-1|3
2021-04-22 21:38:49.854 +0100|139904.19346425|-0.086944580078125|0.982574462890625|0.1160736083984375|139904.17350425|1.760331874880656|-2.690907371008011|-1.426242617517628|0.1208343803882599|-0.0324736051261425|0.05737363547086716|-0.005781732499599457|-0.06073719263076782|-0.03240884840488434|XArbitraryZVertical|-0.4751517526054224|0.5822926046697092|-0.5364705512076773|0.3838822247582396|-0.06274628639221191|0.9895703196525574|0.129667729139328|0|0|0|-1|-1|3
2021-04-22 21:38:49.874 +0100|139904.21342525|-0.09210205078125|0.9798126220703125|0.1349029541015625|139904.19346425|1.766834596154895|-2.684686462055829|-1.428440303488002|0.1277435719966888|-0.007267691195011139|0.02967259101569653|-0.02268984168767929|-0.01261991262435913|-0.01236416399478912|XArbitraryZVertical|-0.4747144805000775|0.5816423259024709|-0.5370883401817691|0.3845446827723001|-0.06259229779243469|0.9898844957351685|0.1273232698440552|0|0|0|-1|-1|3
2021-04-22 21:38:49.894 +0100|139904.23338525|-0.077484130859375|0.97650146484375|0.1307525634765625|139904.21342525|1.777287106035498|-2.674044416914004|-1.430965626237359|0.1549856662750244|0.03368304297327995|0.01404418610036373|-0.02881329506635666|-0.01070159673690796|0.00319121778011322|XArbitraryZVertical|-0.4741297141874379|0.5808698007144433|-0.5380417052857674|0.3851005741837219|-0.06281653046607971|0.9902396202087402|0.1244174242019653|0|0|0|-1|-1|3
2021-04-22 21:38:49.914 +0100|139904.25334525|-0.075469970703125|0.96331787109375|0.1299896240234375|139904.23338525|1.788682855010078|-2.661840588808698|-1.433761190191062|0.142159640789032|0.046040378510952|0.01035552937537432|-0.01653837412595749|-0.01270473003387451|0.006178967654705048|XArbitraryZVertical|-0.4733012850557817|0.5801539641706126|-0.5392131656209082|0.3855599700081174|-0.06305228173732758|0.9906253814697266|0.1211854591965675|0|0|0|-1|-1|3
2021-04-22 21:38:49.934 +0100|139904.27330625|-0.06866455078125|0.955078125|0.1139984130859375|139904.25334525|1.800052993269938|-2.649488844636083|-1.43647362685094|0.1369884610176086|0.05804803967475891|-0.004665586166083813|-0.01247056573629379|-0.02561432123184204|0.01025056093931198|XArbitraryZVertical|-0.4724339650623779|0.5795005344588483|-0.5403916009337447|0.3859563936914728|-0.06327482312917709|0.9909922480583191|0.1180294379591942|0|0|0|-1|-1|3
2021-04-22 21:38:49.953 +0100|139904.29326625|-0.070098876953125|0.944915771484375|0.115814208984375|139904.27330625|1.813436825200921|-2.634842479220639|-1.438387666861941|0.1002145484089851|0.07586884498596191|-0.02097744680941105|-0.005398474633693695|-0.03429174423217773|0.001954421401023865|XArbitraryZVertical|-0.4717586032477277|0.5789293555615772|-0.5415755867641517|0.3859799903333075|-0.06407558917999268|0.99124675989151|0.1154307574033737|0|0|0|-1|-1|3
2021-04-22 21:38:49.973 +0100|139904.31322725|-0.0743255615234375|0.9820098876953125|0.1259002685546875|139904.29326625|1.826343165742223|-2.620478359889286|-1.438981180868555|0.05176183208823204|0.07804358750581741|-0.04711895063519478|-0.004924505949020386|-0.044883131980896|-0.004431605339050293|XArbitraryZVertical|-0.4714160482040372|0.5785857410216854|-0.5425667014482032|0.385521709373812|-0.06543457508087158|0.9913249611854553|0.1139890998601913|0|0|0|-1|-1|3
2021-04-22 21:38:49.994 +0100|139904.33318725|-0.064056396484375|1.006973266601562|0.1242218017578125|139904.31322725|1.836116308902578|-2.608982264662129|-1.438293869506583|0.00812871940433979|0.1032222807407379|-0.06026360392570496|-0.007941655814647675|-0.02474254369735718|0.009779445827007294|XArbitraryZVertical|-0.471336922198147|0.5785754904563717|-0.5432891868574489|0.3846152856457965|-0.06708654761314392|0.9912343621253967|0.1138161867856979|0|0|0|-1|-1|3
2021-04-22 21:38:50.013 +0100|139904.35314725|-0.0488739013671875|1.000595092773438|0.1322479248046875|139904.33318725|1.845502993674816|-2.59743518282283|-1.437562174759771|0.04134822636842728|0.1181011497974396|-0.06583023071289062|0.0005332604050636292|0.01467621326446533|0.01432107388973236|XArbitraryZVertical|-0.4711427908284864|0.5786634109624604|-0.5440973863130102|0.3835768691585548|-0.06877132505178452|0.9911374449729919|0.1136537417769432|0|0|0|-1|-1|3
2021-04-22 21:38:50.033 +0100|139904.37310825|-0.047088623046875|0.979583740234375|0.130615234375|139904.35314725|1.859188449468588|-2.581499916691731|-1.437804340428428|0.07950484752655029|0.1189163401722908|-0.06991951167583466|0.01795504242181778|0.0105394721031189|0.01557373255491257|XArbitraryZVertical|-0.4706857080944223|0.5784677969875511|-0.5452627916121984|0.382777355041825|-0.07044605910778046|0.9911695718765259|0.1123400554060936|0|0|0|-1|-1|3
2021-04-22 21:38:50.053 +0100|139904.39306825|-0.0449981689453125|0.9888153076171875|0.122161865234375|139904.37310825|1.875791222710078|-2.562827073625852|-1.438445274762583|0.09839631617069244|0.09908127784729004|-0.07450166344642639|0.02648341655731201|-0.008298277854919434|0.02256679534912109|XArbitraryZVertical|-0.4701860339238063|0.5780675013585094|-0.5465702317238652|0.3821310871807358|-0.07218425720930099|0.9912543892860413|0.1104738861322403|0|0|0|-1|-1|3
2021-04-22 21:38:50.073 +0100|139904.41302825|-0.0403289794921875|0.98419189453125|0.1093292236328125|139904.39306825|1.890939293851116|-2.545867934046871|-1.438662260827516|0.06696129590272903|0.1015312224626541|-0.07593151181936264|0.02793624997138977|-0.005320906639099121|0.01223516464233398|XArbitraryZVertical|-0.469854326785793|0.5777240654225286|-0.5476934942221954|0.3814496787616417|-0.07392700016498566|0.9912829995155334|0.109056368470192|0|0|0|-1|-1|3
2021-04-22 21:38:50.093 +0100|139904.43298925|-0.042236328125|0.9991607666015625|0.1273651123046875|139904.41302825|1.90178714182675|-2.533278437355126|-1.438299185566674|0.02742208912968636|0.08122067898511887|-0.07698728144168854|0.03411718457937241|-0.005013525485992432|0.003815308213233948|XArbitraryZVertical|-0.469653694694325|0.5776085553006383|-0.5485364382976379|0.3806596354632773|-0.07549980282783508|0.991235077381134|0.1084124743938446|0|0|0|-1|-1|3
2021-04-22 21:38:50.113 +0100|139904.45294925|-0.04754638671875|1.021453857421875|0.1353302001953125|139904.43298925|1.906419453138687|-2.527267287919481|-1.437091974540708|-0.05240661278367043|0.06420862674713135|-0.08256668597459793|0.03602150082588196|0.004347622394561768|0.01547026634216309|XArbitraryZVertical|-0.4697305873090807|0.5777717514143731|-0.5489135741282143|0.3797723381394971|-0.07683953642845154|0.9910748600959778|0.1089340448379517|0|0|0|-1|-1|3
2021-04-22 21:38:50.133 +0100|139904.47291025|-0.044921875|1.042739868164062|0.11895751953125|139904.45294925|1.905180263153971|-2.52737987409328|-1.434989700722935|-0.08347277343273163|0.06182269752025604|-0.08104131370782852|0.03109053522348404|0.02471053600311279|0.02631781995296478|XArbitraryZVertical|-0.4700793722301645|0.5782279589900505|-0.5488551820100038|0.3787292556157795|-0.07802730798721313|0.990792453289032|0.1106443777680397|0|0|0|-1|-1|3
2021-04-22 21:38:50.153 +0100|139904.49287025|-0.0358123779296875|1.025405883789062|0.117523193359375|139904.47291025|1.903470556160574|-2.527993573805988|-1.433251509645666|-0.04820884019136429|0.05601998791098595|-0.06966331601142883|0.03358553349971771|0.04708784818649292|0.01131270080804825|XArbitraryZVertical|-0.4703116596194592|0.5786681351148055|-0.5488126419314513|0.3778290755952171|-0.0789506733417511|0.9905556440353394|0.1120997369289398|0|0|0|-1|-1|3
2021-04-22 21:38:50.173 +0100|139904.51283025|-0.0380706787109375|1.028182983398438|0.1107635498046875|139904.49287025|1.90407934459976|-2.526660080492407|-1.432688755011601|0.01160998642444611|0.02635647542774677|-0.03883269801735878|0.04334945231676102|0.03668242692947388|0.004355296492576599|XArbitraryZVertical|-0.4703025131339585|0.5788269221321409|-0.548939548334073|0.3774127396186847|-0.0794219896197319|0.9904782772064209|0.112450122833252|0|0|0|-1|-1|3
2021-04-22 21:38:50.193 +0100|139904.53279125|-0.03857421875|1.033203125|0.1035308837890625|139904.51283025|1.903943220017416|-2.526563711920473|-1.433118097895984|0.05503171309828758|0.01347082294523716|-0.01701644062995911|0.04162027686834335|0.03860723972320557|0.001260772347450256|XArbitraryZVertical|-0.4700986952929964|0.5788396217810158|-0.5490429011180311|0.3774970524896483|-0.07918819785118103|0.9905372858047485|0.1120961830019951|0|0|0|-1|-1|3
2021-04-22 21:38:50.213 +0100|139904.55275125|-0.036865234375|1.009384155273438|0.0994873046875|139904.53279125|1.904500138271405|-2.525850243206376|-1.434357640695756|0.08423121273517609|0.0158245787024498|0.008383458480238914|0.03926697373390198|0.04690647125244141|-0.0007475614547729492|XArbitraryZVertical|-0.4696657252021992|0.578733831669081|-0.549263192388433|0.3778775729963391|-0.07855912297964096|0.9907066822052002|0.1110374853014946|0|0|0|-1|-1|3
2021-04-22 21:38:50.233 +0100|139904.57271125|-0.038116455078125|1.003341674804688|0.1200103759765625|139904.55275125|1.905682727036742|-2.524554003980213|-1.436043091045247|0.07281690090894699|0.008271161466836929|0.01651737466454506|0.04236546158790588|0.02391242980957031|-0.0110015869140625|XArbitraryZVertical|-0.4691099383176886|0.578551809499936|-0.5495572710481104|0.3784185506790881|-0.07773607969284058|0.9909344911575317|0.1095726639032364|0|0|0|-1|-1|3
2021-04-22 21:38:50.253 +0100|139904.59267225|-0.0319366455078125|1.0037841796875|0.1136016845703125|139904.57271125|1.901555135079299|-2.528669140030286|-1.437364324959045|0.002520135138183832|-0.007524153683334589|0.02307673916220665|0.03778880089521408|0.01171195507049561|0.00752653181552887|XArbitraryZVertical|-0.4686216884560924|0.578622748312942|-0.5495420617610738|0.3789368726674053|-0.07653167098760605|0.991111159324646|0.1088211461901665|0|0|0|-1|-1|3
2021-04-22 21:38:50.273 +0100|139904.61263225|-0.0259246826171875|0.992279052734375|0.10009765625|139904.59267225|1.89151888723741|-2.538971187008543|-1.437955948584936|-0.02438666298985481|-0.02155911922454834|0.03624092042446136|0.0395815372467041|0.01167917251586914|0.008813738822937012|XArbitraryZVertical|-0.4683569613654857|0.5789664339130282|-0.5491080124768395|0.3793681935601772|-0.0750742182135582|0.9911896586418152|0.10912074893713|0|0|0|-1|-1|3
2021-04-22 21:38:50.293 +0100|139904.63259225|-0.028045654296875|0.99114990234375|0.090484619140625|139904.61263225|1.881434140232454|-2.549741834082707|-1.438773558807103|0.008361696265637875|-0.05012434348464012|0.04694319143891335|0.04534971714019775|0.005162477493286133|-0.009015321731567383|XArbitraryZVertical|-0.4681313628057275|0.5792044992938765|-0.5486091689493517|0.3800042849264524|-0.07344193011522293|0.9912976622581482|0.1092496514320374|0|0|0|-1|-1|3
2021-04-22 21:38:50.313 +0100|139904.65255325|-0.0379180908203125|0.9918212890625|0.0905303955078125|139904.63259225|1.871918682752233|-2.560401569606889|-1.440074340122698|0.001657903427258134|-0.06278709322214127|0.05145147815346718|0.04387006163597107|-0.000943601131439209|-0.01780891418457031|XArbitraryZVertical|-0.4678834988200287|0.5792750163578454|-0.5481018558285256|0.3809330945244645|-0.07156557589769363|0.9914680123329163|0.1089490279555321|0|0|0|-1|-1|3
2021-04-22 21:38:50.333 +0100|139904.67251325|-0.0433349609375|1.006561279296875|0.0807037353515625|139904.65255325|1.861746582483752|-2.571849756011617|-1.441380701517215|0.02737599983811378|-0.06043189391493797|0.06444130837917328|0.03570961207151413|-0.003920495510101318|-0.0164935439825058|XArbitraryZVertical|-0.4676578970501974|0.5793373075595261|-0.5475462619531665|0.3819132823856144|-0.069615438580513|0.9916374683380127|0.108671247959137|0|0|0|-1|-1|3
2021-04-22 21:38:50.353 +0100|139904.69247425|-0.044769287109375|0.9994049072265625|0.100067138671875|139904.67251325|1.849958338089404|-2.58461915940869|-1.442782678926704|0.03363101929426193|-0.04237278923392296|0.06753306835889816|0.02349501103162766|0.015064537525177|-0.02435635030269623|XArbitraryZVertical|-0.4672934482003772|0.5795016445936408|-0.547015583298459|0.3828692415326525|-0.06748688966035843|0.9918174147605896|0.1083706468343735|0|0|0|-1|-1|3
2021-04-22 21:38:50.373 +0100|139904.71243425|-0.0514984130859375|1.012344360351562|0.118560791015625|139904.69247425|1.838792042017026|-2.596607425667927|-1.444543737000239|0.01410154066979885|-0.04402932524681091|0.0759502500295639|0.02239906787872314|0.007089734077453613|-0.01585090160369873|XArbitraryZVertical|-0.4667806126083355|0.5796159761085721|-0.5466145433807695|0.3838930631304733|-0.06527704000473022|0.9920406937599182|0.1076776385307312|0|0|0|-1|-1|3
2021-04-22 21:38:50.393 +0100|139904.73239425|-0.0412750244140625|1.000350952148438|0.1091156005859375|139904.71243425|1.824168463292667|-2.61199158860954|-1.445949528644773|0.01058115810155869|-0.03146655857563019|0.07401812821626663|0.01162316650152206|0.01580965518951416|0.009674921631813049|XArbitraryZVertical|-0.4663031856323376|0.5799090017801696|-0.5460482214334883|0.3848356702387175|-0.06290870904922485|0.9922167658805847|0.1074662208557129|0|0|0|-1|-1|3
2021-04-22 21:38:50.413 +0100|139904.75235525|-0.0463409423828125|0.9882354736328125|0.1139068603515625|139904.73239425|1.814145960506216|-2.622603024784763|-1.44799586475813|0.08505261689424515|-0.03716385737061501|0.07958856970071793|0.01743638888001442|0.01328319311141968|0.004277579486370087|XArbitraryZVertical|-0.465655314327703|0.5799540752106469|-0.545823014954708|0.3858701049012565|-0.06075689569115639|0.9924694895744324|0.1063631996512413|0|0|0|-1|-1|3
2021-04-22 21:38:50.432 +0100|139904.77231525|-0.0605316162109375|0.9849853515625|0.1085662841796875|139904.75235525|1.809044952975461|-2.628594199536893|-1.45088006679849|0.09004083275794983|-0.05233455449342728|0.07928986102342606|0.01586610451340675|0.0001013875007629395|0.01121627539396286|XArbitraryZVertical|-0.464914273883974|0.5796294225923462|-0.5458673350552675|0.3871865641010366|-0.05871358141303062|0.9928186535835266|0.104231096804142|0|0|0|-1|-1|3
2021-04-22 21:38:50.453 +0100|139904.79227525|-0.0582733154296875|0.98846435546875|0.1072998046875|139904.77231525|1.802816528561347|-2.635874705277945|-1.453589140234424|0.06268596649169922|-0.05194280296564102|0.09254644811153412|-0.00108984112739563|-0.01053392887115479|0.003974080085754395|XArbitraryZVertical|-0.4642552200709667|0.5793258684846254|-0.5458131286488987|0.3885058823899858|-0.05665017291903496|0.9931390881538391|0.1023027449846268|0|0|0|-1|-1|3
2021-04-22 21:38:50.473 +0100|139904.81223625|-0.053955078125|1.001907348632812|0.1191864013671875|139904.79227525|1.79026368069864|-2.649134848811614|-1.454975373002375|0.01387350633740425|-0.03086974285542965|0.09177546203136444|-0.007069356739521027|-0.005903720855712891|0.005634799599647522|XArbitraryZVertical|-0.4638070860609735|0.5794817432371948|-0.5454014223103929|0.3893859373492295|-0.05463800579309464|0.9933002591133118|0.1018322110176086|0|0|0|-1|-1|3
2021-04-22 21:38:50.492 +0100|139904.83219625|-0.0603790283203125|1.006942749023438|0.122833251953125|139904.81223625|1.774157406852133|-2.66585540404174|-1.455814987191873|0.00641951896250248|-0.04234056547284126|0.09682108461856842|-0.002112653106451035|0.0048941969871521|0.0120546743273735|XArbitraryZVertical|-0.4634382004026817|0.5798443255135609|-0.5448031563190442|0.3901220136998603|-0.05254511535167694|0.9933969378471375|0.1019888147711754|0|0|0|-1|-1|3
2021-04-22 21:38:50.512 +0100|139904.85215725|-0.0611419677734375|1.00640869140625|0.10540771484375|139904.83219625|1.75743579550741|-2.683461683637023|-1.456821188239722|0.01982615515589714|-0.05399567633867264|0.09959743916988373|-0.009348444640636444|0.0133545994758606|0.02017568051815033|XArbitraryZVertical|-0.4630753931969906|0.580139256374494|-0.5441624489054895|0.3910074584603836|-0.05029892921447754|0.9935118556022644|0.1020007506012917|0|0|0|-1|-1|3
2021-04-22 21:38:50.536 +0100|139904.87211725|-0.0579376220703125|0.9795379638671875|0.099029541015625|139904.85215725|1.742780594356791|-2.699087544663045|-1.457842214143732|0.01484819129109383|-0.05461501702666283|0.1040895655751228|-0.01216086000204086|0.01416981220245361|0.008737310767173767|XArbitraryZVertical|-0.4627640822990441|0.5803260037706456|-0.5435938035522413|0.3918889110445615|-0.04826472327113152|0.9936274886131287|0.1018577367067337|0|0|0|-1|-1|3
2021-04-22 21:38:50.552 +0100|139904.89207725|-0.054718017578125|0.974884033203125|0.10382080078125|139904.87211725|1.727718561561757|-2.715122446446068|-1.458337281933602|-0.02071927301585674|-0.05943134799599648|0.09766504913568497|-0.01102828234434128|-0.004089593887329102|-0.003614798188209534|XArbitraryZVertical|-0.4625996387334617|0.5805918437939505|-0.5429277673377251|0.3926119325447075|-0.04642180725932121|0.9936831593513489|0.1021706312894821|0|0|0|-1|-1|3
2021-04-22 21:38:50.572 +0100|139904.91203825|-0.0511322021484375|0.989715576171875|0.1006622314453125|139904.89207725|1.71036358273438|-2.733515601367136|-1.458131758157068|-0.05588370561599731|-0.05337223038077354|0.0917738676071167|-0.009980790317058563|-0.02175146341323853|0.0002438873052597046|XArbitraryZVertical|-0.462609780390849|0.5810245736141951|-0.5420445349034305|0.3931798287190579|-0.04461592063307762|0.993660032749176|0.1031947284936905|0|0|0|-1|-1|3
2021-04-22 21:38:50.592 +0100|139904.93199825|-0.0546875|1.0135498046875|0.09466552734375|139904.91203825|1.694002328662669|-2.750879241611309|-1.457316311578366|-0.0339101105928421|-0.06089848279953003|0.07448320090770721|-0.007563803344964981|-0.004660904407501221|-0.002440914511680603|XArbitraryZVertical|-0.462796174231374|0.5815256070561401|-0.5410895426528822|0.3935352328700431|-0.04312670975923538|0.9935680627822876|0.1047046631574631|0|0|0|-1|-1|3
2021-04-22 21:38:50.612 +0100|139904.95195825|-0.0525360107421875|1.001144409179688|0.0855255126953125|139904.93199825|1.683836970624179|-2.762164653509224|-1.457607390926018|0.03523640334606171|-0.06105614081025124|0.07582712918519974|-0.01218199357390404|0.01502037048339844|-0.00983835756778717|XArbitraryZVertical|-0.4628070541129324|0.5816074441189397|-0.5405366975112172|0.3941606240030632|-0.04183488711714745|0.9936009645462036|0.1049151793122292|0|0|0|-1|-1|3
2021-04-22 21:38:50.632 +0100|139904.97191925|-0.04730224609375|0.9851226806640625|0.0980377197265625|139904.95195825|1.676797653814762|-2.77041166272544|-1.458938071344042|0.04760502278804779|-0.06484246253967285|0.07703637331724167|-0.01365068182349205|0.01517605781555176|-0.01671339571475983|XArbitraryZVertical|-0.4626027256268376|0.58138667230661|-0.5402812737846026|0.3950751928465702|-0.04048827663064003|0.9937503933906555|0.1040234863758087|0|0|0|-1|-1|3
2021-04-22 21:38:50.652 +0100|139904.99187925|-0.04632568359375|0.9987335205078125|0.100189208984375|139904.97191925|1.668443376906515|-2.779915242327796|-1.45985091530338|-0.003989229910075665|-0.05824464187026024|0.07987131178379059|-0.01046090200543404|-0.008210420608520508|-0.009530685842037201|XArbitraryZVertical|-0.4624772861601401|0.5812848699377826|-0.539918325714831|0.3958671826506893|-0.03917671740055084|0.9938518404960632|0.1035546809434891|0|0|0|-1|-1|3
2021-04-22 21:38:50.672 +0100|139905.01184025|-0.0473480224609375|0.9916534423828125|0.0995330810546875|139904.99187925|1.65847143087848|-2.79102793201041|-1.46017974506301|0.006997075397521257|-0.06333101540803909|0.06358652561903|-0.008658438920974731|0.001931071281433105|-0.002208709716796875|XArbitraryZVertical|-0.4624828605953423|0.5813339245296003|-0.5393911102739257|0.3965071476081642|-0.03791217505931854|0.9938881993293762|0.1036790534853935|0|0|0|-1|-1|3
2021-04-22 21:38:50.692 +0100|139905.03180025|-0.0474090576171875|0.982666015625|0.0821685791015625|139905.01184025|1.653149404956791|-2.79760547828584|-1.461229368635352|0.05386331677436829|-0.06803511828184128|0.05449786782264709|-0.01050248369574547|-0.0006411075592041016|0.0008019059896469116|XArbitraryZVertical|-0.4624102575851999|0.5810746456013203|-0.5391421260341041|0.3973094213432357|-0.03687683492898941|0.9940035343170166|0.102941982448101|0|0|0|-1|-1|3
2021-04-22 21:38:50.712 +0100|139905.05176025|-0.041412353515625|0.9898529052734375|0.0916900634765625|139905.03180025|1.6528258283693|-2.799165636010265|-1.462531882164579|0.03946856781840324|-0.05876071006059647|0.02846884168684483|-0.01146304979920387|-0.007740378379821777|-0.01769207417964935|XArbitraryZVertical|-0.4623654561283592|0.5806113393270106|-0.5391151101215274|0.3980751914421802|-0.03628246858716011|0.9941451549530029|0.1017826870083809|0|0|0|-1|-1|3
2021-04-22 21:38:50.732 +0100|139905.07172125|-0.04718017578125|1.00140380859375|0.09442138671875|139905.05176025|1.653192750103437|-2.799903698753695|-1.463186202042046|-0.004972535185515881|-0.05691226199269295|0.02338335663080215|-0.005760159343481064|-0.009397983551025391|-0.01119888573884964|XArbitraryZVertical|-0.4624845397786517|0.58026318618233|-0.5390063811550629|0.3985911568345114|-0.03598868846893311|0.9942156076431274|0.1011946275830269|0|0|0|-1|-1|3
2021-04-22 21:38:50.752 +0100|139905.09168125|-0.045166015625|1.008270263671875|0.0933380126953125|139905.07172125|1.650438391359846|-2.803777746624384|-1.463154200411044|0.01082372106611729|-0.05977686494588852|0.02065850049257278|-0.01096364855766296|0.004338383674621582|-0.01257312297821045|XArbitraryZVertical|-0.4627383341504852|0.5801335412399721|-0.5386528588165891|0.3989630530646396|-0.03560695424675941|0.9942121505737305|0.1013633832335472|0|0|0|-1|-1|3
2021-04-22 21:38:50.772 +0100|139905.11164125|-0.045318603515625|1.0048828125|0.0866241455078125|139905.09168125|1.64951246080252|-2.805796907225449|-1.463481977406781|0.02678602561354637|-0.05619528517127037|0.02045503444969654|-0.0119774341583252|0.01704436540603638|-0.004296541213989258|XArbitraryZVertical|-0.4629203026562754|0.5798869532769804|-0.5384385716156812|0.3993995634218742|-0.03529510274529457|0.9942473173141479|0.1011281684041023|0|0|0|-1|-1|3
2021-04-22 21:38:50.792 +0100|139905.13160225|-0.0438690185546875|1.004180908203125|0.08697509765625|139905.11164125|1.650693392499891|-2.805877392864735|-1.46439617503858|0.0309770442545414|-0.06417641043663025|0.02646481245756149|-0.007508814334869385|0.008554577827453613|-0.01097953319549561|XArbitraryZVertical|-0.4630243937761435|0.5794351478860776|-0.538373947994736|0.4000213278951931|-0.03498770669102669|0.9943448305130005|0.1002733632922173|0|0|0|-1|-1|3
2021-04-22 21:38:50.812 +0100|139905.15156225|-0.03607177734375|0.9969940185546875|0.09136962890625|139905.13160225|1.651853079896629|-2.805857415942599|-1.465349567627238|0.03809535503387451|-0.05669910460710526|0.01305375527590513|-0.009895112365484238|0.0137331485748291|-0.01501013338565826|XArbitraryZVertical|-0.4630838711183303|0.5790000326467961|-0.5383440742866883|0.4006219930191427|-0.03467662259936333|0.9944456219673157|0.09937541931867599|0|0|0|-1|-1|3
2021-04-22 21:38:50.832 +0100|139905.17152225|-0.03375244140625|0.9812774658203125|0.083984375|139905.15156225|1.65433587451365|-2.804484570309759|-1.466249211655084|0.03591036796569824|-0.06104734912514687|0.009709358215332031|-0.002180516719818115|0.004910945892333984|-0.007146477699279785|XArbitraryZVertical|-0.4631765477574301|0.5785412537190919|-0.5383506796646774|0.4011685974075894|-0.03451765328645706|0.9945399165153503|0.09848499298095703|0|0|0|-1|-1|3
2021-04-22 21:38:50.852 +0100|139905.19148325|-0.0335693359375|0.9914398193359375|0.0860137939453125|139905.17152225|1.657616470702145|-2.802445098141542|-1.466877399421802|0.02412614412605762|-0.05817380174994469|0.007368971593677998|0.0004517771303653717|-0.01024544239044189|-0.0130012109875679|XArbitraryZVertical|-0.4633970762889819|0.5780788960929835|-0.5382941052923065|0.4016559236915649|-0.03451020270586014|0.9946053028106689|0.09782411903142929|0|0|0|-1|-1|3
2021-04-22 21:38:50.871 +0100|139905.21144325|-0.0266265869140625|1.000137329101562|0.08990478515625|139905.19148325|1.661540431314053|-2.7997092866734|-1.467297053868114|0.01286288723349571|-0.06286527961492538|-0.0141122629866004|0.001479510217905045|-0.005802810192108154|-0.01391661912202835|XArbitraryZVertical|-0.4636745873737338|0.5776450284213023|-0.5382258502159398|0.4020511009434993|-0.03463765978813171|0.9946487545967102|0.09733580052852631|0|0|0|-1|-1|3
2021-04-22 21:38:50.891 +0100|139905.23140425|-0.019317626953125|0.99420166015625|0.0889739990234375|139905.21144325|1.666232496052713|-2.796294367112909|-1.467632434226214|0.01219539903104305|-0.06516177952289581|-0.005924462340772152|0.006627649068832397|0.003272175788879395|-0.005824685096740723|XArbitraryZVertical|-0.4640141165924546|0.5771852315423579|-0.5381426942777793|0.4024309594762183|-0.03485720232129097|0.9946833252906799|0.09690378606319427|0|0|0|-1|-1|3
2021-04-22 21:38:50.912 +0100|139905.25136425|-0.0183258056640625|0.9896087646484375|0.092132568359375|139905.23140425|1.66932051394993|-2.794608233904181|-1.468206034380931|0.03316672518849373|-0.07457605004310608|0.00291483523324132|0.01382964849472046|0.0001767873764038086|-0.00590062141418457|XArbitraryZVertical|-0.4642865009161626|0.5767080909807523|-0.5380287199678235|0.4029529149250284|-0.03482653200626373|0.994742214679718|0.09630835056304932|0|0|0|-1|-1|3
2021-04-22 21:38:50.932 +0100|139905.27132425|-0.0153656005859375|0.98956298828125|0.09033203125|139905.25136425|1.672684692021483|-2.792741478583062|-1.469273660108892|0.05654675140976906|-0.0731518417596817|0.003029705956578255|0.01529490575194359|-0.006050646305084229|-0.006685361266136169|XArbitraryZVertical|-0.4644464985701535|0.5761187765479299|-0.5379997980332621|0.4036497520772043|-0.03464384377002716|0.9948509931564331|0.09524679183959961|0|0|0|-1|-1|3
2021-04-22 21:38:50.952 +0100|139905.29128525|-0.021026611328125|0.991546630859375|0.0916748046875|139905.27132425|1.676906580574912|-2.790131826592037|-1.470756295144937|0.08680444210767746|-0.08701876550912857|0.009349032305181026|0.01747661456465721|-0.005513191223144531|0.0008182674646377563|XArbitraryZVertical|-0.4645321371413357|0.575408585241344|-0.5380509818052275|0.4044950063524998|-0.03438414633274078|0.9950001835823059|0.09377029538154602|0|0|0|-1|-1|3
2021-04-22 21:38:50.971 +0100|139905.31124525|-0.0267791748046875|0.985931396484375|0.08135986328125|139905.29128525|1.681152263096497|-2.787627235974246|-1.472686599726896|0.0988699197769165|-0.08456584066152573|0.01041722670197487|0.01413056626915932|-0.002896726131439209|0.00023602694272995|XArbitraryZVertical|-0.4645204692251917|0.5745964121804511|-0.5381585480634302|0.4055183604247847|-0.03395253419876099|0.9951910972595215|0.09188060462474823|0|0|0|-1|-1|3
2021-04-22 21:38:50.991 +0100|139905.33120525|-0.03387451171875|0.99664306640625|0.098480224609375|139905.31124525|1.682116190268774|-2.788242209580123|-1.474182719911893|0.05126753449440002|-0.07733141630887985|0.00693168118596077|0.006662186235189438|-0.005864858627319336|-0.009970180690288544|XArbitraryZVertical|-0.4645289814518777|0.5739908881537709|-0.5381179992391929|0.4064190751227006|-0.03338111937046051|0.9953365325927734|0.09050542861223221|0|0|0|-1|-1|3
2021-04-22 21:38:51.011 +0100|139905.35116625|-0.0353546142578125|1.006668090820312|0.0902862548828125|139905.33120525|1.679195888858785|-2.792634611683336|-1.475126886596204|0.01271270122379065|-0.06940605491399765|0.02568521723151207|0.0003893338143825531|-0.005757033824920654|0.00666547566652298|XArbitraryZVertical|-0.4645990994748543|0.5736134700624907|-0.5378801617328294|0.407186063019114|-0.03266245499253273|0.9954271912574768|0.08976947516202927|0|0|0|-1|-1|3
2021-04-22 21:38:51.031 +0100|139905.37112625|-0.0312957763671875|0.9931640625|0.09405517578125|139905.35116625|1.671263804927024|-2.801842699304682|-1.475524256182777|0.01778470911085606|-0.06329096108675003|0.03163978084921837|-0.003820750862360001|0.0122714638710022|0.001462347805500031|XArbitraryZVertical|-0.4646850776219809|0.5735105312103549|-0.5374369889594599|0.4078175954588829|-0.03170252591371536|0.9954650402069092|0.0896930992603302|0|0|0|-1|-1|3
2021-04-22 21:38:51.051 +0100|139905.39108725|-0.0321197509765625|0.9954833984375|0.0914459228515625|139905.37112625|1.662636197191338|-2.811676298442734|-1.4762235213058|0.01217669062316418|-0.0553218238055706|0.03807033970952034|-0.001726236194372177|-0.001299083232879639|0.002548210322856903|XArbitraryZVertical|-0.464652352659056|0.5733829182695055|-0.5370553264589261|0.4085362115273938|-0.03059267066419125|0.9955313205718994|0.08933956176042557|0|0|0|-1|-1|3
2021-04-22 21:38:51.071 +0100|139905.41104725|-0.0328216552734375|1.001983642578125|0.0966949462890625|139905.39108725|1.654918386532676|-2.820412921148722|-1.476699606272536|0.005297329742461443|-0.05377772077918053|0.03681261464953423|-0.002275675535202026|0.000166773796081543|0.001130819320678711|XArbitraryZVertical|-0.4646491924845431|0.573304955457127|-0.5367015020796837|0.4091139227423545|-0.02966175973415375|0.9955761432647705|0.08915489166975021|0|0|0|-1|-1|3
2021-04-22 21:38:51.091 +0100|139905.43100725|-0.0387725830078125|0.9870758056640625|0.0970611572265625|139905.41104725|1.648430578940633|-2.827895076750944|-1.476976371558083|-0.001698062289506197|-0.04788137599825859|0.03182602301239967|-0.004249066114425659|-0.0005915164947509766|0.01099932193756104|XArbitraryZVertical|-0.4647181241633317|0.573230805976216|-0.5363487523366072|0.4096019289477912|-0.02890908531844616|0.9956021308898926|0.08911298215389252|0|0|0|-1|-1|3
2021-04-22 21:38:51.111 +0100|139905.45096825|-0.039947509765625|0.9999237060546875|0.07891845703125|139905.43100725|1.646034410207722|-2.831482069634842|-1.477522547926608|0.007445601746439934|-0.05209146440029144|0.02108016796410084|-0.005711320787668228|-0.001725852489471436|0.005630619823932648|XArbitraryZVertical|-0.4648386695206252|0.5729522710806811|-0.5361208730361618|0.410152850187113|-0.02842341177165508|0.9956531524658203|0.08869858831167221|0|0|0|-1|-1|3
2021-04-22 21:38:51.131 +0100|139905.47092825|-0.0381622314453125|1.003677368164062|0.09039306640625|139905.45096825|1.641268637736352|-2.836961904514711|-1.476943700524042|-0.04293569549918175|-0.03593795001506805|0.01367276348173618|-0.01557743363082409|0.001410305500030518|-0.0171055868268013|XArbitraryZVertical|-0.4651050744167024|0.5730426267568246|-0.5357020885991457|0.4102716042694592|-0.02810928411781788|0.995599091053009|0.08940116316080093|0|0|0|-1|-1|3
2021-04-22 21:38:51.151 +0100|139905.49088825|-0.0331878662109375|0.9951934814453125|0.071441650390625|139905.47092825|1.637080424594946|-2.841827516110187|-1.476485851454287|-0.002513755112886429|-0.03100322186946869|0.01552312634885311|-0.00911828875541687|0.005405426025390625|0.003516912460327148|XArbitraryZVertical|-0.4653364908232391|0.5731042536392691|-0.5353323584674776|0.4104057671085723|-0.02780877985060215|0.9955560564994812|0.08997306972742081|0|0|0|-1|-1|3
2021-04-22 21:38:51.171 +0100|139905.51084925|-0.0332183837890625|0.979522705078125|0.0720672607421875|139905.49088825|1.636711133133401|-2.842723007563958|-1.47665762807228|0.03128154203295708|-0.02525505423545837|0.005609421525150537|-0.006624817848205566|0.004687368869781494|-0.01566183567047119|XArbitraryZVertical|-0.4654221701223347|0.5729740754201933|-0.5352363908992142|0.4106154543350946|-0.0276777446269989|0.9955722093582153|0.08983417600393295|0|0|0|-1|-1|3
2021-04-22 21:38:51.191 +0100|139905.53080925|-0.0337371826171875|0.9879150390625|0.0770111083984375|139905.51084925|1.639332645414173|-2.840580218197689|-1.47721723740254|0.02471420355141163|-0.01509168557822704|-0.00307115213945508|-0.005376873537898064|-0.01478952169418335|-0.01630616933107376|XArbitraryZVertical|-0.4654423709018021|0.572699476302484|-0.5353158388217263|0.4108719941905109|-0.02770499512553215|0.9956246614456177|0.08924258500337601|0|0|0|-1|-1|3
2021-04-22 21:38:51.211 +0100|139905.55076925|-0.0332794189453125|0.981292724609375|0.084136962890625|139905.53080925|1.645778833859363|-2.834428135063278|-1.477441826695068|0.009037639945745468|-0.01398684643208981|-0.01516802795231342|-0.005627904087305069|-0.008249044418334961|-0.01349639147520065|XArbitraryZVertical|-0.4655775190637221|0.57242207357567|-0.5354711082337601|0.4109032894840292|-0.02818639390170574|0.9956456422805786|0.08885890990495682|0|0|0|-1|-1|3
2021-04-22 21:38:51.231 +0100|139905.57073025|-0.03936767578125|0.9872589111328125|0.0835418701171875|139905.55076925|1.651747939009251|-2.828684486167527|-1.477072544414805|-0.01959338970482349|-0.009575960226356983|-0.02631824091076851|-0.003509789705276489|-0.01268553733825684|-0.004267215728759766|XArbitraryZVertical|-0.4658524426700322|0.5722793747702754|-0.5355048475012265|0.4107463509223177|-0.02880915254354477|0.9956111311912537|0.08904436230659485|0|0|0|-1|-1|3
2021-04-22 21:38:51.251 +0100|139905.59069025|-0.0365753173828125|0.992523193359375|0.0745086669921875|139905.57073025|1.659013811418694|-2.821651991858564|-1.476592708966393|-0.01844949461519718|-0.01674119383096695|-0.03907060995697975|-0.007373031228780746|-0.007971405982971191|-0.004911668598651886|XArbitraryZVertical|-0.4661845565298207|0.572117124545914|-0.5355517604669298|0.4105342484791846|-0.02958457171916962|0.9955661296844482|0.08929208666086197|0|0|0|-1|-1|3
2021-04-22 21:38:51.271 +0100|139905.61065125|-0.0348663330078125|0.98846435546875|0.0782012939453125|139905.59069025|1.66730111495409|-2.813655329112637|-1.476156157195314|-0.03162353858351707|-0.01251784712076187|-0.04009450599551201|-0.007633361965417862|-0.00449681282043457|-0.01030360907316208|XArbitraryZVertical|-0.4665378886769435|0.5719048655958848|-0.5356260317616796|0.410331832295102|-0.030438132584095|0.9955249428749084|0.08946555107831955|0|0|0|-1|-1|3
2021-04-22 21:38:51.291 +0100|139905.63061125|-0.03472900390625|1.008071899414062|0.0808563232421875|139905.61065125|1.67470817496704|-2.806656171414456|-1.475650000495461|-0.02384113147854805|-0.02460486814379692|-0.03348737955093384|-0.003638148307800293|-0.007668614387512207|-0.01492774486541748|XArbitraryZVertical|-0.4669263877702301|0.5717014870822271|-0.5356369427577594|0.4101590085826554|-0.03122901543974876|0.995477020740509|0.08972568064928055|0|0|0|-1|-1|3
2021-04-22 21:38:51.311 +0100|139905.65057125|-0.032958984375|1.003326416015625|0.08392333984375|139905.63061125|1.681300795246391|-2.800552013732251|-1.475310609329586|0.01037993840873241|-0.0214698500931263|-0.03515753895044327|-0.004183147102594376|0.008477091789245605|-0.008600227534770966|XArbitraryZVertical|-0.4672734612003071|0.5714734330208533|-0.5356423683975433|0.410074578471836|-0.03188947215676308|0.9954447150230408|0.08985274285078049|0|0|0|-1|-1|3
2021-04-22 21:38:51.331 +0100|139905.67053225|-0.029266357421875|0.999420166015625|0.0892333984375|139905.65057125|1.691741092190161|-2.790650594059965|-1.475662851591768|0.02815955132246017|-0.02852339297533035|-0.0367438942193985|-0.0006080009043216705|0.009969472885131836|-0.008713714778423309|XArbitraryZVertical|-0.467500933238337|0.5710030286042266|-0.5358855536942539|0.4101528438264417|-0.0326569601893425|0.9954782128334045|0.08920316398143768|0|0|0|-1|-1|3
2021-04-22 21:38:51.351 +0100|139905.69049225|-0.02923583984375|0.9915313720703125|0.093994140625|139905.67053225|1.703231841715309|-2.779748666936733|-1.475810088974568|0.006194215267896652|-0.02679579891264439|-0.04466954991221428|0.004796624183654785|0.005209922790527344|0.002084732055664062|XArbitraryZVertical|-0.4678155471372085|0.5705268408838993|-0.5361070441512383|0.4101673019423959|-0.03357550874352455|0.9954922199249268|0.08870452642440796|0|0|0|-1|-1|3
2021-04-22 21:38:51.371 +0100|139905.71045225|-0.0303802490234375|0.99609375|0.0903167724609375|139905.69049225|1.714423409433306|-2.76906102965219|-1.475584333308998|-0.01256755460053682|-0.02615935727953911|-0.06207223981618881|0.005199220031499863|0.00138622522354126|0.002436883747577667|XArbitraryZVertical|-0.4682079765309364|0.5701373764923187|-0.5362697670597518|0.4100484233118353|-0.03460370004177094|0.9954707622528076|0.08855067193508148|0|0|0|-1|-1|3
2021-04-22 21:38:51.391 +0100|139905.73041325|-0.0289154052734375|0.991851806640625|0.0800323486328125|139905.71045225|1.725409626913534|-2.758591899364697|-1.475186161895575|-0.01010061800479889|-0.02017603255808353|-0.05127507820725441|0.005158275365829468|-0.003885984420776367|0.004436016082763672|XArbitraryZVertical|-0.4686491034299106|0.5697747332840137|-0.5363943438690955|0.4098854960939722|-0.03567665815353394|0.9954328536987305|0.08855045586824417|0|0|0|-1|-1|3
2021-04-22 21:38:51.411 +0100|139905.75037325|-0.03314208984375|1.005172729492188|0.0797119140625|139905.73041325|1.734500745614926|-2.750112825258014|-1.474926093433327|0.001427689800038934|-0.03437222540378571|-0.03471704944968224|0.007501482963562012|-0.001328229904174805|-0.008985161781311035|XArbitraryZVertical|-0.4690414143792855|0.5694221641970523|-0.536470400470257|0.4098270251137617|-0.03652448579668999|0.9954079389572144|0.08848290145397186|0|0|0|-1|-1|3
2021-04-22 21:38:51.431 +0100|139905.77033325|-0.0311737060546875|0.9996337890625|0.08428955078125|139905.75037325|1.737248393001979|-2.748004152978196|-1.47452415471012|-0.02823066897690296|-0.02194288186728954|-0.02076324261724949|0.002516329288482666|0.005744636058807373|-0.0111396312713623|XArbitraryZVertical|-0.4693778797990047|0.5692735037778001|-0.5363279452309988|0.4098348601742703|-0.03686469420790672|0.9953694343566895|0.08877583593130112|0|0|0|-1|-1|3
2021-04-22 21:38:51.451 +0100|139905.79029425|-0.02862548828125|1.01055908203125|0.0900115966796875|139905.77033325|1.736452405059088|-2.74923517761547|-1.47388562827106|-0.02420731633901596|-0.02215060777962208|-0.0110482070595026|0.003687560558319092|0.006126642227172852|-0.01071929931640625|XArbitraryZVertical|-0.4696718208425301|0.5693087841952257|-0.5360842232111089|0.4097679491233064|-0.03699832037091255|0.9953078031539917|0.08940821886062622|0|0|0|-1|-1|3
2021-04-22 21:38:51.471 +0100|139905.81025425|-0.02923583984375|1.015365600585938|0.087646484375|139905.79029425|1.733498908480403|-2.752516297847931|-1.473186108174837|-0.03801357746124268|-0.01468640565872192|-0.006421586498618126|0.007701840251684189|0.01356470584869385|0.0009968355298042297|XArbitraryZVertical|-0.4699185568881967|0.5694413403390606|-0.5357890626838395|0.4096869704327586|-0.03696905076503754|0.9952399134635925|0.09017378091812134|0|0|0|-1|-1|3
2021-04-22 21:38:51.490 +0100|139905.83021525|-0.0360870361328125|1.01123046875|0.067840576171875|139905.81025425|1.73087566339813|-2.755547328812575|-1.472805903379031|-0.01739020645618439|-0.02460774593055248|0.005532101262360811|0.008165482431650162|0.01976621150970459|-0.001539237797260284|XArbitraryZVertical|-0.4700965375286709|0.5694968289405143|-0.535543192811021|0.4097269901419274|-0.03683755919337273|0.9952027797698975|0.090634785592556|0|0|0|-1|-1|3
2021-04-22 21:38:51.511 +0100|139905.85017525|-0.0343475341796875|0.985321044921875|0.0701141357421875|139905.83021525|1.728166982408625|-2.758571705714469|-1.473008704857515|0.008351758122444153|-0.006557533051818609|0.01563284918665886|0.00215524435043335|0.02240151166915894|-0.0172724723815918|XArbitraryZVertical|-0.4700747518695022|0.5694818685942844|-0.5354254697629572|0.4099267230561391|-0.03648831695318222|0.9952226281166077|0.09055974334478378|0|0|0|-1|-1|3
2021-04-22 21:38:51.530 +0100|139905.87013525|-0.035125732421875|0.9810791015625|0.0823822021484375|139905.85017525|1.725121151120951|-2.761614395537708|-1.473466592683521|-0.001173419645056129|0.007035667542368174|0.02331535890698433|0.001908246427774429|-0.004300296306610107|-0.01874352246522903|XArbitraryZVertical|-0.4698864612160957|0.5694993363355896|-0.5354207571408377|0.4101242528672008|-0.0360429510474205|0.9952672123908997|0.0902455598115921|0|0|0|-1|-1|3
2021-04-22 21:38:51.550 +0100|139905.8900965417|-0.0310211181640625|0.988372802734375|0.09075927734375|139905.87013525|1.720058021134808|-2.766474610861976|-1.473870035636513|0.01025455445051193|0.01274202391505241|0.02409912832081318|0.0001627504825592041|-0.01737034320831299|-0.01767504215240479|XArbitraryZVertical|-0.4696263490660161|0.569626656852695|-0.5353940512359867|0.4102802974834514|-0.03545711934566498|0.9953063130378723|0.09004687517881393|0|0|0|-1|-1|3
2021-04-22 21:38:51.570 +0100|139905.9100565417|-0.0318756103515625|0.9957427978515625|0.10076904296875|139905.8900965417|1.715827138090778|-2.770459582489177|-1.474211009626634|0.00398227758705616|0.008680008351802826|0.01252724789083004|0.003128860145807266|-0.008019208908081055|0.0007811710238456726|XArbitraryZVertical|-0.4693874559929927|0.5697462283572621|-0.5353914860923707|0.4103909238104931|-0.03497473150491714|0.9953392744064331|0.08987069875001907|0|0|0|-1|-1|3
2021-04-22 21:38:51.591 +0100|139905.9300165417|-0.0323944091796875|1.006195068359375|0.0824737548828125|139905.9100565417|1.713229188443849|-2.773073705196497|-1.474420822353762|-0.02868106029927731|-0.005167735740542412|0.01618572138249874|0.004542622715234756|-0.005628585815429688|0.004639022052288055|XArbitraryZVertical|-0.469285383838746|0.5697846157070671|-0.5353513103152254|0.4105067051258703|-0.03466428071260452|0.995359480381012|0.08976656198501587|0|0|0|-1|-1|3
2021-04-22 21:38:51.610 +0100|139905.9499775417|-0.027099609375|1.003173828125|0.0789642333984375|139905.9300165417|1.710373518247856|-2.775939154504877|-1.474067876560701|-0.0495421513915062|0.004004510119557381|0.005192192737013102|0.002778884023427963|0.01190751791000366|-0.004899375140666962|XArbitraryZVertical|-0.469342219612071|0.5699259373241378|-0.535197352751744|0.4104465014727989|-0.03453321382403374|0.9953254461288452|0.09019538760185242|0|0|0|-1|-1|3
2021-04-22 21:38:51.630 +0100|139905.9699375417|-0.02587890625|1.00018310546875|0.082855224609375|139905.9499775417|1.70742043083666|-2.778679127569679|-1.473664265031862|-0.04197995737195015|0.01222915016114712|0.01173975132405758|0.00622892752289772|0.006254851818084717|-0.01551485806703568|XArbitraryZVertical|-0.4693521475583454|0.5701231690093475|-0.5350821396713588|0.4103112563521283|-0.03442799672484398|0.9952864050865173|0.09066373109817505|0|0|0|-1|-1|3
2021-04-22 21:38:51.650 +0100|139905.9898985417|-0.028533935546875|1.006149291992188|0.093231201171875|139905.9699375417|1.703094134798337|-2.782770479199771|-1.473127208762164|-0.02810115739703178|0.009070960804820061|0.00685427151620388|0.008059769868850708|0.004872798919677734|-0.01266157627105713|XArbitraryZVertical|-0.4693701234693416|0.5703894227593672|-0.5349050574720331|0.4101515721473507|-0.03424466773867607|0.9952341914176941|0.09130481630563736|0|0|0|-1|-1|3
2021-04-22 21:38:51.670 +0100|139906.0098585417|-0.0272369384765625|1.000946044921875|0.1081085205078125|139905.9898985417|1.699365160097352|-2.786450763902026|-1.472832502958578|-0.009696483612060547|-0.005104246083647013|0.0140213705599308|0.007993254810571671|0.009051978588104248|-0.0004274919629096985|XArbitraryZVertical|-0.4693766534825892|0.570559415178591|-0.5347483576970754|0.4101119618797484|-0.03401030600070953|0.9952054023742676|0.09170497953891754|0|0|0|-1|-1|3
2021-04-22 21:38:51.690 +0100|139906.0298185417|-0.02630615234375|1.012954711914062|0.105560302734375|139906.0098585417|1.696702005695829|-2.789272896737788|-1.472704835751125|-0.04123048856854439|-0.003083917777985334|0.005652031861245632|0.004650089889764786|0.00787431001663208|0.01751565188169479|XArbitraryZVertical|-0.4694085135422465|0.5706273043119906|-0.5346070340872119|0.4101652755158631|-0.03379517421126366|0.9951928853988647|0.09191974252462387|0|0|0|-1|-1|3
2021-04-22 21:38:51.710 +0100|139906.0497795417|-0.0275726318359375|1.024276733398438|0.09490966796875|139906.0298185417|1.692959878100128|-2.793099978208683|-1.472364456320213|-0.04063604027032852|-0.009921425022184849|0.01259169727563858|0.005726367235183716|0.008441746234893799|0.004692792892456055|XArbitraryZVertical|-0.469462339520635|0.5707792952277119|-0.5344090278191008|0.4101503407484402|-0.03355918079614639|0.9951595067977905|0.09236778318881989|0|0|0|-1|-1|3
2021-04-22 21:38:51.730 +0100|139906.0697395417|-0.0296783447265625|1.006179809570312|0.0951080322265625|139906.0497795417|1.687517035041266|-2.798642354916029|-1.472214001305026|-0.02576538175344467|-0.008015614002943039|0.01849787868559361|0.005462761968374252|0.03139066696166992|0.005388982594013214|XArbitraryZVertical|-0.4694329875503748|0.5709462484959916|-0.534194509201636|0.4102310711682133|-0.03309726715087891|0.9951447248458862|0.09269389510154724|0|0|0|-1|-1|3
2021-04-22 21:38:51.750 +0100|139906.0896995417|-0.0276641845703125|1.01123046875|0.0980987548828125|139906.0697395417|1.678884965789122|-2.807372092388499|-1.47170291392574|-0.0562584400177002|-0.005354529246687889|0.03140746057033539|0.002789437770843506|0.01448845863342285|0.002182722091674805|XArbitraryZVertical|-0.4694463453599553|0.5712700804706984|-0.5338131582337275|0.4102612536508213|-0.03245331346988678|0.9950942397117615|0.09345874935388565|0|0|0|-1|-1|3
2021-04-22 21:38:51.770 +0100|139906.1096605417|-0.0222320556640625|1.01708984375|0.099884033203125|139906.0896995417|1.666914103415875|-2.819340455059572|-1.470295279922904|-0.08283565938472748|0.003186813555657864|0.03822542354464531|0.003225896507501602|0.01429295539855957|0.002685301005840302|XArbitraryZVertical|-0.4696207305054509|0.5718747070321116|-0.5331705648329611|0.410054830441139|-0.03177592903375626|0.994953989982605|0.09516862034797668|0|0|0|-1|-1|3
2021-04-22 21:38:51.790 +0100|139906.1296205417|-0.01806640625|0.98443603515625|0.0867462158203125|139906.1096605417|1.653376011478724|-2.832910301535011|-1.469309398592729|-0.05233510583639145|-0.009049132466316223|0.05336753278970718|0.007860302925109863|0.0226779580116272|0.003677606582641602|XArbitraryZVertical|-0.469642795478697|0.5724497725629866|-0.5325543727710799|0.410027966810635|-0.03077981621026993|0.9948546290397644|0.09652619808912277|0|0|0|-1|-1|3
2021-04-22 21:38:51.810 +0100|139906.1495815417|-0.0171051025390625|0.9844512939453125|0.0888671875|139906.1296205417|1.638120159253693|-2.848281642562324|-1.468664137619022|-0.05496980622410774|-0.007294696290045977|0.0593072697520256|0.01031234860420227|-0.002158820629119873|-0.009666919708251953|XArbitraryZVertical|-0.4695458891603185|0.5729991507376434|-0.5319362103745575|0.4101740162787504|-0.02947819605469704|0.9947890639305115|0.09760273993015289|0|0|0|-1|-1|3
2021-04-22 21:38:51.830 +0100|139906.1695415417|-0.02301025390625|1.0115966796875|0.08673095703125|139906.1495815417|1.623153779958076|-2.8632914985206|-1.467744719712869|-0.1049835681915283|-0.006676363293081522|0.06139048188924789|0.009613931179046631|-0.01755237579345703|-0.01309800148010254|XArbitraryZVertical|-0.4695007207768057|0.5736074173518253|-0.5312822871043628|0.410222969075465|-0.02826095744967461|0.9946948885917664|0.0989127904176712|0|0|0|-1|-1|3
2021-04-22 21:38:51.850 +0100|139906.1895015417|-0.0314788818359375|1.007064819335938|0.107421875|139906.1695415417|1.606511996550514|-2.879858046763707|-1.465974894232527|-0.1093943938612938|0.002773704938590527|0.05869732052087784|0.00462755560874939|0.01134824752807617|-0.01391029357910156|XArbitraryZVertical|-0.469606684628125|0.5744593450255507|-0.5304127189470189|0.4100348104143082|-0.027074059471488|0.9945112466812134|0.101067952811718|0|0|0|-1|-1|3
2021-04-22 21:38:51.870 +0100|139906.2094625417|-0.07647705078125|1.010604858398438|0.0748748779296875|139906.1895015417|1.590672824109981|-2.895478741481467|-1.464553487310873|-0.07597886770963669|0.01717245765030384|0.06622021645307541|-0.003293599933385849|0.01461070775985718|-0.002629414200782776|XArbitraryZVertical|-0.4695785667630996|0.5752566773490634|-0.5296695113642168|0.4099097755629612|-0.02583622932434082|0.9943615198135376|0.1028485521674156|0|0|0|-1|-1|3
2021-04-22 21:38:51.890 +0100|139906.2294225417|-0.2147369384765625|0.8768463134765625|0.0137939453125|139906.2094625417|1.5762296111739|-2.909559172453581|-1.464973001989316|0.0840066522359848|0.01043929345905781|0.08047629147768021|-0.03216827288269997|0.02195179462432861|-0.01512144505977631|XArbitraryZVertical|-0.4690386463549501|0.5756749932113846|-0.5294239335421934|0.4102579815610848|-0.02429004944860935|0.9944059252738953|0.1027978956699371|0|0|0|-1|-1|3
2021-04-22 21:38:51.910 +0100|139906.2493825417|-0.4355926513671875|0.6393280029296875|-0.0313873291015625|139906.2294225417|1.572505788811489|-2.912908635942074|-1.469385215213426|0.331245481967926|0.007502679247409105|0.03114789351820946|-0.1484369933605194|-0.0702863335609436|-0.07757759094238281|XArbitraryZVertical|-0.4676826866450478|0.5749562460721888|-0.5304332538283496|0.4115081493882762|-0.02295053750276566|0.9948623180389404|0.09860356152057648|0|0|0|-1|-1|3
2021-04-22 21:38:51.930 +0100|139906.2693435417|-0.88525390625|0.610687255859375|0.006072998046875|139906.2493825417|1.616408508557243|-2.870671163069876|-1.479884316092566|1.036054491996765|-0.2415916174650192|-0.2481869906187057|-0.3476368188858032|-0.2942099571228027|-0.1080929040908813|XArbitraryZVertical|-0.4661841262736429|0.5713240846149499|-0.5336123935008484|0.4141487261701018|-0.02429697103798389|0.9958703517913818|0.08747769892215729|0|0|0|-1|-1|3
2021-04-22 21:38:51.949 +0100|139906.2893035417|-1.59185791015625|0.4085235595703125|-0.0514373779296875|139906.2693435417|1.871547846346508|-2.623578605874531|-1.502361373376012|1.409172177314758|-0.381142795085907|-0.7464783191680908|-0.7099305987358093|-0.3928008079528809|-0.05094290524721146|XArbitraryZVertical|-0.4650851825804603|0.5598224890067289|-0.5420558081776095|0.4200834530350886|-0.03385991975665092|0.9976592659950256|0.05941089242696762|0|0|0|-1|-1|3
2021-04-22 21:38:51.969 +0100|139906.3092635417|-2.16217041015625|0.1245269775390625|0.025909423828125|139906.2893035417|2.34104205836138|-2.161370608746624|-1.503227892526005|0.9106714129447937|-0.1978877633810043|-1.654783010482788|-1.344520807266235|-0.5053778886795044|-0.07972836494445801|XArbitraryZVertical|-0.4683833088521164|0.5471893345175211|-0.5514751714361521|0.4208043392341229|-0.05608423799276352|0.9977180957794189|0.03759818524122238|0|0|0|-1|-1|3
2021-04-22 21:38:51.990 +0100|139906.3292245417|-1.754791259765625|0.2466583251953125|0.1142120361328125|139906.3092635417|2.685943713115473|-1.81168191202029|-1.469529921527103|0.4465824961662292|1.009169816970825|-2.453748941421509|-1.982970476150513|-0.8135414123535156|-0.02408766746520996|XArbitraryZVertical|-0.4753864593569483|0.5348518678630998|-0.5651534403565117|0.4105398710580336|-0.09817655384540558|0.9948769211769104|0.02411761321127415|0|0|0|-1|-1|3
2021-04-22 21:38:52.009 +0100|139906.3491845417|-1.0435791015625|0.5097198486328125|0.0144195556640625|139906.3292245417|2.802907213618004|-1.660029679733325|-1.41788291221976|0.05689537525177002|2.323099851608276|-2.962161779403687|-1.799002170562744|-0.8227736949920654|0.115270733833313|XArbitraryZVertical|-0.4780761982806583|0.5274752008163245|-0.5858976762570061|0.387217058110671|-0.1517126709222794|0.9883314967155457|0.01357387751340866|0|0|0|-1|-1|3
2021-04-22 21:38:52.029 +0100|139906.3691455417|-0.7829437255859375|1.296157836914062|-0.2057952880859375|139906.3491845417|2.819117953522857|-1.59821878646112|-1.352133215074956|0.02781868353486061|2.077290058135986|-3.545218229293823|-0.9637753963470459|-0.5416180491447449|0.02839899063110352|XArbitraryZVertical|-0.4817791287802097|0.520444818550553|-0.6089012130594222|0.3553385178266954|-0.2168436050415039|0.9761883020401001|0.005947876255959272|0|0|0|-1|-1|3
2021-04-22 21:38:52.049 +0100|139906.3891055417|-0.2942657470703125|2.303207397460938|-0.8477325439453125|139906.3691455417|2.821690322956324|-1.559150441412441|-1.281677296942834|-0.1505016386508942|1.68828296661377|-3.514368534088135|-0.5463017225265503|0.07794249057769775|-0.1353675127029419|XArbitraryZVertical|-0.4885864040458598|0.5095323264476377|-0.6297661809036426|0.3241217539345878|-0.285089373588562|0.9584954380989075|-0.00332026812247932|0|0|0|-1|-1|3
2021-04-22 21:38:52.069 +0100|139906.4090655417|1.037750244140625|3.322891235351562|-1.146957397460938|139906.3891055417|2.818920124911235|-1.527971151278986|-1.208483091371694|0.5013145208358765|1.65376091003418|-3.772666454315186|-0.1263253390789032|1.122888565063477|-0.6431974172592163|XArbitraryZVertical|-0.4960154316510378|0.4963683765326815|-0.6496475600997513|0.2924812406899384|-0.3541135489940643|0.9350794553756714|-0.01517425291240215|0|0|0|-1|-1|3
2021-04-22 21:38:52.089 +0100|139906.4290265417|2.061843872070312|3.3154296875|-1.464492797851562|139906.4090655417|2.8538108100912|-1.468740705541596|-1.140089424302557|1.124270558357239|0.7615209221839905|-2.671196460723877|1.051463961601257|2.154378175735474|-1.022848963737488|XArbitraryZVertical|-0.5008882933126105|0.4773291240105384|-0.6702854728798496|0.2683006210716736|-0.4153409004211426|0.9086708426475525|-0.04253565147519112|0|0|0|-1|-1|3
2021-04-22 21:38:52.109 +0100|139906.4489865417|2.8125|3.877151489257812|-1.518447875976562|139906.4290265417|2.897291680581461|-1.436369506375509|-1.105203925874669|0.5751214027404785|-1.072864532470703|-0.6272894740104675|2.388062953948975|2.509276151657104|-1.429607629776001|XArbitraryZVertical|-0.5077467323082178|0.4605522769536432|-0.6782362594288806|0.2647277061701561|-0.4449025988578796|0.893555760383606|-0.06016971170902252|0|0|0|-1|-1|3
2021-04-22 21:38:52.129 +0100|139906.4689465417|3.377410888671875|5.376251220703125|-1.150527954101562|139906.4489865417|2.869550521608112|-1.480862691030043|-1.114058504966273|-1.367469310760498|-0.9355435967445374|1.642126202583313|2.977158069610596|2.669825553894043|-1.425463914871216|XArbitraryZVertical|-0.5144178803232389|0.4642946976970243|-0.6691609079589321|0.2683812641386473|-0.4392406642436981|0.8974959850311279|-0.03960935771465302|0|0|0|-1|-1|3
2021-04-22 21:38:52.149 +0100|139906.4889075417|2.2369384765625|5.204788208007812|-0.07012939453125|139906.4689465417|2.84785836563657|-1.52058187728577|-1.187331836059257|0.5401409268379211|-0.8458181023597717|5.786850452423096|3.771384239196777|4.128656387329102|-1.316151976585388|XArbitraryZVertical|-0.5057483160334895|0.4845916505092689|-0.6505955503653629|0.2934539392835183|-0.3736645579338074|0.927374005317688|-0.01877914555370808|0|0|0|-1|-1|3
2021-04-22 21:38:52.169 +0100|139906.5088675417|-0.1308135986328125|3.134109497070312|0.899993896484375|139906.4889075417|3.069073555959577|-1.315353813489019|-1.341308222927962|3.293064594268799|0.1236852705478668|10.18304920196533|2.905736207962036|4.543138980865479|-0.3267998695373535|XArbitraryZVertical|-0.4607404259459995|0.5088999704577909|-0.6333714374766957|0.3571832837624226|-0.2200985252857208|0.9737829566001892|-0.0574781596660614|0|0|0|-1|-1|3
