loggingTime(txt)|accelerometerTimestamp_sinceReboot(s)|accelerometerAccelerationX(G)|accelerometerAccelerationY(G)|accelerometerAccelerationZ(G)|motionTimestamp_sinceReboot(s)|motionYaw(rad)|motionRoll(rad)|motionPitch(rad)|motionRotationRateX(rad/s)|motionRotationRateY(rad/s)|motionRotationRateZ(rad/s)|motionUserAccelerationX(G)|motionUserAccelerationY(G)|motionUserAccelerationZ(G)|motionAttitudeReferenceFrame(txt)|motionQuaternionX(R)|motionQuaternionY(R)|motionQuaternionZ(R)|motionQuaternionW(R)|motionGravityX(G)|motionGravityY(G)|motionGravityZ(G)|motionMagneticFieldX(µT)|motionMagneticFieldY(µT)|motionMagneticFieldZ(µT)|motionHeading(°)|motionMagneticFieldCalibrationAccuracy(Z)|label
2021-04-22 20:31:03.404 +0100|136929.339225625|0.073516845703125|-0.4191436767578125|-0.91015625|136929.329244625|2.894492002827923|0.09667699311703036|0.37753989958642|0.3178819715976715|0.08833225071430206|0.08736857771873474|0.03055725991725922|0.1997954845428467|-0.05254918336868286|XArbitraryZVertical|-0.02400115921593878|0.1918518703226346|0.9747274358039354|0.1119075570071408|0.08972852677106857|-0.3686347305774689|-0.9252336025238037|0|0|0|-1|-1|3
2021-04-22 20:31:03.414 +0100|136929.359186625|0.092742919921875|-0.346893310546875|-0.931060791015625|136929.349205625|2.894976652237956|0.09819498333739232|0.3805382670008147|0.1596463322639465|0.103158175945282|0.05239097774028778|0.02120500057935715|0.0113426148891449|-0.008304119110107422|XArbitraryZVertical|-0.02459284292251025|0.1933884369695835|0.9744649862142842|0.1114193256356844|0.09102414548397064|-0.371420294046402|-0.9239922165870667|0|0|0|-1|-1|3
2021-04-22 20:31:03.415 +0100|136929.379148625|0.08892822265625|-0.3399505615234375|-0.9055938720703125|136929.369167625|2.89566735900789|0.1011437597674044|0.3837570511642536|0.199746772646904|0.129958301782608|0.07932983338832855|-0.002592504024505615|0.01481747627258301|0.009165346622467041|XArbitraryZVertical|-0.02588751098276698|0.1951077826688894|0.9741727887922291|0.1106808146313108|0.0936271920800209|-0.3744068741798401|-0.9225255846977234|0|0|0|-1|-1|3
2021-04-22 20:31:03.433 +0100|136929.399109625|0.0994415283203125|-0.369903564453125|-0.90362548828125|136929.389129625|2.896780506727069|0.1034346858769892|0.3884518770532392|0.3149266541004181|0.1272439062595367|0.08859896659851074|-0.000388018786907196|0.02754375338554382|0.01590269804000854|XArbitraryZVertical|-0.02680799763590249|0.1975000273745945|0.9737720472222512|0.1097419674125817|0.09555783867835999|-0.3787560760974884|-0.9205501675605774|0|0|0|-1|-1|3
2021-04-22 20:31:03.453 +0100|136929.419071625|0.0900726318359375|-0.3698883056640625|-0.917266845703125|136929.409090625|2.897470505337333|0.1054909487694099|0.3912413562820395|0.2053417414426804|0.09172959625720978|0.05197295174002647|0.003156237304210663|0.007083147764205933|0.01222389936447144|XArbitraryZVertical|-0.02769681451268705|0.1989576717841547|0.973522707614395|0.1090984506119098|0.09733889997005463|-0.3813362717628479|-0.919297456741333|0|0|0|-1|-1|3
2021-04-22 20:31:03.473 +0100|136929.439033625|0.11309814453125|-0.3871002197265625|-0.9113616943359375|136929.429052625|2.897988787256307|0.1069812203999357|0.3947132996472236|0.09813334792852402|0.08046607673168182|0.01858259178698063|-0.00655558705329895|0.01503592729568481|0.0001052021980285645|XArbitraryZVertical|-0.02824923977774836|0.200716877439588|0.973205122783671|0.1085664109681859|0.09856683015823364|-0.3845435380935669|-0.9178294539451599|0|0|0|-1|-1|3
2021-04-22 20:31:03.493 +0100|136929.458994625|0.1184234619140625|-0.3685302734375|-0.9133148193359375|136929.449014625|2.898357826757701|0.1081878730488571|0.3939197532307577|-0.05432011932134628|0.06643957644701004|0.005560888443142176|0.01336120069026947|0.003973066806793213|0.006590604782104492|XArbitraryZVertical|-0.02892474406371091|0.2003918701726778|0.9732824247641617|0.1082960349238013|0.09970717877149582|-0.3838109076023102|-0.9180129170417786|0|0|0|-1|-1|3
2021-04-22 20:31:03.513 +0100|136929.478956625|0.1190032958984375|-0.364288330078125|-0.9044952392578125|136929.468975625|2.898154484873408|0.1094023753341636|0.3916054364397226|-0.1053157150745392|0.06088875234127045|-0.04163875803351402|0.0243261456489563|0.008991360664367676|0.01218634843826294|XArbitraryZVertical|-0.02964523038935005|0.199337256388868|0.9734699425706032|0.1083622514309942|0.100918747484684|-0.3816727995872498|-0.9187716245651245|0|0|0|-1|-1|3
2021-04-22 20:31:03.547 +0100|136929.498918625|0.1297454833984375|-0.3672027587890625|-0.91162109375|136929.488937625|2.897496734155406|0.11068043490157|0.3897100159210057|-0.05877387523651123|0.05091691389679909|-0.0345085896551609|0.015870101749897|0.01842343807220459|0.01780939102172852|XArbitraryZVertical|-0.03032483398704038|0.1984962961703874|0.9735911241678394|0.1086283609384048|0.1021726354956627|-0.3799201846122742|-0.9193592667579651|0|0|0|-1|-1|3
2021-04-22 20:31:03.553 +0100|136929.518879625|0.13824462890625|-0.3776702880859375|-0.9116058349609375|136929.508899625|2.897108503243117|0.1116144481194309|0.388971189060515|-0.0166317131370306|0.03906611353158951|-0.01623095944523811|0.03100195527076721|0.01307070255279541|0.005602061748504639|XArbitraryZVertical|-0.0307890422754212|0.1981942853408534|0.9736241475702587|0.1087534105480863|0.1030625179409981|-0.3792366683483124|-0.919542133808136|0|0|0|-1|-1|3
2021-04-22 20:31:03.573 +0100|136929.538841625|0.1293792724609375|-0.378082275390625|-0.921844482421875|136929.528860625|2.896713630406657|0.1125945799369597|0.388934572182924|0.02835345454514027|0.03622878342866898|-0.01594591327011585|0.02843596041202545|0.001241803169250488|0.003790199756622314|XArbitraryZVertical|-0.03122942647758921|0.1982359553534463|0.9735908302897885|0.1088499183689149|0.1039653047919273|-0.3792027831077576|-0.9194544553756714|0|0|0|-1|-1|3
2021-04-22 20:31:03.593 +0100|136929.558803625|0.133941650390625|-0.368621826171875|-0.9196929931640625|136929.548822625|2.896157480159711|0.1137562087969381|0.3896060991433716|0.062362190335989|0.03756749629974365|-0.0108130257576704|0.02512334287166595|0.001405328512191772|0.002439022064208984|XArbitraryZVertical|-0.03169582938857424|0.198633941409901|0.9734802062292567|0.1089789644561973|0.1050043702125549|-0.3798240721225739|-0.9190798401832581|0|0|0|-1|-1|3
2021-04-22 20:31:03.613 +0100|136929.578764625|0.1301422119140625|-0.3682708740234375|-0.90899658203125|136929.568784625|2.895388191552431|0.114953762091571|0.3906326163766527|0.05566628649830818|0.03060770407319069|-0.02668164670467377|0.03186479210853577|0.002141058444976807|0.002931892871856689|XArbitraryZVertical|-0.03213489585075276|0.1992097584183136|0.9733240457887655|0.1091935143538572|0.1060601621866226|-0.3807734549045563|-0.9185656309127808|0|0|0|-1|-1|3
2021-04-22 20:31:03.632 +0100|136929.598726625|0.1351776123046875|-0.365875244140625|-0.9018707275390625|136929.588745625|2.894470150190511|0.116278414441897|0.3913125200517782|0.04195902869105339|0.01900606788694859|-0.02902070060372353|0.0220721960067749|0.01454946398735046|0.01348906755447388|XArbitraryZVertical|-0.03264323107223978|0.1996269661092755|0.9731893444843983|0.1094809453445477|0.1072467863559723|-0.3814020454883575|-0.9181669950485229|0|0|0|-1|-1|3
2021-04-22 20:31:03.656 +0100|136929.618688625|0.1349639892578125|-0.356475830078125|-0.8975982666015625|136929.608707625|2.893712276531508|0.1171167431903164|0.3916015767977308|-0.007910577580332756|-0.02284172922372818|-0.005625453311949968|0.03053170442581177|0.01905861496925354|0.02049148082733154|XArbitraryZVertical|-0.0329563568593287|0.1998255775447436|0.9731072739737204|0.1097543384573616|0.1080035865306854|-0.3816692531108856|-0.9179672598838806|0|0|0|-1|-1|3
2021-04-22 20:31:03.672 +0100|136929.638650625|0.1288299560546875|-0.34442138671875|-0.9074249267578125|136929.628669625|2.893803790043348|0.1166557951258|0.3907896252832309|-0.04430242627859116|-0.05383447930216789|0.02260884642601013|0.02028344571590424|0.02409103512763977|0.01845300197601318|XArbitraryZVertical|-0.03279491331736289|0.1994048314740469|0.9731951917396167|0.1097886466469155|0.1076164767146111|-0.3809186220169067|-0.9183244109153748|0|0|0|-1|-1|3
2021-04-22 20:31:03.692 +0100|136929.658611625|0.1281890869140625|-0.3486785888671875|-0.9090423583984375|136929.648630625|2.894481073720123|0.1156881863115185|0.3900234479476111|-0.02338425815105438|-0.06116653233766556|0.04484988003969193|0.02109264582395554|0.03789365291595459|0.006913959980010986|XArbitraryZVertical|-0.03244208630262087|0.1989689495979009|0.9733189869982082|0.1095862120164172|0.1067615076899529|-0.3802101016044617|-0.9187177419662476|0|0|0|-1|-1|3
2021-04-22 20:31:03.712 +0100|136929.678573625|0.12054443359375|-0.35516357421875|-0.9007110595703125|136929.668592625|2.895297555558323|0.1146316523033598|0.3893314304637124|-0.02562173083424568|-0.06515888124704361|0.03938223794102669|0.02358968555927277|0.03378975391387939|0.01305520534515381|XArbitraryZVertical|-0.03205454756134199|0.1985621107749772|0.9734446883992627|0.1093214607133469|0.10582085698843|-0.3795699775218964|-0.9190911650657654|0|0|0|-1|-1|3
2021-04-22 20:31:03.732 +0100|136929.6985355|0.11688232421875|-0.3697509765625|-0.88616943359375|136929.6885545|2.895807348365276|0.1138912363490323|0.3893547554610634|0.02411779575049877|-0.05107634887099266|0.03046100027859211|0.01148436218500137|0.02442717552185059|0.02444654703140259|XArbitraryZVertical|-0.03174324286322371|0.1985248639417092|0.9734821764419481|0.1091459020856992|0.1051393151283264|-0.3795915544033051|-0.9191604852676392|0|0|0|-1|-1|3
2021-04-22 20:31:03.752 +0100|136929.7184965|0.154571533203125|-0.38421630859375|-0.8965606689453125|136929.7085155|2.895661575785518|0.1142579911398933|0.390355757173096|0.1059161573648453|-0.02787946909666061|0.01260361820459366|-0.02688004076480865|0.0318228006362915|0.02784466743469238|XArbitraryZVertical|-0.03184166736025916|0.1990330512311656|0.9733757221680992|0.1091407335312032|0.1054330393671989|-0.3805174231529236|-0.918743908405304|0|0|0|-1|-1|3
2021-04-22 20:31:03.772 +0100|136929.7384585|0.0819549560546875|-0.364013671875|-0.90472412109375|136929.7284775|2.895077583434246|0.1139208912189686|0.3916918612007522|0.09319829940795898|-0.04948899894952774|-0.04693072661757469|0.03498047590255737|0.001380831003189087|0.02160638570785522|XArbitraryZVertical|-0.03153170952358465|0.199672257320384|0.9732252849240074|0.1094055974693279|0.1050654426217079|-0.3817526996135712|-0.9182735085487366|0|0|0|-1|-1|3
2021-04-22 20:31:03.792 +0100|136929.7584205|0.075531005859375|-0.3668060302734375|-0.9010467529296875|136929.7484395|2.892749291819665|0.1145941725950655|0.3932019208079147|0.1334009170532227|-0.02497380040585995|-0.1364654898643494|-0.01487286388874054|0.02181905508041382|0.0050773024559021|XArbitraryZVertical|-0.03152671124059536|0.2004786035946677|0.9729460561517934|0.1104109248970368|0.1056176349520683|-0.3831479549407959|-0.9176287651062012|0|0|0|-1|-1|3
2021-04-22 20:31:03.812 +0100|136929.7783815|0.0232086181640625|-0.405792236328125|-0.882843017578125|136929.7684005|2.889657798856412|0.1162374256204226|0.3956156414906171|0.1885455697774887|0.005194912664592266|-0.05057890340685844|0.008354641497135162|0.02027854323387146|0.01518124341964722|XArbitraryZVertical|-0.0318539702501423|0.2017893625680351|0.9725227075526512|0.1116520734304087|0.1070178225636482|-0.385376363992691|-0.9165327548980713|0|0|0|-1|-1|3
2021-04-22 20:31:03.832 +0100|136929.7983435|0.1688232421875|-0.4200592041015625|-0.8762054443359375|136929.7883625|2.889090172193587|0.1168939252973147|0.3992355548674459|0.1646998077630997|0.02552260644733906|-0.08685079962015152|-0.06616505980491638|0.03005552291870117|0.05340737104415894|XArbitraryZVertical|-0.03187218059503187|0.2035897204399419|0.9721396288020325|0.1117140776014941|0.1074560955166817|-0.3887141346931458|-0.9150707721710205|0|0|0|-1|-1|3
2021-04-22 20:31:03.852 +0100|136929.8183055|0.1211090087890625|-0.408233642578125|-0.877685546875|136929.8083245|2.886334220863269|0.1187363678752437|0.4005976563787771|0.03150564059615135|0.01156088151037693|-0.1263799220323563|0.0215369313955307|-0.02249234914779663|0.04140502214431763|XArbitraryZVertical|-0.03239423647980817|0.2043973678078184|0.9718263673639996|0.1128094531571716|0.1090790554881096|-0.3899687528610229|-0.9143446683883667|0|0|0|-1|-1|3
2021-04-22 20:31:03.872 +0100|136929.8382665|0.1543121337890625|-0.4062347412109375|-0.8764801025390625|136929.8282855|2.883348208250264|0.1197744544194562|0.3998516847749623|-0.04872305318713188|0.0008902866393327713|-0.1547152400016785|0.0340266078710556|-0.02931341528892517|0.03759729862213135|XArbitraryZVertical|-0.03264474682384155|0.2041435063341697|0.9717106417289779|0.1141853614661669|0.1100628972053528|-0.3892817199230194|-0.9145194888114929|0|0|0|-1|-1|3
2021-04-22 20:31:03.892 +0100|136929.8582285|0.1663055419921875|-0.3752288818359375|-0.8862152099609375|136929.8482475|2.88006094713567|0.120471746992824|0.3980542479560482|-0.0341503694653511|-0.02660674601793289|-0.1720537543296814|0.04300962388515472|-0.008585035800933838|0.03626036643981934|XArbitraryZVertical|-0.0327731694429633|0.2033668548163451|0.9716796189369521|0.1157868791003642|0.1107844710350037|-0.3876254558563232|-0.9151356816291809|0|0|0|-1|-1|3
2021-04-22 20:31:03.912 +0100|136929.8781905|0.163482666015625|-0.3951416015625|-0.9074249267578125|136929.8682095|2.876908458742641|0.1198277374688257|0.3974491647928609|-0.04597510769963264|-0.06626350432634354|-0.1527191996574402|0.05657148361206055|0.01246356964111328|0.02699697017669678|XArbitraryZVertical|-0.03218235606637345|0.2030874838118865|0.9715631234451862|0.1174093200989935|0.1102231070399284|-0.3870676159858704|-0.9154395461082458|0|0|0|-1|-1|3
2021-04-22 20:31:03.932 +0100|136929.8981515|0.154388427734375|-0.3796539306640625|-0.9210662841796875|136929.8881705|2.872862104748301|0.1207011746017919|0.3965294398803437|-0.06303390115499496|-0.115810714662075|-0.1747008413076401|0.09451697021722794|0.009540170431137085|-0.002272427082061768|XArbitraryZVertical|-0.03226130068448574|0.2027590600558853|0.9713957310773307|0.1193250836734008|0.111065462231636|-0.3862194120883942|-0.9156959652900696|0|0|0|-1|-1|3
2021-04-22 20:31:03.952 +0100|136929.9181135|0.1644134521484375|-0.3799896240234375|-0.947784423828125|136929.9081325|2.869298281774661|0.1197959630575954|0.3958084634140899|-0.02516764402389526|-0.1428417414426804|-0.1607921421527863|0.04659135639667511|0.01311695575714111|-0.01050198078155518|XArbitraryZVertical|-0.03151248164292764|0.2024124579830006|0.9712631468561203|0.1211781726792434|0.110269770026207|-0.3855542838573456|-0.9160723090171814|0|0|0|-1|-1|3
2021-04-22 20:31:03.972 +0100|136929.9380755|0.1528167724609375|-0.3756866455078125|-0.9500579833984375|136929.9280945|2.865686962808278|0.1191610106186987|0.396660085553953|0.07304259389638901|-0.1491085886955261|-0.1328409165143967|0.05073689669370651|0.01399418711662292|-0.03553879261016846|XArbitraryZVertical|-0.03077640681484848|0.202842086953233|0.9709731450046406|0.1229598883659257|0.1096490100026131|-0.3863399028778076|-0.9158158302307129|0|0|0|-1|-1|3
2021-04-22 20:31:03.992 +0100|136929.9580365|0.14996337890625|-0.39923095703125|-0.9379119873046875|136929.9480565|2.862227416842045|0.1185696739508802|0.3983289329649926|0.09781212359666824|-0.1552093476057053|-0.1212180927395821|0.04396964609622955|0.0004267096519470215|-0.02876085042953491|XArbitraryZVertical|-0.03001510997668475|0.2036654051144588|0.9706118536269707|0.1246283641676264|0.1090310141444206|-0.3878786563873291|-0.9152389764785767|0|0|0|-1|-1|3
2021-04-22 20:31:04.012 +0100|136929.9779985|0.1409149169921875|-0.3762359619140625|-0.9368743896484375|136929.9680175|2.858896928194743|0.1178669732949427|0.4000578973617022|0.1178830564022064|-0.1473404616117477|-0.1176134198904037|0.03930547088384628|-0.003488659858703613|-0.02658993005752563|XArbitraryZVertical|-0.02920580564039197|0.2045067248211921|0.9702509784394884|0.1262425550552286|0.1083088293671608|-0.3894716799259186|-0.9146480560302734|0|0|0|-1|-1|3
2021-04-22 20:31:04.032 +0100|136929.9979605|0.1228790283203125|-0.3931732177734375|-0.90509033203125|136929.9879795|2.855734291799062|0.1172009431777594|0.4014363670370686|0.07056108117103577|-0.1341117471456528|-0.1177071630954742|0.02825880795717239|0.01078107953071594|-0.01339542865753174|XArbitraryZVertical|-0.02845533520854037|0.2051763522402467|0.9699297986517607|0.1277861284928592|0.1076367348432541|-0.3907409310340881|-0.9141859412193298|0|0|0|-1|-1|3
2021-04-22 20:31:04.052 +0100|136930.0179215|0.115325927734375|-0.3729248046875|-0.8812255859375|136930.0079415|2.852835076147119|0.1168505887312846|0.4014428041317226|0.02585355937480927|-0.1016266122460365|-0.1085725128650665|0.008681952953338623|0.002699822187423706|0.01387661695480347|XArbitraryZVertical|-0.02798750682301188|0.2051978482498532|0.9697479131926754|0.1292277153719636|0.1073161512613297|-0.3907468616962433|-0.9142211079597473|0|0|0|-1|-1|3
2021-04-22 20:31:04.072 +0100|136930.0378835|0.113983154296875|-0.39117431640625|-0.8573150634765625|136930.0279025|2.850173443661983|0.1166134647581553|0.4007255026922791|-0.0259975865483284|-0.1001260280609131|-0.1081793457269669|0.01220782846212387|0.01752713322639465|0.04246997833251953|XArbitraryZVertical|-0.02765451421069267|0.204872904602276|0.9696458962353347|0.1305730837440132|0.1071319431066513|-0.3900864720344543|-0.9145246148109436|0|0|0|-1|-1|3
2021-04-22 20:31:04.092 +0100|136930.0578455|0.13323974609375|-0.3870849609375|-0.850250244140625|136930.0478645|2.847439251228733|0.116276443499699|0.3990720776371099|-0.09558358788490295|-0.1122583225369453|-0.1343680620193481|0.005773283541202545|-0.002275854349136353|0.06185269355773926|XArbitraryZVertical|-0.02733901423422913|0.2040895412771689|0.9696263739713887|0.1320036999371539|0.1068984046578407|-0.3885635137557983|-0.9152000546455383|0|0|0|-1|-1|3
2021-04-22 20:31:04.112 +0100|136930.0778065|0.1370086669921875|-0.375152587890625|-0.8763427734375|136930.0678265|2.844149637065987|0.1155617926353824|0.3958077584209047|-0.1564603894948959|-0.1379851996898651|-0.1794192641973495|0.03147393465042114|-0.002020359039306641|0.06461822986602783|XArbitraryZVertical|-0.02691198439145015|0.2025095043143278|0.9697219559513276|0.1338103445696577|0.1063900142908096|-0.3855536282062531|-0.9165312647819519|0|0|0|-1|-1|3
2021-04-22 20:31:04.132 +0100|136930.0977685|0.1326751708984375|-0.368560791015625|-0.8965606689453125|136930.0877875|2.840156714686397|0.1146463892787248|0.392315085645801|-0.1706690788269043|-0.1397794783115387|-0.221945583820343|0.02979446947574615|0.01475894451141357|0.03774231672286987|XArbitraryZVertical|-0.02633999210716456|0.2008132856677089|0.9697875044218445|0.1359869856772727|0.1057043746113777|-0.3823286294937134|-0.9179604649543762|0|0|0|-1|-1|3
2021-04-22 20:31:04.154 +0100|136930.1177305|0.136932373046875|-0.351959228515625|-0.9128570556640625|136930.1077495|2.835492385798662|0.1140284048523205|0.388246625175702|-0.2066080272197723|-0.1238483935594559|-0.2430641949176788|0.02702708542346954|0.01674899458885193|0.01732689142227173|XArbitraryZVertical|-0.02589798727819813|0.1988657712211809|0.9698475755060817|0.1384828245546162|0.1053131893277168|-0.3785661160945892|-0.9195634126663208|0|0|0|-1|-1|3
2021-04-22 20:31:04.172 +0100|136930.1376915|0.1488800048828125|-0.32623291015625|-0.9178619384765625|136930.1277115|2.830599620912511|0.1139324639143007|0.3839642644638639|-0.2264069616794586|-0.1041910648345947|-0.2520801424980164|0.03411886096000671|0.02405813336372375|0.004687488079071045|XArbitraryZVertical|-0.02571292567953024|0.1968527164808717|0.9698937599709488|0.1410462850327421|0.1054083034396172|-0.3745990097522736|-0.9211757183074951|0|0|0|-1|-1|3
2021-04-22 20:31:04.192 +0100|136930.1576535|0.156494140625|-0.3027191162109375|-0.9180908203125|136930.1476725|2.825513946397615|0.1143647895542359|0.3809684735132149|-0.08407916873693466|-0.1107818111777306|-0.2409631460905075|0.04482351243495941|0.06362190842628479|0.0115203857421875|XArbitraryZVertical|-0.02566898893841769|0.1955011513467375|0.9697939720534344|0.1435972761716932|0.1059341281652451|-0.3718196749687195|-0.9222407937049866|0|0|0|-1|-1|3
2021-04-22 20:31:04.212 +0100|136930.1776155|0.1517333984375|-0.344696044921875|-0.923126220703125|136930.1676345|2.820375735614043|0.1144179981526161|0.3809249941292481|0.05529267713427544|-0.141501322388649|-0.2153865844011307|0.04764124751091003|0.06095710396766663|0.004252374172210693|XArbitraryZVertical|-0.02519607090678268|0.195549335053451|0.9694250673743452|0.1460849729624287|0.1059850454330444|-0.3717793226242065|-0.9222512245178223|0|0|0|-1|-1|3
2021-04-22 20:31:04.231 +0100|136930.1975765|0.1419830322265625|-0.3614654541015625|-0.9268341064453125|136930.1875965|2.815635104109225|0.113595187738217|0.3818653190816426|0.06098048761487007|-0.1737995445728302|-0.1889871060848236|0.04345018416643143|0.02047848701477051|-0.0004335641860961914|XArbitraryZVertical|-0.02425403101368812|0.1960014238291833|0.9690025751577228|0.1484225419149981|0.1051864996552467|-0.3726520836353302|-0.9219903945922852|0|0|0|-1|-1|3
2021-04-22 20:31:04.252 +0100|136930.2175385|0.1367950439453125|-0.3762969970703125|-0.924041748046875|136930.2075575|2.811482097779281|0.1120698022993526|0.3819881344518373|0.0291106253862381|-0.191143125295639|-0.1626846790313721|0.03784278035163879|0.003792554140090942|-0.00866621732711792|XArbitraryZVertical|-0.02309761784315344|0.1959958276494955|0.9686993486224591|0.1505786421873235|0.10377486795187|-0.3727660477161407|-0.9221042990684509|0|0|0|-1|-1|3
2021-04-22 20:31:04.271 +0100|136930.2375005|0.1380157470703125|-0.38262939453125|-0.9239044189453125|136930.2275195|2.807854373547156|0.1102216576953896|0.3807360560067625|-0.02222258970141411|-0.2146506309509277|-0.1406328976154327|0.03450624644756317|-0.008310139179229736|-0.004900038242340088|XArbitraryZVertical|-0.02195555217196035|0.1952923949863693|0.9685564557385633|0.1525696491876713|0.1021217703819275|-0.3716039061546326|-0.9227576851844788|0|0|0|-1|-1|3
2021-04-22 20:31:04.291 +0100|136930.2574615|0.119964599609375|-0.4004669189453125|-0.9102630615234375|136930.2474815|2.804691934982958|0.1078969236812862|0.3780179502487631|-0.08759280294179916|-0.2372692227363586|-0.1312306821346283|0.03346101939678192|-0.0113232433795929|0.002851128578186035|XArbitraryZVertical|-0.02075823894576618|0.193836067377136|0.9685786658143506|0.1544417266426205|0.1000847294926643|-0.3690790832042694|-0.9239933490753174|0|0|0|-1|-1|3
2021-04-22 20:31:04.311 +0100|136930.2774235|0.1035308837890625|-0.37615966796875|-0.888519287109375|136930.2674425|2.801986694742066|0.1050563602329234|0.3742342282752137|-0.2102053463459015|-0.2373151481151581|-0.1249989941716194|0.01572244614362717|-0.0342668890953064|0.02174103260040283|XArbitraryZVertical|-0.01945259082738416|0.1918164482199757|0.9687286660299083|0.15618276070559|0.09760540723800659|-0.3655598759651184|-0.9256560802459717|0|0|0|-1|-1|3
2021-04-22 20:31:04.331 +0100|136930.2973855|0.07415771484375|-0.36138916015625|-0.8547210693359375|136930.2874045|2.79950103318731|0.1019078243417768|0.3697372200859527|-0.2002524584531784|-0.2514337301254272|-0.1254924684762955|0.001732215285301208|-0.004337698221206665|0.0466342568397522|XArbitraryZVertical|-0.01808593755483608|0.1894214402106254|0.9689528135871562|0.1578699553630175|0.09485674649477005|-0.3613704144954681|-0.9275848269462585|0|0|0|-1|-1|3
2021-04-22 20:31:04.351 +0100|136930.3173465|0.0310821533203125|-0.364654541015625|-0.8210296630859375|136930.3073665|2.796653029698292|0.09867920086925019|0.3659410723950265|-0.1920347511768341|-0.2549244463443756|-0.1538621485233307|-0.02616867423057556|-0.01010769605636597|0.08251959085464478|XArbitraryZVertical|-0.01658905080931464|0.1873564655674308|0.9690803447466358|0.1597054037023803|0.09199592471122742|-0.3578281998634338|-0.9292446970939636|0|0|0|-1|-1|3
2021-04-22 20:31:04.371 +0100|136930.3373085|0.000885009765625|-0.35247802734375|-0.7716827392578125|136930.3273275|2.792952996735224|0.0959194037744802|0.3622166634772586|-0.1939335912466049|-0.2377738058567047|-0.20538729429245|-0.0690036416053772|-0.006324797868728638|0.1214740872383118|XArbitraryZVertical|-0.01523876792121527|0.1853650102882184|0.9691210984125899|0.1619012233741643|0.08955806493759155|-0.3543479442596436|-0.9308151602745056|0|0|0|-1|-1|3
2021-04-22 20:31:04.391 +0100|136930.3572705|-0.0238037109375|-0.38311767578125|-0.72198486328125|136930.3472895|2.787901540599961|0.09383947786305971|0.3586058518828803|-0.23336061835289|-0.2072620689868927|-0.293863981962204|-0.09076156467199326|-0.004042595624923706|0.1727765798568726|XArbitraryZVertical|-0.01409017378239113|0.1834880067179309|0.9690275143351672|0.164680068447381|0.08774116635322571|-0.3509691059589386|-0.9322672486305237|0|0|0|-1|-1|3
2021-04-22 20:31:04.411 +0100|136930.3772325|-0.03924560546875|-0.367919921875|-0.6733245849609375|136930.3672515|2.780810924260846|0.09311061726983874|0.3521179965755882|-0.4074330031871796|-0.1387318968772888|-0.4321900904178619|-0.1171779111027718|-0.04273307323455811|0.2255792021751404|XArbitraryZVertical|-0.01368510968164908|0.1803426761284389|0.9689791893247041|0.1684303336048223|0.08727152645587921|-0.3448866307735443|-0.9345784783363342|0|0|0|-1|-1|3
2021-04-22 20:31:04.431 +0100|136930.3971935|-0.056121826171875|-0.31640625|-0.63507080078125|136930.3872125|2.770432283605926|0.09420435050496681|0.3416281734272654|-0.5465002655982971|-0.112562507390976|-0.6445580124855042|-0.1295828223228455|-0.02874863147735596|0.2796315550804138|XArbitraryZVertical|-0.01427257517131903|0.1754420882432018|0.9689286304363844|0.1737635632060415|0.0886290967464447|-0.3350216150283813|-0.9380327463150024|0|0|0|-1|-1|3
2021-04-22 20:31:04.451 +0100|136930.4171555|-0.079620361328125|-0.272186279296875|-0.6024322509765625|136930.4071745|2.755690734812243|0.09717849856042581|0.3294977140345745|-0.5167161822319031|-0.07369420677423477|-0.8710641860961914|-0.1563346683979034|0.03261253237724304|0.3080739974975586|XArbitraryZVertical|-0.01561160486749617|0.1699586261690461|0.968538364113793|0.181118335212565|0.09180612117052078|-0.323567807674408|-0.9417406916618347|0|0|0|-1|-1|3
2021-04-22 20:31:04.471 +0100|136930.4371175|-0.120574951171875|-0.2461700439453125|-0.62835693359375|136930.4271365|2.736179945363818|0.1026940802586067|0.3168377631693676|-0.5693531036376953|0.03691928833723068|-1.104624390602112|-0.1812267452478409|0.04316052794456482|0.3617844581604004|XArbitraryZVertical|-0.01792614008643607|0.1645267024450153|0.967614915467605|0.1906070379928769|0.09741109609603882|-0.3115632832050323|-0.9452192187309265|0|0|0|-1|-1|3
2021-04-22 20:31:04.491 +0100|136930.4570785|-0.1686248779296875|-0.098480224609375|-0.3899383544921875|136930.4470975|2.710967358116917|0.1126735597201429|0.3037981803597687|-0.5556260943412781|0.1570289731025696|-1.451165318489075|-0.2447826266288757|0.07090497016906738|0.3315644860267639|XArbitraryZVertical|-0.02209572284348624|0.159478789552342|0.9659494352798121|0.2025343742135478|0.1072865724563599|-0.2991465926170349|-0.9481565952301025|0|0|0|-1|-1|3
2021-04-22 20:31:04.511 +0100|136930.4770405|-0.110687255859375|-0.1653900146484375|-0.4088287353515625|136930.4670595|2.679820214708048|0.1302801128889597|0.2827438039725005|-1.376299142837524|0.3566563725471497|-1.699352264404297|-0.2944303750991821|0.03335493803024292|0.4574049115180969|XArbitraryZVertical|-0.03055893673627008|0.1516191074468123|0.9638072890806064|0.2171484112414407|0.124753549695015|-0.2789915502071381|-0.952155590057373|0|0|0|-1|-1|3
2021-04-22 20:31:04.531 +0100|136930.4970025|-0.1881256103515625|-0.1126708984375|-0.488372802734375|136930.4870215|2.647432676047606|0.1463489010679096|0.2386333204539764|-2.566644668579102|0.4201760292053223|-1.994959473609924|-0.2766576409339905|0.08834880590438843|0.5389730334281921|XArbitraryZVertical|-0.04135027238068666|0.132863367208015|0.962288888774208|0.2337467900445594|0.1416945904493332|-0.2363748997449875|-0.9612749814987183|0|0|0|-1|-1|3
2021-04-22 20:31:04.551 +0100|136930.5169635|-0.1971282958984375|0.0327911376953125|-0.50347900390625|136930.5069825|2.615055905742153|0.1616363510514897|0.1666312744082709|-4.174891471862793|0.4255522489547729|-2.262210369110107|-0.3506742119789124|0.09576179087162018|0.4902476668357849|XArbitraryZVertical|-0.05609213887520188|0.1010258274169278|0.9608031293252687|0.2520017248688125|0.1587043702602386|-0.1658612340688705|-0.9732949137687683|0|0|0|-1|-1|3
2021-04-22 20:31:04.571 +0100|136930.5369255|-0.162261962890625|0.3470306396484375|-0.572601318359375|136930.5269445|2.58380204164113|0.1727934110579951|0.06363572201210049|-5.388698577880859|0.3071804940700531|-2.522312641143799|-0.3665931820869446|0.1962064057588577|0.4714264273643494|XArbitraryZVertical|-0.07418794597694608|0.05421206588937316|0.9580453770712909|0.2714892280641608|0.1715868264436722|-0.06359278410673141|-0.9831144213676453|0|0|0|-1|-1|3
2021-04-22 20:31:04.591 +0100|136930.5568875|-0.090972900390625|0.54254150390625|-0.7994232177734375|136930.5469065|2.551504050302012|0.1760702650653932|-0.06160956898619545|-6.414509296417236|0.009543642401695251|-2.838063716888428|-0.3167658746242523|0.3121777176856995|0.379888653755188|XArbitraryZVertical|-0.09300378429312549|-0.003801033892313447|0.9518444104696808|0.292109699762342|0.1748296320438385|0.06157059967517853|-0.9826716780662537|0|0|0|-1|-1|3
2021-04-22 20:31:04.611 +0100|136930.5768485|-0.040924072265625|0.76318359375|-1.0625|136930.5668675|2.516726757832608|0.169475942670687|-0.2061450196134754|-7.234843254089355|-0.1955888420343399|-3.019718647003174|-0.2421810626983643|0.4084249138832092|0.06000357866287231|XArbitraryZVertical|-0.1116241064905476|-0.0716806427306448|0.9404652986783044|0.3129331032995266|0.1650947034358978|0.2046880722045898|-0.9648038744926453|0|0|0|-1|-1|3
2021-04-22 20:31:04.631 +0100|136930.5968105|-0.038970947265625|0.83734130859375|-1.193023681640625|136930.5868295|2.480397868293041|0.1551256358999491|-0.3652237820163537|-7.850629329681396|-0.1869795322418213|-2.977550983428955|-0.1832988560199738|0.4213905334472656|-0.1848227381706238|XArbitraryZVertical|-0.130841716562814|-0.1465143361840113|0.9227577432832872|0.3315603443759977|0.1443137228488922|0.3571583330631256|-0.9228280186653137|0|0|0|-1|-1|3
2021-04-22 20:31:04.656 +0100|136930.6167725|-0.0066070556640625|0.86505126953125|-1.309036254882812|136930.6067915|2.442547071827981|0.1370322917273086|-0.5316940394037996|-8.110775947570801|0.04544678330421448|-2.805082559585571|-0.1447983682155609|0.3381898403167725|-0.3850833177566528|XArbitraryZVertical|-0.151822898365927|-0.2236406246109523|0.8982441017428135|0.3465435764235799|0.1177456006407738|0.5069942474365234|-0.8538693785667419|0|0|0|-1|-1|3
2021-04-22 20:31:04.671 +0100|136930.6367335|0.0477447509765625|0.907257080078125|-1.210723876953125|136930.6267525|2.4026293075376|0.1183073960946096|-0.6994388929731209|-8.014487266540527|0.3665844202041626|-2.564844369888306|-0.08134494721889496|0.2059275507926941|-0.5527826547622681|XArbitraryZVertical|-0.1753122910910126|-0.2988950496259462|0.8672210777306851|0.3575683502029164|0.09031821042299271|0.6437884569168091|-0.7598546743392944|0|0|0|-1|-1|3
2021-04-22 20:31:04.690 +0100|136930.6566955|0.06573486328125|1.179534912109375|-0.99505615234375|136930.6467145|2.358046611210704|0.09732956536210002|-0.8503398843770124|-6.330913543701172|0.6096811890602112|-2.219935417175293|-0.03136324882507324|0.215337872505188|-0.4762070178985596|XArbitraryZVertical|-0.1982652001309821|-0.3638517932528322|0.8332897086240623|0.3659663169381554|0.06410969793796539|0.75150465965271|-0.6566055417060852|0|0|0|-1|-1|3
2021-04-22 20:31:04.710 +0100|136930.6766575|0.0667572021484375|1.407546997070312|-0.6594085693359375|136930.6666765|2.303704621387813|0.06460276323820165|-0.9446003392273933|-2.679651260375977|0.3929679691791534|-1.896866679191589|0.04320532083511353|0.424035906791687|-0.3181098103523254|XArbitraryZVertical|-0.2112425218896167|-0.4036761301918121|0.807109698271548|0.37549478655263|0.03783521056175232|0.8102627992630005|-0.5848443508148193|0|0|0|-1|-1|3
2021-04-22 20:31:04.730 +0100|136930.69661775|-0.096832275390625|1.019866943359375|-0.849578857421875|136930.6866375|2.246718185047524|0.02310326264678953|-0.9724310061725976|-0.31293585896492|0.2026667594909668|-1.563684463500977|-0.005138099193572998|0.5286313891410828|-0.04754489660263062|XArbitraryZVertical|-0.2113670078457031|-0.4168366397567801|0.794686595954911|0.3873559601811973|0.01301274262368679|0.8262575268745422|-0.5631424188613892|0|0|0|-1|-1|3
2021-04-22 20:31:04.750 +0100|136930.71657975|0.18218994140625|0.3018646240234375|-0.8744964599609375|136930.70659875|2.187374499991398|-0.02116443643323779|-0.9750114236944387|-0.2155174016952515|0.1886299848556519|-1.855615496635437|0.02136778831481934|0.06018543243408203|-0.4071981310844421|XArbitraryZVertical|-0.2067890238099956|-0.4203828567998147|0.7870721354124658|0.4012907215367247|-0.01187572255730629|0.8277083039283752|-0.5610331296920776|0|0|0|-1|-1|3
2021-04-22 20:31:04.771 +0100|136930.73654175|-0.2184600830078125|1.043670654296875|-0.6324005126953125|136930.72656075|2.117790743697245|-0.07908682827588294|-0.9791049391278235|-0.1475003510713577|-0.1541481912136078|-1.892030596733093|0.1485287547111511|-0.4608882665634155|-0.2058641910552979|XArbitraryZVertical|-0.1997384060264781|-0.4267239784302963|0.777918993130843|0.4157565307936379|-0.04406596347689629|0.8299984931945801|-0.5560224056243896|0|0|0|-1|-1|3
2021-04-22 20:31:04.790 +0100|136930.75650275|-0.1107177734375|0.808685302734375|-0.555511474609375|136930.74652175|2.055433191205356|-0.1333086548915086|-0.9635757117980378|1.232582807540894|-0.1025141328573227|-1.795350074768066|-0.1659505665302277|0.2491061091423035|-0.06435799598693848|XArbitraryZVertical|-0.1883923914873363|-0.4263166663295008|0.772931444494027|0.4305108991550673|-0.07583913952112198|0.8212370872497559|-0.5655248165130615|0|0|0|-1|-1|3
2021-04-22 20:31:04.810 +0100|136930.77646475|0.021636962890625|1.2196044921875|-1.18988037109375|136930.76648375|2.004889326656603|-0.1758701295059855|-0.9279183594908591|2.142665863037109|-0.0518731102347374|-1.722067594528198|0.02721032500267029|0.005275249481201172|0.005277752876281738|XArbitraryZVertical|-0.1737382951644493|-0.4179569259424208|0.771936889211053|0.4463638569953963|-0.1048917323350906|0.8003737330436707|-0.590254008769989|0|0|0|-1|-1|3
2021-04-22 20:31:04.830 +0100|136930.79642675|0.1035614013671875|1.330795288085938|-0.6573028564453125|136930.78644575|1.984445336353974|-0.1965419075035771|-0.8329270095568936|6.497949600219727|-0.3633119463920593|-1.160564661026001|0.1826983541250229|0.6717789173126221|-0.382657527923584|XArbitraryZVertical|-0.145018287019921|-0.386120157400731|0.7836895987195586|0.4644478822855442|-0.1313667297363281|0.7399035692214966|-0.6597618460655212|0|0|0|-1|-1|3
2021-04-22 20:31:04.850 +0100|136930.81638775|0.13275146484375|0.2378692626953125|-0.9061279296875|136930.80640675|1.992960106497318|-0.1977157071589735|-0.6904634200723462|6.404445648193359|-0.3987381160259247|-1.010853171348572|0.2653763890266418|0.2415541410446167|0.02888029813766479|XArbitraryZVertical|-0.1049766278627264|-0.3331880969173729|0.8043151326288835|0.4806692216743104|-0.1514379531145096|0.6368945240974426|-0.7559311985969543|0|0|0|-1|-1|3
2021-04-22 20:31:04.870 +0100|136930.83634975|0.0885009765625|0.3601226806640625|-1.117782592773438|136930.82636875|1.995720510272919|-0.2054779857972819|-0.5878770704863484|3.884575605392456|-0.5149413347244263|-0.8589909672737122|0.2904492318630219|-0.2039486169815063|-0.1874449849128723|XArbitraryZVertical|-0.07374689112580808|-0.2953876240442296|0.8161389804035186|0.4911463541439356|-0.1697816848754883|0.5545957684516907|-0.8146150708198547|0|0|0|-1|-1|3
2021-04-22 20:31:04.890 +0100|136930.85631175|0.071533203125|0.4839935302734375|-1.368057250976562|136930.84633075|1.988778576534258|-0.2186384802843203|-0.5288529124770697|1.891473293304443|-0.3893846869468689|-0.9108593463897705|0.2930136024951935|-0.209377110004425|-0.2506736516952515|XArbitraryZVertical|-0.05329821526782234|-0.2752146921250002|0.8199945359538598|0.4990242714792601|-0.1872691363096237|0.5045433044433594|-0.8428323268890381|0|0|0|-1|-1|3
2021-04-22 20:31:04.910 +0100|136930.87627275|0.0618438720703125|0.3529052734375|-1.194732666015625|136930.86629275|1.976807796238268|-0.229641305377536|-0.4955890690433555|1.117024779319763|-0.1307879090309143|-0.8596290946006775|0.2463246285915375|0.122106522321701|-0.5513638854026794|XArbitraryZVertical|-0.04125477556073875|-0.2645759261512936|0.8197644803677315|0.5062448812569993|-0.2002420127391815|0.4755499362945557|-0.8565952181816101|0|0|0|-1|-1|3
2021-04-22 20:31:04.930 +0100|136930.89623475|0.0484619140625|0.33050537109375|-1.158050537109375|136930.88625375|1.958670867986964|-0.2382221837326746|-0.4906469681782347|-1.211676359176636|0.1191677153110504|-0.7718943953514099|0.2766347229480743|-0.2479145526885986|-0.3027933835983276|XArbitraryZVertical|-0.0387684912553573|-0.2644571198110121|0.815658091154038|0.5130900191951159|-0.2081369459629059|0.4711966216564178|-0.8571188449859619|0|0|0|-1|-1|3
2021-04-22 20:31:04.950 +0100|136930.91619675|0.075653076171875|0.2767333984375|-1.012588500976562|136930.90621575|1.92834045780992|-0.2481378874249278|-0.5338390066135649|-3.435220956802368|0.3170213103294373|-0.770730197429657|0.2590351104736328|-0.1798012256622314|-0.3593546748161316|XArbitraryZVertical|-0.0511437369165569|-0.283086172466053|0.8049993470758354|0.5188666790129849|-0.2114266157150269|0.5088419318199158|-0.834493100643158|0|0|0|-1|-1|3
2021-04-22 20:31:04.970 +0100|136930.93615775|-0.05609130859375|0.29730224609375|-0.633758544921875|136930.92617775|1.882716278341467|-0.2668682860187459|-0.6149758471528092|-5.262536525726318|0.2363801449537277|-0.8541969060897827|0.2986648082733154|-0.3986243009567261|-0.1162395477294922|XArbitraryZVertical|-0.0740937432297895|-0.3171323534639897|0.7872996082009565|0.5235424481940205|-0.2153965532779694|0.576938807964325|-0.7878744006156921|0|0|0|-1|-1|3
2021-04-22 20:31:04.990 +0100|136930.95611975|-0.108795166015625|0.862213134765625|-0.516571044921875|136930.94613875|1.826970734663698|-0.2979945548072403|-0.7095604239234248|-4.452482223510742|0.08635075390338898|-0.7354598641395569|0.126673698425293|-0.1584732532501221|0.09714555740356445|XArbitraryZVertical|-0.09969940192198865|-0.3570066102838427|0.7656199024925237|0.5257685401706096|-0.2227419912815094|0.6515003442764282|-0.7252126336097717|0|0|0|-1|-1|3
2021-04-22 20:31:05.010 +0100|136930.97608175|-0.198577880859375|1.196823120117188|-0.44708251953125|136930.96610075|1.786258902715091|-0.3239457511359837|-0.7629601511886918|-1.462312936782837|0.001513625495135784|-0.4393172264099121|0.09472770988941193|0.2123786807060242|0.2273588180541992|XArbitraryZVertical|-0.1137641309424707|-0.3800767193859071|0.7512151090072507|0.52751820129565|-0.2300721108913422|0.6910640597343445|-0.6851988434791565|0|0|0|-1|-1|3
2021-04-22 20:31:05.030 +0100|136930.99604275|-0.2050323486328125|1.050018310546875|-0.4132537841796875|136930.98606275|1.780054355255847|-0.3330492354858826|-0.7595096521485935|1.53163206577301|-0.4858693480491638|-0.1123102605342865|0.04275870323181152|0.5670801401138306|0.2340313792228699|XArbitraryZVertical|-0.1104528672071078|-0.3809691166390039|0.7504144642245401|0.5287163311266051|-0.2370783239603043|0.6885659694671631|-0.6853253841400146|0|0|0|-1|-1|3
2021-04-22 20:31:05.050 +0100|136931.01600475|-0.2817840576171875|0.7175445556640625|-0.6836700439453125|136931.00602375|1.802356115665809|-0.3315167237322453|-0.7168583503279717|2.725296020507812|-0.7924402952194214|0.2341382205486298|0.006890356540679932|0.3773741722106934|0.283427357673645|XArbitraryZVertical|-0.09360641780713143|-0.3671856587407722|0.7600943010386988|0.527891466403881|-0.2453689426183701|0.6570194959640503|-0.7128250598907471|0|0|0|-1|-1|3
2021-04-22 20:31:05.070 +0100|136931.03596675|-0.2532958984375|0.726287841796875|-1.043853759765625|136931.02598575|1.828696614166109|-0.3319042381571762|-0.6794786819910074|1.070706009864807|-0.9010424017906189|0.4601902663707733|-0.01543042063713074|-0.02096545696258545|-0.03869408369064331|XArbitraryZVertical|-0.07720620319139937|-0.3554103187800925|0.7702215894983715|0.5239098108511188|-0.2534741461277008|0.6283875703811646|-0.7354454398155212|0|0|0|-1|-1|3
2021-04-22 20:31:05.090 +0100|136931.05592775|-0.3205413818359375|0.7763519287109375|-1.065078735351562|136931.04594775|1.845836651578928|-0.3379022814061847|-0.6707312622760019|0.5783899426460266|-0.7214977741241455|0.5016593337059021|-0.0008954405784606934|0.221123218536377|-0.360066831111908|XArbitraryZVertical|-0.06918461791342166|-0.3545118580292471|0.7756218302830958|0.5176347717396489|-0.2596931159496307|0.6215590238571167|-0.7390696406364441|0|0|0|-1|-1|3
2021-04-22 20:31:05.110 +0100|136931.07588975|-0.279296875|0.737091064453125|-0.8680419921875|136931.06590875|1.861926429654911|-0.3385589679226385|-0.6646584723322969|0.3429770469665527|-0.3173493146896362|0.5032278299331665|-0.07447868585586548|0.05523747205734253|-0.2812209129333496|XArbitraryZVertical|-0.06425153298381492|-0.3530565712214671|0.7802809030055885|0.5122348014549487|-0.2614272236824036|0.6167903542518616|-0.7424455881118774|0|0|0|-1|-1|3
2021-04-22 20:31:05.130 +0100|136931.09585175|-0.2489776611328125|0.7855224609375|-0.702789306640625|136931.08587075|1.879358029893587|-0.3319576642947028|-0.6582006982623767|0.8928152322769165|-0.1076317727565765|0.5943052768707275|-0.002103984355926514|0.1830903887748718|-0.08897840976715088|XArbitraryZVertical|-0.06184466612427394|-0.3496034748794813|0.7850467406854508|0.507596635479825|-0.2578131854534149|0.6116944551467896|-0.7479053139686584|0|0|0|-1|-1|3
2021-04-22 20:31:05.161 +0100|136931.11581375|-0.2325592041015625|0.8460235595703125|-0.6045684814453125|136931.10583275|1.906218862496754|-0.3168910876465567|-0.6371327410385432|1.800753474235535|-0.06965562701225281|0.7663735151290894|0.01047235727310181|0.2148910164833069|0.1070592403411865|XArbitraryZVertical|-0.05696471929007782|-0.3389156361186399|0.7931258168342646|0.5028348483646813|-0.2504768073558807|0.5948931574821472|-0.7637824416160583|0|0|0|-1|-1|3
2021-04-22 20:31:05.176 +0100|136931.13577475|-0.2432403564453125|0.6619720458984375|-0.6420135498046875|136931.12579375|1.942089152044278|-0.2986374127540312|-0.6019482087421991|2.292831897735596|-0.1803227961063385|0.9295123219490051|0.002164512872695923|0.2470290660858154|0.1910721659660339|XArbitraryZVertical|-0.04818470751722675|-0.322183510720025|0.8044891397331329|0.4966623084251383|-0.242504671216011|0.5662493109703064|-0.7877520322799683|0|0|0|-1|-1|3
2021-04-22 20:31:05.190 +0100|136931.15573675|-0.258636474609375|0.5099945068359375|-0.744598388671875|136931.14575575|1.979453203287929|-0.2820587850685098|-0.5652765301292162|2.025382280349731|-0.2047218233346939|0.9898403286933899|-0.01065972447395325|0.09591209888458252|0.1452088356018066|XArbitraryZVertical|-0.03873718967686915|-0.3048990155884252|0.8162598938615567|0.4891381362767007|-0.235036239027977|0.5356493592262268|-0.811072051525116|0|0|0|-1|-1|3
2021-04-22 20:31:05.210 +0100|136931.17569875|-0.259796142578125|0.540924072265625|-0.8222808837890625|136931.16571775|2.011465651688421|-0.2686653782903004|-0.5404374371911859|1.098248362541199|-0.111336275935173|0.9533612132072449|-0.03483541309833527|-0.04951465129852295|0.06079196929931641|XArbitraryZVertical|-0.03264576869110726|-0.29252875108184|0.8257190538365421|0.481195730111258|-0.22761470079422|0.5145111083984375|-0.8267223834991455|0|0|0|-1|-1|3
2021-04-22 20:31:05.230 +0100|136931.19565975|-0.24468994140625|0.59295654296875|-0.8333587646484375|136931.18567875|2.037141032831539|-0.2566015431075341|-0.5296251606126111|0.598074734210968|-0.00692896731197834|0.908661425113678|-0.03305009007453918|0.07232016324996948|0.008430957794189453|XArbitraryZVertical|-0.03103648420648897|-0.2857736005870961|0.8324955959926339|0.4736258712290835|-0.2190240621566772|0.5052098631858826|-0.8347404003143311|0|0|0|-1|-1|3
2021-04-22 20:31:05.250 +0100|136931.21562175|-0.2071990966796875|0.63421630859375|-0.823974609375|136931.20564075|2.059830341221|-0.2444264158014656|-0.525246194095504|0.3705666661262512|0.08889257907867432|0.8877585530281067|-0.03172469139099121|0.09360581636428833|0.01096165180206299|XArbitraryZVertical|-0.0317523585493427|-0.281513754883511|0.8379832543372794|0.4663968845828786|-0.2093783915042877|0.5014260411262512|-0.8394835591316223|0|0|0|-1|-1|3
2021-04-22 20:31:05.270 +0100|136931.23558375|-0.180694580078125|0.5580596923828125|-0.8292236328125|136931.22560275|2.082165521215242|-0.230672813299804|-0.519991126958269|0.6230127811431885|0.1730758547782898|0.8703566789627075|0.0003852397203445435|0.1529384255409241|0.01546096801757812|XArbitraryZVertical|-0.03306249536105893|-0.2765649804636752|0.843357014682817|0.4595298194711647|-0.1984127312898636|0.4968724250793457|-0.8448373675346375|0|0|0|-1|-1|3
2021-04-22 20:31:05.289 +0100|136931.25554475|-0.153961181640625|0.4002685546875|-0.78973388671875|136931.24556375|2.103742994802817|-0.2160839036972946|-0.5119191063962428|0.5088034868240356|0.2203841954469681|0.7822167277336121|0.01504673063755035|0.02592641115188599|0.02917444705963135|XArbitraryZVertical|-0.03424308481838247|-0.2702989111862253|0.8487038451449862|0.453285474880851|-0.1869206577539444|0.4898512363433838|-0.8515318036079407|0|0|0|-1|-1|3
2021-04-22 20:31:05.309 +0100|136931.27550675|-0.1251220703125|0.38323974609375|-0.756134033203125|136931.26552575|2.121932692118431|-0.202437311328562|-0.5087843065235725|0.1130360811948776|0.2573280036449432|0.7174263000488281|0.02956543862819672|-0.1044406890869141|0.07626724243164062|XArbitraryZVertical|-0.03683017071193647|-0.2662552887599043|0.8528233102452918|0.4477098870305552|-0.175590991973877|0.487115889787674|-0.8555033206939697|0|0|0|-1|-1|3
2021-04-22 20:31:05.329 +0100|136931.29546875|-0.096923828125|0.467315673828125|-0.7333526611328125|136931.28548775|2.137325050984201|-0.1897699501827012|-0.5129533695302757|-0.2455182671546936|0.2459408789873123|0.6855847835540771|0.0436597466468811|-0.07873478531837463|0.1114247441291809|XArbitraryZVertical|-0.04121250793855161|-0.2654674566037681|0.8556386316665298|0.4423927385217059|-0.1643557250499725|0.490752637386322|-0.8556571006774902|0|0|0|-1|-1|3
2021-04-22 20:31:05.349 +0100|136931.31542975|-0.08380126953125|0.509521484375|-0.7307281494140625|136931.30544975|2.150655261347692|-0.1789912101931496|-0.5234545113951211|-0.5584598183631897|0.1643073856830597|0.6399745345115662|0.06261521577835083|-0.01139542460441589|0.1264455914497375|XArbitraryZVertical|-0.04657791552424811|-0.2677689230813198|0.8573800572162729|0.437069678729879|-0.1541974097490311|0.4998750686645508|-0.8522605895996094|0|0|0|-1|-1|3
2021-04-22 20:31:05.370 +0100|136931.33539175|-0.0941314697265625|0.515869140625|-0.7827606201171875|136931.32541075|2.161687953516708|-0.1715863354721207|-0.5382282234779493|-0.5611542463302612|0.07827328145503998|0.5713700652122498|0.06063835322856903|-0.0003322362899780273|0.1031200289726257|XArbitraryZVertical|-0.05177163120391173|-0.272607577824845|0.8581891505930397|0.4318753823364894|-0.1466052979230881|0.5126155018806458|-0.8460096120834351|0|0|0|-1|-1|3
2021-04-22 20:31:05.390 +0100|136931.35535375|-0.0903778076171875|0.5521087646484375|-0.839263916015625|136931.34537275|2.172135058934177|-0.1652769374309923|-0.5465714000013586|-0.2512364089488983|0.0475107878446579|0.4883111119270325|0.03948290646076202|0.01333504915237427|0.04796135425567627|XArbitraryZVertical|-0.05500909869919954|-0.2750256798357429|0.8594393918678899|0.4274328426841979|-0.1405560374259949|0.5197612047195435|-0.8426697254180908|0|0|0|-1|-1|3
2021-04-22 20:31:05.409 +0100|136931.37531475|-0.0997314453125|0.5548095703125|-0.8694305419921875|136931.36533475|2.182283668870665|-0.159469823500695|-0.548378588565216|0.04945749416947365|0.01316740736365318|0.4253920614719391|0.04785017669200897|0.04188239574432373|-0.005021870136260986|XArbitraryZVertical|-0.05653175033854051|-0.2748320517860565|0.8612539230838379|0.4236900820815046|-0.1355108469724655|0.5213042497634888|-0.8425430059432983|0|0|0|-1|-1|3
2021-04-22 20:31:05.429 +0100|136931.39527675|-0.11663818359375|0.5055694580078125|-0.8924407958984375|136931.38529575|2.191716715095081|-0.1542713577061927|-0.5486135077612621|0.04627003520727158|-0.02481315843760967|0.3573736846446991|0.02857227623462677|0.01726782321929932|-0.02950477600097656|XArbitraryZVertical|-0.05753218634831011|-0.274103134213141|0.8630719779497047|0.4203146354605989|-0.131110280752182|0.5215047001838684|-0.8431150317192078|0|0|0|-1|-1|3
2021-04-22 20:31:05.449 +0100|136931.41523875|-0.163238525390625|0.479644775390625|-0.9052276611328125|136931.40525775|2.199356296895794|-0.1503416940952226|-0.5520411531034324|-0.2370697259902954|-0.01992380805313587|0.2953329682350159|-0.0009350478649139404|-0.04723817110061646|-0.04971981048583984|XArbitraryZVertical|-0.05896123500322043|-0.2749506490780327|0.8642010093540483|0.4172318901134195|-0.1275276392698288|0.524426281452179|-0.8418514132499695|0|0|0|-1|-1|3
2021-04-22 20:31:05.469 +0100|136931.43519975|-0.2121124267578125|0.5251007080078125|-0.8861846923828125|136931.42521975|2.204765554146761|-0.1470066336386269|-0.5612111981627701|-0.551832377910614|0.03711561858654022|0.2619038224220276|-0.05427295714616776|-0.0334632396697998|-0.06909102201461792|XArbitraryZVertical|-0.06172778969674337|-0.2782981881512012|0.8642532902729559|0.4144952585908702|-0.1240096688270569|0.5322120189666748|-0.8374795913696289|0|0|0|-1|-1|3
2021-04-22 20:31:05.492 +0100|136931.45516175|-0.22772216796875|0.6005706787109375|-0.819976806640625|136931.44518075|2.208614522213775|-0.1429927505427279|-0.5749855774366058|-0.6824396252632141|0.1043544113636017|0.2301779389381409|-0.0956789031624794|0.009094774723052979|-0.04645538330078125|XArbitraryZVertical|-0.06601703014261039|-0.2834150913232931|0.8634177669798723|0.4121015187130599|-0.1195910274982452|0.543822705745697|-0.8306352496147156|0|0|0|-1|-1|3
2021-04-22 20:31:05.509 +0100|136931.47512375|-0.22735595703125|0.651824951171875|-0.763641357421875|136931.46514275|2.211788871496551|-0.138472930127349|-0.5882964824245139|-0.6000514626502991|0.1227981448173523|0.2048573940992355|-0.1117505952715874|0.06386017799377441|0.02086943387985229|XArbitraryZVertical|-0.07048937857254452|-0.2882170472577539|0.8624163121375419|0.4101222727660785|-0.1148260831832886|0.5549446940422058|-0.8239243626594543|0|0|0|-1|-1|3
2021-04-22 20:31:05.529 +0100|136931.49508475|-0.18206787109375|0.6680908203125|-0.8061065673828125|136931.48510475|2.214849036696861|-0.1343058186518428|-0.5975409680019266|-0.4603263735771179|0.1143829748034477|0.1911899596452713|-0.1178145259618759|0.08600932359695435|0.06662142276763916|XArbitraryZVertical|-0.07389882926984329|-0.2913771725452642|0.8618224409519998|0.4085346820744791|-0.1107000187039375|0.5626112222671509|-0.8192766308784485|0|0|0|-1|-1|3
2021-04-22 20:31:05.549 +0100|136931.51504675|-0.20050048828125|-0.2308349609375|-0.518524169921875|136931.50506575|2.225732330938042|-0.1269912312240459|-0.5830962571263367|2.199714660644531|0.1104899123311043|0.2657659351825714|-0.0263867974281311|0.3814566135406494|-0.2937101721763611|XArbitraryZVertical|-0.07230341137002318|-0.2841694471998377|0.8654493362567074|0.4062235042317692|-0.1057227402925491|0.5506111979484558|-0.8280398845672607|0|0|0|-1|-1|3
2021-04-22 20:31:05.569 +0100|136931.53500875|-0.4539337158203125|1.102203369140625|-0.8966217041015625|136931.52502775|2.22988197516168|-0.1200150209891315|-0.584007655419847|-0.7318938374519348|0.03827936202287674|0.1399670839309692|0.2742467820644379|-1.220866441726685|0.1352806687355042|XArbitraryZVertical|-0.0749337587734516|-0.2832941733886504|0.8659288969680029|0.4053350568700723|-0.09988350421190262|0.5513717532157898|-0.8282586932182312|0|0|0|-1|-1|3
2021-04-22 20:31:05.589 +0100|136931.55497075|-0.04193115234375|0.51055908203125|-1.024215698242188|136931.54498975|2.22512686526618|-0.1161759034201653|-0.6002316205763945|-1.572352886199951|0.3506398797035217|-0.02759315818548203|-0.06611920893192291|-0.2801809310913086|-0.01219081878662109|XArbitraryZVertical|-0.08081706263129287|-0.2892187225486669|0.8628963550319982|0.4064863150830703|-0.09565340727567673|0.5648336410522461|-0.8196422457695007|0|0|0|-1|-1|3
2021-04-22 20:31:05.609 +0100|136931.57493175|-0.05322265625|0.7041778564453125|-0.68536376953125|136931.56495075|2.224681672455147|-0.111672790289064|-0.6196298150040379|-0.3358706831932068|0.1533906608819962|0.04680623859167099|-0.1131788641214371|0.3831638097763062|-0.1214127540588379|XArbitraryZVertical|-0.08705763958975676|-0.2964956477242814|0.8602426210761281|0.4055787016517293|-0.09072325378656387|0.5807338356971741|-0.8090226054191589|0|0|0|-1|-1|3
2021-04-22 20:31:05.629 +0100|136931.59489375|-0.1013946533203125|0.662841796875|-0.624786376953125|136931.58491275|2.225088264742044|-0.1105695802329406|-0.6226800505951566|0.09607409685850143|-0.02124761044979095|-0.0002447138540446758|0.03130153566598892|0.188224196434021|0.1430968642234802|XArbitraryZVertical|-0.08813642535720997|-0.2975786254883305|0.8598950610041501|0.4052894461744733|-0.08963479846715927|0.583214282989502|-0.8073578476905823|0|0|0|-1|-1|3
2021-04-22 20:31:05.649 +0100|136931.61485575|-0.14862060546875|0.62457275390625|-0.70526123046875|136931.60487475|2.225762961694183|-0.1103239796840474|-0.6183774886767363|0.2609632313251495|-0.02570121735334396|0.03679124265909195|0.009070336818695068|0.03233140707015991|0.1626799702644348|XArbitraryZVertical|-0.08720491492079395|-0.295739893223774|0.8605592376444903|0.4054271210627525|-0.08971195667982101|0.5797138810157776|-0.8098664283752441|0|0|0|-1|-1|3
2021-04-22 20:31:05.669 +0100|136931.63481675|-0.159912109375|0.698699951171875|-0.782745361328125|136931.62483575|2.225847962327712|-0.1096414671428088|-0.6153072036788086|0.08821534365415573|-0.00755518302321434|0.08929120749235153|-0.04267969727516174|0.0507049560546875|0.1008925437927246|XArbitraryZVertical|-0.0868175126211501|-0.2943064534648724|0.860928613672285|0.4057690365936472|-0.0893535315990448|0.5772094130516052|-0.8116928339004517|0|0|0|-1|-1|3
2021-04-22 20:31:05.689 +0100|136931.65477875|-0.091827392578125|0.6424560546875|-0.7559356689453125|136931.64479775|2.226511381153824|-0.1086969768786717|-0.6127129065083001|0.1010776087641716|0.01432044804096222|0.01898925751447678|-0.08690910041332245|0.1366114020347595|0.04026764631271362|XArbitraryZVertical|-0.08656200452388343|-0.2930454226042064|0.8613436419816478|0.4058556346182753|-0.08874900639057159|0.5750889778137207|-0.8132628202438354|0|0|0|-1|-1|3
2021-04-22 20:31:05.709 +0100|136931.67474075|0.0346221923828125|0.6788787841796875|-0.7812957763671875|136931.66475975|2.223937176083287|-0.11002418571963|-0.6143065761534872|-0.2788420021533966|0.07511311769485474|-0.1630979925394058|-0.01474831998348236|0.07586014270782471|0.07703310251235962|XArbitraryZVertical|-0.08671562707986913|-0.2938779838383848|0.860681091909259|0.4066254709369539|-0.08972754329442978|0.5763919949531555|-0.8122322559356689|0|0|0|-1|-1|3
2021-04-22 20:31:05.729 +0100|136931.69470225|-0.12744140625|0.4828033447265625|-0.6717071533203125|136931.68472075|2.224586347218819|-0.108100354601145|-0.6185142063677638|-0.3544273972511292|0.04316098988056183|0.1032217517495155|0.1422247141599655|0.1063014268875122|0.02147179841995239|XArbitraryZVertical|-0.08836514319600325|-0.2952948182882275|0.8602058570072634|0.4062495523960277|-0.08790234476327896|0.5798252820968628|-0.8099851608276367|0|0|0|-1|-1|3
2021-04-22 20:31:05.749 +0100|136931.71466425|-0.0268096923828125|0.7381744384765625|-0.72882080078125|136931.70468325|2.222581638833004|-0.1078450211993863|-0.6354857546931074|-1.131391048431396|0.06370642781257629|0.03302775323390961|0.01522895693778992|-0.1373612284660339|0.1422251462936401|XArbitraryZVertical|-0.09247208741767445|-0.3023159387873124|0.8576377207859521|0.4056002649559388|-0.08662375062704086|0.5935685038566589|-0.8001079559326172|0|0|0|-1|-1|3
2021-04-22 20:31:05.769 +0100|136931.73462625|-0.0582733154296875|0.6389007568359375|-0.7344970703125|136931.72464525|2.220588453018876|-0.1081860753715305|-0.654640855353571|-0.8742473125457764|0.02170326374471188|-0.02133890241384506|0.01164904236793518|0.09597480297088623|0.07692837715148926|XArbitraryZVertical|-0.09680505511835526|-0.3103454551573537|0.8547516473302909|0.4046163031539149|-0.08565310388803482|0.6088743805885315|-0.7886289358139038|0|0|0|-1|-1|3
2021-04-22 20:31:05.789 +0100|136931.75458725|-0.042755126953125|0.8134918212890625|-0.726959228515625|136931.74460625|2.219134746751083|-0.1090151823606583|-0.6684045237232918|-0.3903990685939789|-0.004765255376696587|0.06571432948112488|0.04017630219459534|0.05117905139923096|0.03430283069610596|XArbitraryZVertical|-0.09967782551014977|-0.3162088504763539|0.8526567685514573|0.4037979091106151|-0.08538699895143509|0.6197346448898315|-0.7801525592803955|0|0|0|-1|-1|3
2021-04-22 20:31:05.808 +0100|136931.77454925|-0.069427490234375|0.74407958984375|-0.6228179931640625|136931.76456825|2.221035285938178|-0.108879255927622|-0.6670620732592702|0.4913588762283325|-0.08761843293905258|0.02180093340575695|0.01689092814922333|0.2088341116905212|0.0783841609954834|XArbitraryZVertical|-0.09914328550243337|-0.3157140019162094|0.8532148340542244|0.4031375388332645|-0.08537128567695618|0.618680477142334|-0.7809905409812927|0|0|0|-1|-1|3
2021-04-22 20:31:05.828 +0100|136931.79451125|-0.084716796875|0.7700347900390625|-0.733673095703125|136931.78453025|2.222914379674187|-0.1101133864778569|-0.6584007707649928|0.2990734875202179|-0.148980975151062|0.07117602974176407|0.04535681009292603|0.03666108846664429|0.1477534770965576|XArbitraryZVertical|-0.09643755902786497|-0.312424576943068|0.8548150955536209|0.4029664448381982|-0.08692067861557007|0.6118527054786682|-0.7861813902854919|0|0|0|-1|-1|3
2021-04-22 20:31:05.848 +0100|136931.81447225|-0.16650390625|0.540496826171875|-0.8231201171875|136931.80449225|2.228831340163978|-0.1088958843143844|-0.6365050575486171|1.985762357711792|-0.1715792268514633|0.06842036545276642|-0.01184339076280594|0.3653892278671265|0.01326644420623779|XArbitraryZVertical|-0.09129644867132002|-0.3032451810019107|0.8588177177879858|0.4026654585891123|-0.0873987078666687|0.5943885445594788|-0.7994146347045898|0|0|0|-1|-1|3
2021-04-22 20:31:05.868 +0100|136931.83443425|0.0100555419921875|0.2813720703125|-0.9582366943359375|136931.82445325|2.233928708880569|-0.109668799382189|-0.6085476345356617|0.4005194008350372|-0.08870729058980942|0.0645439624786377|-0.03800584375858307|-0.2725278735160828|-0.03875917196273804|XArbitraryZVertical|-0.0841549686014114|-0.291792544237473|0.8633983954731991|0.4028876723932449|-0.08980070799589157|0.5716764330863953|-0.8155500888824463|0|0|0|-1|-1|3
2021-04-22 20:31:05.888 +0100|136931.85439625|-0.1713104248046875|0.627288818359375|-0.832977294921875|136931.84441525|2.235945357391818|-0.109579807793954|-0.6088019170802089|-0.04464687034487724|-0.06660918146371841|0.09830378741025925|0.05696792900562286|-0.1018838882446289|-0.1389628648757935|XArbitraryZVertical|-0.08395399293531525|-0.2919673901742165|0.8637691195445991|0.4020071556112073|-0.0897122249007225|0.5718850493431091|-0.8154135346412659|0|0|0|-1|-1|3
2021-04-22 20:31:05.908 +0100|136931.87435725|-0.0405731201171875|0.5823974609375|-0.681427001953125|136931.86437725|2.236673592675914|-0.1112003188850939|-0.6098007036303609|-0.1407076269388199|-0.1295370161533356|0.006429789122194052|-0.07190117239952087|0.02528780698776245|0.03611916303634644|XArbitraryZVertical|-0.08336310181923533|-0.2927474543967857|0.8638601836339489|0.4013667615697628|-0.09097006916999817|0.5727040767669678|-0.8146990537643433|0|0|0|-1|-1|3
2021-04-22 20:31:05.929 +0100|136931.89431925|-0.145782470703125|0.57647705078125|-0.7327423095703125|136931.88433825|2.238824782877705|-0.1129330168485414|-0.6138843363743304|-0.1883604675531387|-0.1567826420068741|0.1862007081508636|0.03473000228404999|-0.003827154636383057|0.10853511095047|XArbitraryZVertical|-0.08317855301755647|-0.2949178344885202|0.8638584858960051|0.3998168315916587|-0.09211722761392593|0.5760469436645508|-0.8122096061706543|0|0|0|-1|-1|3
2021-04-22 20:31:05.948 +0100|136931.91428125|-0.13665771484375|0.52813720703125|-0.8081207275390625|136931.90430025|2.242052059049775|-0.1146745676772469|-0.6176632214930088|-0.2006787359714508|-0.1811868399381638|0.09830165654420853|-0.05361345410346985|0.01339751482009888|0.04909145832061768|XArbitraryZVertical|-0.08276081742682626|-0.2970030944004605|0.8641042581376712|0.3978237960143494|-0.09328185021877289|0.5791317224502563|-0.8098796010017395|0|0|0|-1|-1|3
2021-04-22 20:31:05.968 +0100|136931.93424325|-0.1014404296875|0.571929931640625|-0.72613525390625|136931.92426225|2.244512225299849|-0.115810105501904|-0.6230811887938528|-0.3164695203304291|-0.0794999971985817|0.1376322060823441|-0.03509820997714996|-0.04604929685592651|0.02380752563476562|XArbitraryZVertical|-0.08306445157772542|-0.2996297575169834|0.8639605192362495|0.396099346002268|-0.09383749216794968|0.5835400819778442|-0.8066446185112|0|0|0|-1|-1|3
2021-04-22 20:31:05.988 +0100|136931.95420425|-0.045745849609375|0.559295654296875|-0.7411956787109375|136931.94422325|2.24469775872586|-0.1167901417629041|-0.6310988213993451|-0.4898681044578552|-0.04320121929049492|-0.05134500563144684|-0.006535619497299194|-0.01141905784606934|0.06475788354873657|XArbitraryZVertical|-0.08432884186637309|-0.3032306181448596|0.8630220864420372|0.395136687804112|-0.09407977759838104|0.5900322794914246|-0.8018797039985657|0|0|0|-1|-1|3
2021-04-22 20:31:06.008 +0100|136931.97416625|-0.1285858154296875|0.549163818359375|-0.751129150390625|136931.96418525|2.241286063827884|-0.1199295281297608|-0.6418003053725065|-0.5692926645278931|-0.07944221049547195|-0.09095588326454163|0.0419122576713562|-0.04491233825683594|0.05846434831619263|XArbitraryZVertical|-0.08578983359972649|-0.3082324905767209|0.8611066929133064|0.3951305535706976|-0.09583575278520584|0.5986384749412537|-0.7952656745910645|0|0|0|-1|-1|3
2021-04-22 20:31:06.028 +0100|136931.99412825|-0.169342041015625|0.57318115234375|-0.76715087890625|136931.98414725|2.235932434082314|-0.1252797808795826|-0.6511129058421397|-0.3498932421207428|-0.06499072909355164|-0.164253443479538|-0.05127590149641037|-0.0508962869644165|0.03079873323440552|XArbitraryZVertical|-0.08632472314359034|-0.3129857045744374|0.8590681677026167|0.3957144784488853|-0.09938830882310867|0.6060720086097717|-0.7891759872436523|0|0|0|-1|-1|3
2021-04-22 20:31:06.048 +0100|136932.01408925|-0.10858154296875|0.6481170654296875|-0.7406158447265625|136932.00410825|2.230985645822187|-0.1289753438945815|-0.6528493769370858|-0.03634192049503326|0.07766676694154739|-0.1360281109809875|-0.06003130972385406|-0.01719659566879272|0.0282214879989624|XArbitraryZVertical|-0.08588991329426834|-0.3142351297269568|0.858020345223851|0.3970898161919028|-0.1021685525774956|0.6074522733688354|-0.7877584099769592|0|0|0|-1|-1|3
2021-04-22 20:31:06.068 +0100|136932.03405125|-0.089202880859375|0.607940673828125|-0.7003936767578125|136932.02407025|2.227621501600667|-0.128590181588021|-0.6515263044718208|0.1306923180818558|0.2128895670175552|-0.1260791569948196|-0.01801067590713501|0.04365414381027222|0.06418293714523315|XArbitraryZVertical|-0.08629532994031568|-0.3134581916510469|0.8575066437660929|0.3987226358806027|-0.1019681170582771|0.6064007878303528|-0.788594126701355|0|0|0|-1|-1|3
2021-04-22 20:31:06.088 +0100|136932.05401325|-0.1179962158203125|0.5674591064453125|-0.661956787109375|136932.04403225|2.227261382782358|-0.1227019670697272|-0.6478254957418482|0.1914390176534653|0.3437346518039703|-0.02781677432358265|-0.003613516688346863|-0.0121452808380127|0.09270262718200684|XArbitraryZVertical|-0.08807065595404799|-0.3107123890573049|0.8576583038053079|0.4001546643693963|-0.09759696573019028|0.6034538745880127|-0.7914027571678162|0|0|0|-1|-1|3
2021-04-22 20:31:06.108 +0100|136932.07397425|-0.1571044921875|0.539031982421875|-0.5937347412109375|136932.06399425|2.227160634424673|-0.1156159201272243|-0.6454224706281925|0.007012628950178623|0.4449091255664825|0.03680633753538132|-0.03733133524656296|-0.07298684120178223|0.1500798463821411|XArbitraryZVertical|-0.09060249300051504|-0.3082773201592469|0.8576335327997835|0.4015234254772982|-0.09215366095304489|0.601535975933075|-0.7935125827789307|0|0|0|-1|-1|3
2021-04-22 20:31:06.128 +0100|136932.09393625|-0.103363037109375|0.63946533203125|-0.56646728515625|136932.08395525|2.22709724734983|-0.1055324411647842|-0.6479726480570073|-0.2774659693241119|0.549115777015686|-0.004876394756138325|-0.05228927731513977|-0.04107123613357544|0.2148703336715698|XArbitraryZVertical|-0.09548718737798365|-0.3073198664669842|0.8568182248384225|0.4028639774928594|-0.08398588001728058|0.6035712361335754|-0.7928733825683594|0|0|0|-1|-1|3
2021-04-22 20:31:06.148 +0100|136932.11389825|-0.1212310791015625|0.75958251953125|-0.561859130859375|136932.10391725|2.224124515053414|-0.09610193110758372|-0.6574094081490749|-0.6989399194717407|0.5778667330741882|-0.1603741049766541|-0.03766072541475296|0.06724590063095093|0.2340312600135803|XArbitraryZVertical|-0.1020220105983372|-0.3092390850437765|0.854496897057345|0.4047193921200354|-0.07595512270927429|0.6110682487487793|-0.7879254221916199|0|0|0|-1|-1|3
2021-04-22 20:31:06.168 +0100|136932.13385925|-0.145477294921875|0.8638916015625|-0.6168060302734375|136932.12387925|2.218210767232433|-0.08918803848716876|-0.6743470704897885|-0.9784975051879883|0.4835420548915863|-0.1002327427268028|-0.05429598689079285|0.1524985432624817|0.2056223750114441|XArbitraryZVertical|-0.1095574242477829|-0.3146300561071291|0.8506189391916783|0.4067586858634049|-0.069573774933815|0.6243874430656433|-0.7780101895332336|0|0|0|-1|-1|3
2021-04-22 20:31:06.188 +0100|136932.15382125|-0.2027740478515625|0.8734283447265625|-0.6462860107421875|136932.14384025|2.211417882174565|-0.08518014537953476|-0.690905638401302|-0.6689815521240234|0.3336232304573059|-0.2960408627986908|-0.06974747776985168|0.2675955295562744|0.1254037022590637|XArbitraryZVertical|-0.1159283653117536|-0.3203483236474635|0.8466834621223571|0.4087357539287755|-0.06556636840105057|0.6372354030609131|-0.7678751349449158|0|0|0|-1|-1|3
2021-04-22 20:31:06.208 +0100|136932.17378325|-0.1756744384765625|0.8567047119140625|-0.6755828857421875|136932.16380225|2.199697764258526|-0.08732853103537808|-0.7014948922770321|-0.4557725489139557|0.295188695192337|-0.4596777260303497|-0.1564740538597107|0.2186533808708191|0.1076470017433167|XArbitraryZVertical|-0.1192229849568757|-0.3245029532742835|0.8428904119530657|0.412334365635103|-0.06662361323833466|0.6453603506088257|-0.7609674334526062|0|0|0|-1|-1|3
2021-04-22 20:31:06.228 +0100|136932.19374425|-0.293182373046875|0.716064453125|-0.668243408203125|136932.18376425|2.186066286711839|-0.09229717741350331|-0.707653369595641|-0.3793803453445435|0.1510224193334579|-0.5210036635398865|-0.1245886385440826|0.1941401362419128|0.1082479953765869|XArbitraryZVertical|-0.1207155450244395|-0.3272616966856467|0.83947836851942|0.4166578233826981|-0.07003611326217651|0.6500523686408997|-0.7566550970077515|0|0|0|-1|-1|3
2021-04-22 20:31:06.248 +0100|136932.21370625|-0.3665771484375|0.6811370849609375|-0.74627685546875|136932.20372525|2.170244959140978|-0.09945539819888305|-0.7153498853888886|-0.4699689447879791|0.1837213635444641|-0.6560077667236328|-0.2359299063682556|0.06074744462966919|0.05405092239379883|XArbitraryZVertical|-0.1220478546887136|-0.3309645452173073|0.8354918627307876|0.4213314693372712|-0.07495157420635223|0.6558815836906433|-0.7511335611343384|0|0|0|-1|-1|3
2021-04-22 20:31:06.268 +0100|136932.23366825|-0.2963409423828125|0.2861480712890625|-0.689178466796875|136932.22368725|2.147898932916512|-0.1085069542565801|-0.7302869485693112|-1.53289794921875|0.4644136428833008|-0.8142046928405762|-0.2901864647865295|-0.01683014631271362|-0.02444350719451904|XArbitraryZVertical|-0.125427974788028|-0.3375899401609107|0.8291552955445882|0.4275539856312489|-0.08067730814218521|0.6670834422111511|-0.7406017184257507|0|0|0|-1|-1|3
2021-04-22 20:31:06.287 +0100|136932.25363025|-0.276824951171875|-0.041717529296875|-0.697174072265625|136932.24364925|2.116058617863001|-0.1191209894327077|-0.8004457098514314|-6.825897216796875|0.5625271797180176|-0.9108417630195618|-0.2582593262195587|-0.3990171551704407|-0.09461987018585205|XArbitraryZVertical|-0.1430359221799773|-0.3658069209610304|0.8124830525375266|0.430810314071102|-0.08275826275348663|0.7176665663719177|-0.6914520263671875|0|0|0|-1|-1|3
2021-04-22 20:31:06.308 +0100|136932.27359125|-0.3307647705078125|0.8434600830078125|-0.782135009765625|136932.26361025|2.047149049381264|-0.1564638757611665|-0.9671262600692283|-9.448919296264648|1.054300665855408|-1.130371689796448|-0.347225546836853|-0.2463684678077698|-0.2396662831306458|XArbitraryZVertical|-0.182086767730631|-0.4318305404616632|0.7726538854791966|0.4282208357639674|-0.08845756947994232|0.8232578039169312|-0.5607336163520813|0|0|0|-1|-1|3
2021-04-22 20:31:06.328 +0100|136932.29355325|-0.2127227783203125|0.71417236328125|-0.42608642578125|136932.28357225|1.918962818639384|-0.2433632699005615|-1.152791148503104|-10.23297691345215|1.497022986412048|-1.411683320999146|-0.2284136116504669|-0.1511745452880859|-0.2535453736782074|XArbitraryZVertical|-0.2271510678204649|-0.5014121130580034|0.719479255686358|0.4234831614465068|-0.09781821072101593|0.9139005541801453|-0.3939765691757202|0|0|0|-1|-1|3
2021-04-22 20:31:06.348 +0100|136932.31351525|-0.0156402587890625|1.169601440429688|-0.308624267578125|136932.30353425|1.610586925455284|-0.5052911118777619|-1.330081894301248|-9.143050193786621|1.659085154533386|-1.32159948348999|-0.09434748440980911|-0.1089241504669189|-0.1459023505449295|XArbitraryZVertical|-0.2721837591669005|-0.5671097907557532|0.6562451677070962|0.4167070542761626|-0.1153987497091293|0.9711679220199585|-0.2086049765348434|0|0|0|-1|-1|3
2021-04-22 20:31:06.368 +0100|136932.33347625|0.0099639892578125|1.311203002929688|0.0790557861328125|136932.32349525|0.9789023132263935|-1.091111514420351|-1.420222218178713|-5.431278705596924|1.847778797149658|-0.9465001821517944|0.1594758033752441|0.1757743954658508|-0.1593637466430664|XArbitraryZVertical|-0.3068677089085683|-0.6092767798407728|0.6033119478002025|0.4130724613919726|-0.133077010512352|0.988685131072998|-0.06922803074121475|0|0|0|-1|-1|3
2021-04-22 20:31:06.388 +0100|136932.35343825|-0.0042877197265625|1.619888305664062|0.0720367431640625|136932.34345725|0.5389134058713038|-1.491266794384812|-1.422403284635137|-0.4974882304668427|1.589953899383545|-0.6120855212211609|0.1676319092512131|0.4470254778862|0.07650458812713623|XArbitraryZVertical|-0.3254177154107241|-0.6230812914657977|0.5750270270672534|0.418589344934198|-0.1473824232816696|0.9890099167823792|-0.01174602936953306|0|0|0|-1|-1|3
2021-04-22 20:31:06.407 +0100|136932.37340025|0.0094146728515625|0.567901611328125|-0.1881256103515625|136932.36341925|0.7647295307727592|-1.237817424267739|-1.402040214742242|3.629393577575684|1.533351898193359|-0.7159098386764526|0.1610373556613922|0.4982147216796875|0.1451088190078735|XArbitraryZVertical|-0.3220030109224897|-0.607342382901508|0.5794113740018583|0.4378721154234035|-0.1587321758270264|0.9857944250106812|-0.05489858239889145|0|0|0|-1|-1|3
2021-04-22 20:31:06.427 +0100|136932.39336125|-0.014373779296875|0.81829833984375|-0.5333099365234375|136932.38338125|1.045948779142599|-0.9329050067635765|-1.355454547954978|2.875803470611572|1.425734400749207|-0.9227433800697327|0.1363846510648727|-0.4639789462089539|-0.1322579234838486|XArbitraryZVertical|-0.3102059430287473|-0.5832223004396232|0.5918076896709065|0.4619391432936986|-0.1716618984937668|0.9769034385681152|-0.1272480487823486|0|0|0|-1|-1|3
2021-04-22 20:31:06.447 +0100|136932.41332325|-0.1004638671875|1.06097412109375|-0.7804107666015625|136932.40334225|1.140456015368421|-0.8102292224792879|-1.311047259297048|1.810752749443054|1.660036206245422|-0.9995101690292358|0.1937723159790039|-0.08130693435668945|-0.4411623477935791|XArbitraryZVertical|-0.3029334278576429|-0.5654270176512648|0.5955311265741918|0.4835974722432758|-0.1860655844211578|0.9664544463157654|-0.1770472526550293|0|0|0|-1|-1|3
2021-04-22 20:31:06.468 +0100|136932.43328525|-0.187225341796875|1.03472900390625|-0.6971435546875|136932.42330425|1.160216560793293|-0.7561106131788718|-1.280203142524552|0.4402605593204498|1.835986375808716|-0.8310990333557129|0.0116303563117981|0.09693419933319092|-0.5359224081039429|XArbitraryZVertical|-0.3020222533003037|-0.551868796723354|0.5929599042199364|0.5026151940155116|-0.1965811103582382|0.9580740928649902|-0.2084467858076096|0|0|0|-1|-1|3
2021-04-22 20:31:06.487 +0100|136932.45324625|0.0051727294921875|0.761322021484375|-0.5793304443359375|136932.44326625|1.086253832280195|-0.7912555598505631|-1.279216448484406|-1.918467283248901|1.690638184547424|-0.7888863682746887|0.1109514981508255|0.0900762677192688|-0.5086179375648499|XArbitraryZVertical|-0.3117133343034747|-0.549360770304788|0.5795545158775045|0.5149312592802432|-0.2044563293457031|0.9577909111976624|-0.2020750790834427|0|0|0|-1|-1|3
2021-04-22 20:31:06.507 +0100|136932.47320825|0.0098724365234375|0.7956695556640625|-0.36114501953125|136932.46322725|0.8699766187251509|-0.9686334701319936|-1.308002918700899|-4.29742956161499|1.379128694534302|-0.8021525740623474|0.2036824226379395|-0.2547148466110229|-0.3671356439590454|XArbitraryZVertical|-0.3325427931917495|-0.561998384524121|0.5528620561514791|0.5176069365328075|-0.2140879333019257|0.9656680822372437|-0.1471462100744247|0|0|0|-1|-1|3
2021-04-22 20:31:06.527 +0100|136932.49317025|0.0142822265625|1.056930541992188|0.047515869140625|136932.48318925|0.4811719598201585|-1.322267063035035|-1.334793729675045|-5.148992538452148|0.9338662028312683|-0.6867761015892029|0.2646148204803467|-0.1607718467712402|-0.2209427356719971|XArbitraryZVertical|-0.3595492071967706|-0.584779579500961|0.5168072689711471|0.5115346142505468|-0.2266347110271454|0.9722803831100464|-0.05751442164182663|0|0|0|-1|-1|3
2021-04-22 20:31:06.547 +0100|136932.51313125|0.032318115234375|1.391342163085938|0.0655364990234375|136932.50315125|0.1089876909686817|-1.668560203374463|-1.33069172159208|-3.106860876083374|0.6503346562385559|-0.4137704968452454|0.2178871333599091|0.2391822934150696|0.08732342720031738|XArbitraryZVertical|-0.3823095042622511|-0.6045207332560972|0.4854301423466048|0.5027444114372108|-0.2366697192192078|0.9713131189346313|0.02321174740791321|0|0|0|-1|-1|3
2021-04-22 20:31:06.567 +0100|136932.53309325|0.0483856201171875|1.156417846679688|0.0094451904296875|136932.52311225|-0.008241524395767204|-1.773069096734982|-1.320284901264969|0.1028425544500351|0.2775143086910248|-0.1757336109876633|0.3169434666633606|0.4013469815254211|0.005511399358510971|XArbitraryZVertical|-0.3901419723958853|-0.6104836793109312|0.4731210985782164|0.5012538715861807|-0.242845818400383|0.9687857627868652|0.04980216175317764|0|0|0|-1|-1|3
2021-04-22 20:31:06.587 +0100|136932.55305525|0.16473388671875|1.019821166992188|-0.2333221435546875|136932.54307425|0.08195918244354|-1.683556549334754|-1.322197045303322|1.741694331169128|-0.09109119325876236|-0.006331279408186674|0.2770629525184631|0.09357798099517822|-0.03915965557098389|XArbitraryZVertical|-0.384536891824527|-0.6049579804423179|0.4790833939342826|0.5065929664495212|-0.2444844394922256|0.9692580103874207|0.02768555842339993|0|0|0|-1|-1|3
2021-04-22 20:31:06.607 +0100|136932.57301725|0.10614013671875|1.1270751953125|-0.3281402587890625|136932.56303625|0.2940131322553081|-1.482707911318096|-1.324031355601146|3.660653829574585|-0.311907023191452|0.1090862154960632|0.4496673345565796|0.1509286761283875|-0.2678624987602234|XArbitraryZVertical|-0.3704715009691521|-0.5933010605587351|0.4958401733237452|0.5146721229860857|-0.2433217316865921|0.969707727432251|-0.02148943766951561|0|0|0|-1|-1|3
2021-04-22 20:31:06.627 +0100|136932.59297825|0.0800018310546875|1.002365112304688|-0.3269195556640625|136932.58299725|0.6258082895237381|-1.166947834192457|-1.30396820834703|4.56486177444458|-0.2081877738237381|-0.03299112245440483|0.2983868718147278|0.0645936131477356|-0.2280056476593018|XArbitraryZVertical|-0.3469877434093406|-0.5725320143977017|0.522251997135617|0.5282608944876598|-0.2424624711275101|0.9646120667457581|-0.1036131978034973|0|0|0|-1|-1|3
2021-04-22 20:31:06.647 +0100|136932.61294025|0.0344390869140625|0.9275360107421875|-0.3007354736328125|136932.60295925|0.8986480050148004|-0.9089737286839071|-1.253524930612736|4.804478168487549|-0.1588637381792068|-0.2644846141338348|0.3387618660926819|0.06228518486022949|-0.1154477596282959|XArbitraryZVertical|-0.3202371951877588|-0.549167421589171|0.548014015464837|0.5436397276359447|-0.2461095154285431|0.950090229511261|-0.1917265653610229|0|0|0|-1|-1|3
2021-04-22 20:31:06.667 +0100|136932.63290225|-0.0370635986328125|0.793914794921875|-0.2525634765625|136932.62292125|1.086752517979849|-0.7354679413059225|-1.184487638300313|4.481421947479248|-0.1836965978145599|-0.3609987199306488|0.2665231823921204|-0.02794444561004639|-0.005773007869720459|XArbitraryZVertical|-0.2916600546920881|-0.5246360333366813|0.5720722335304873|0.5589499302975202|-0.252789318561554|0.9263061285018921|-0.2793828845024109|0|0|0|-1|-1|3
2021-04-22 20:31:06.687 +0100|136932.65286325|-0.1638336181640625|0.777496337890625|-0.255828857421875|136932.64288225|1.201394555534304|-0.634676772695845|-1.115872738654322|3.847916603088379|-0.2027300596237183|-0.3550167381763458|0.1878324151039124|-0.1055542230606079|0.1081617474555969|XArbitraryZVertical|-0.2653236093331622|-0.5026822330358474|0.5918446462477384|0.5715191152394535|-0.2605243027210236|0.8982946276664734|-0.3538279235363007|0|0|0|-1|-1|3
2021-04-22 20:31:06.707 +0100|136932.67282525|-0.24981689453125|0.7751617431640625|-0.2765045166015625|136932.66284425|1.277808592534527|-0.5719503813521488|-1.051346012475089|3.507798194885254|-0.2979964911937714|-0.37362140417099|0.08531045913696289|-0.09750765562057495|0.1664226949214935|XArbitraryZVertical|-0.2409512114742867|-0.4829524103300228|0.6084886645007018|0.5817568635144036|-0.2686896026134491|0.8680921792984009|-0.4173989593982697|0|0|0|-1|-1|3
2021-04-22 20:31:06.727 +0100|136932.692788375|-0.3936309814453125|0.724273681640625|-0.3792724609375|136932.68280625|1.332201483684581|-0.5334343536694477|-0.9892725815106783|3.248233795166016|-0.5124368667602539|-0.4458397626876831|-0.0008359253406524658|-0.06424862146377563|0.1667684614658356|XArbitraryZVertical|-0.2166952981823249|-0.4653518472707095|0.6230034522000517|0.5902181952511837|-0.2793144285678864|0.8356266021728516|-0.4729816019535065|0|0|0|-1|-1|3
2021-04-22 20:31:06.747 +0100|136932.712749375|-0.4933013916015625|0.7512359619140625|-0.5092926025390625|136932.702769375|1.369217927837261|-0.514352776962077|-0.9344454849675659|2.550764083862305|-0.6119613647460938|-0.4546419680118561|-0.1399192810058594|-0.08677035570144653|0.09958803653717041|XArbitraryZVertical|-0.1938361182667003|-0.4513765560057724|0.6347731060831249|0.5964478609892471|-0.2923612594604492|0.8042696714401245|-0.5173735022544861|0|0|0|-1|-1|3
2021-04-22 20:31:06.767 +0100|136932.732711375|-0.503173828125|0.700775146484375|-0.5988922119140625|136932.722730375|1.393136105891667|-0.5073762650087512|-0.8898402009684729|2.134490251541138|-0.5934889316558838|-0.4434411525726318|-0.2041718661785126|-0.0287100076675415|0.01205146312713623|XArbitraryZVertical|-0.1742137412003421|-0.4410613814451815|0.643445013506764|0.6009103060648865|-0.3058827221393585|0.776971161365509|-0.5502288341522217|0|0|0|-1|-1|3
2021-04-22 20:31:06.787 +0100|136932.752673375|-0.50860595703125|0.6524200439453125|-0.6181640625|136932.742692375|1.410231775111137|-0.5054087329355459|-0.8528040415008701|1.574216246604919|-0.5087089538574219|-0.3880616724491119|-0.1920842230319977|-0.09274238348007202|-0.02540385723114014|XArbitraryZVertical|-0.1574301866096291|-0.4329012982033685|0.6500974950771315|0.6043058649151617|-0.318519651889801|0.7531280517578125|-0.575624406337738|0|0|0|-1|-1|3
2021-04-22 20:31:06.807 +0100|136932.772634375|-0.524749755859375|0.700592041015625|-0.5849456787109375|136932.762654375|1.420589131246528|-0.507202753899742|-0.8270663745345614|1.074546456336975|-0.4317996501922607|-0.243576854467392|-0.182460755109787|-0.05037045478820801|-0.02872586250305176|XArbitraryZVertical|-0.1451179330629645|-0.4278307897094706|0.6544339518879393|0.6063150612991062|-0.3288603127002716|0.735948383808136|-0.5918031930923462|0|0|0|-1|-1|3
2021-04-22 20:31:06.827 +0100|136932.792596375|-0.46771240234375|0.69873046875|-0.531646728515625|136932.782615375|1.428822483345817|-0.5087664412120456|-0.8102789969592941|0.6731865406036377|-0.3473792970180511|-0.08184059709310532|-0.1804168820381165|-0.02640461921691895|0.03174287080764771|XArbitraryZVertical|-0.1366608708436596|-0.4246488694283264|0.6576906446218714|0.6069928274865867|-0.3357564806938171|0.7244794964790344|-0.6019942760467529|0|0|0|-1|-1|3
2021-04-22 20:31:06.847 +0100|136932.812558375|-0.4438934326171875|0.733734130859375|-0.5018768310546875|136932.802577375|1.434967323380487|-0.5108786128769099|-0.8021292300205506|0.2181519567966461|-0.315196692943573|0.039579838514328|-0.1243753135204315|-0.01217234134674072|0.08584541082382202|XArbitraryZVertical|-0.1316608059128388|-0.423625240644067|0.6599983455182541|0.6063079878386387|-0.3399029076099396|0.7188379168510437|-0.6064141988754272|0|0|0|-1|-1|3
2021-04-22 20:31:06.867 +0100|136932.832520375|-0.445770263671875|0.796661376953125|-0.482147216796875|136932.822539375|1.436903680063866|-0.5158761957704653|-0.8030201855974916|-0.1848658621311188|-0.3394515216350555|0.09950736165046692|-0.1026983559131622|0.03786778450012207|0.1058595776557922|XArbitraryZVertical|-0.1299272425250971|-0.425492232473788|0.6608789690200449|0.6044123645049219|-0.342613160610199|0.7194569706916809|-0.6041505336761475|0|0|0|-1|-1|3
2021-04-22 20:31:06.886 +0100|136932.852481375|-0.4218292236328125|0.8230133056640625|-0.476165771484375|136932.842500375|1.434416150043293|-0.5251023004095938|-0.8095743783325204|-0.4360078573226929|-0.4168796241283417|0.06671372801065445|-0.09102645516395569|0.07855820655822754|0.115639328956604|XArbitraryZVertical|-0.1298230589488296|-0.4297795923252979|0.6604950074659272|0.6018156346206059|-0.3458012044429779|0.7239936590194702|-0.5968709588050842|0|0|0|-1|-1|3
2021-04-22 20:31:06.906 +0100|136932.872443375|-0.4108734130859375|0.8362274169921875|-0.47442626953125|136932.862462375|1.428159890428084|-0.5385159570526754|-0.8178040206060393|-0.4644561111927032|-0.4775452613830566|-0.03074882552027702|-0.07333242893218994|0.1006768345832825|0.1049730777740479|XArbitraryZVertical|-0.1297832061302562|-0.4354702856862755|0.6592058292539763|0.5991407800795113|-0.3507083356380463|0.7296459078788757|-0.5870438814163208|0|0|0|-1|-1|3
2021-04-22 20:31:06.926 +0100|136932.892405375|-0.440277099609375|0.81365966796875|-0.431427001953125|136932.882424375|1.419292780495784|-0.5556425251312687|-0.8240107723298818|-0.3832718133926392|-0.5828790068626404|-0.175345778465271|-0.05644878745079041|0.09356272220611572|0.1164150834083557|XArbitraryZVertical|-0.1283828845686524|-0.441555506116191|0.6574629493910441|0.596899677862626|-0.3583146929740906|0.7338761687278748|-0.5770931243896484|0|0|0|-1|-1|3
2021-04-22 20:31:06.946 +0100|136932.912366375|-0.4441070556640625|0.861297607421875|-0.3780975341796875|136932.902385375|1.407208994452311|-0.5767240371555952|-0.8269399391131227|-0.2594775557518005|-0.6450875401496887|-0.3601236939430237|-0.06950861215591431|0.08731895685195923|0.1388505697250366|XArbitraryZVertical|-0.1252380068797557|-0.4477854731117045|0.6551161125119663|0.5955053317355484|-0.3692263960838318|0.7358627319335938|-0.5676072239875793|0|0|0|-1|-1|3
2021-04-22 20:31:06.966 +0100|136932.932328375|-1.00408935546875|1.648651123046875|-0.398712158203125|136932.922347375|1.400695023128219|-0.5961125676934116|-0.8225930415683298|1.224035143852234|-0.6267111301422119|0.08086887001991272|-0.0813022255897522|0.1375105381011963|0.3606829643249512|XArbitraryZVertical|-0.1187376109017185|-0.4521165791143349|0.6544601436938745|0.5942844642632117|-0.3819536566734314|0.7329124212265015|-0.5629839301109314|0|0|0|-1|-1|3
2021-04-22 20:31:06.986 +0100|136932.952290375|-0.1636199951171875|0.9704742431640625|-0.3555755615234375|136932.942309375|1.408115815059156|-0.5995981588542567|-0.8150118844424235|-0.005343040451407433|-0.6698317527770996|-0.1455802470445633|-0.3326417207717896|0.8968701362609863|-0.1131926774978638|XArbitraryZVertical|-0.1130939662363688|-0.4517739206956352|0.6570140569807695|0.5928261304526351|-0.3870381116867065|0.7277337312698364|-0.5662201642990112|0|0|0|-1|-1|3
2021-04-22 20:31:07.006 +0100|136932.972251375|-0.4063262939453125|1.178298950195312|-0.6196136474609375|136932.962271375|1.4030119132541|-0.616029594915639|-0.8213416083668031|-1.388496518135071|-0.5573332905769348|0.2129459381103516|-0.05401107668876648|-0.02495229244232178|0.1084428429603577|XArbitraryZVertical|-0.1112173140267142|-0.4578470015278184|0.656313756730123|0.5892871767273279|-0.3936198353767395|0.732060432434082|-0.5560136437416077|0|0|0|-1|-1|3
2021-04-22 20:31:07.026 +0100|136932.992213375|-0.464599609375|0.7110443115234375|-0.68865966796875|136932.982232375|1.372247170814425|-0.6505861977925018|-0.8517568344706264|-1.825857162475586|-0.6017240881919861|0.08580619841814041|0.1658436954021454|0.3584626913070679|-0.1487196087837219|XArbitraryZVertical|-0.1184860687212904|-0.4731836286537999|0.6488462108170653|0.5840007978651032|-0.3989207744598389|0.7524387240409851|-0.5241166353225708|0|0|0|-1|-1|3
2021-04-22 20:31:07.046 +0100|136933.012175375|-0.35345458984375|0.71417236328125|-0.823516845703125|136933.002194375|1.33080495749084|-0.6882564569473186|-0.8880620249922037|-2.77939248085022|-0.08759739249944687|-0.02447637356817722|-0.1222714781761169|0.00387418270111084|-0.3284279108047485|XArbitraryZVertical|-0.1300364104307992|-0.489330873564797|0.6388331984093824|0.5792565701114619|-0.4007530808448792|0.7758504748344421|-0.4872916638851166|0|0|0|-1|-1|3
2021-04-22 20:31:07.066 +0100|136933.032137375|-0.4956207275390625|0.76336669921875|-1.129119873046875|136933.022156375|1.270518510901922|-0.7340309308327917|-0.9291235734178752|-2.488695859909058|0.3061367571353912|-0.1169255301356316|0.003343015909194946|-0.03527176380157471|-0.4615432620048523|XArbitraryZVertical|-0.1462520575502989|-0.5063690322864269|0.6245727325117795|0.576289653629623|-0.4009403884410858|0.8010956645011902|-0.4444014728069305|0|0|0|-1|-1|3
2021-04-22 20:31:07.086 +0100|136933.052098375|-0.4053802490234375|0.7055511474609375|-1.258529663085938|136933.042117375|1.21385568867995|-0.7679974791080199|-0.9578820032969407|-1.852043628692627|0.9171733856201172|-0.3144147098064423|-0.0661163330078125|-0.1858487129211426|-0.7135069370269775|XArbitraryZVertical|-0.1613401442328606|-0.5167962693830271|0.6111217740592454|0.5774263848009182|-0.3996266424655914|0.8179750442504883|-0.4137819409370422|0|0|0|-1|-1|3
2021-04-22 20:31:07.106 +0100|136933.072060375|-0.37469482421875|0.5714569091796875|-1.348876953125|136933.062079375|1.176385688334087|-0.7739167015036866|-0.9685025242576999|-0.4206045567989349|1.556311249732971|-0.4661462008953094|0.003198891878128052|-0.1127797365188599|-0.8911523818969727|XArbitraryZVertical|-0.1733572264380426|-0.5170693185120991|0.6009141913984086|0.5843704578862748|-0.3959744274616241|0.8240382671356201|-0.4051731824874878|0|0|0|-1|-1|3
2021-04-22 20:31:07.126 +0100|136933.092022375|-0.3808746337890625|0.6120147705078125|-1.375747680664062|136933.082041375|1.164995225100208|-0.7462997859577235|-0.9594498858387556|0.6000349521636963|2.143532276153564|-0.6173510551452637|0.008062630891799927|-0.2354250550270081|-0.9485363960266113|XArbitraryZVertical|-0.1809942210350158|-0.5064925677397701|0.5949388289163563|0.5972891052774275|-0.3896839916706085|0.8188759684562683|-0.4214127361774445|0|0|0|-1|-1|3
2021-04-22 20:31:07.146 +0100|136933.111983375|-0.3758392333984375|0.558074951171875|-1.369613647460938|136933.102002375|1.170506424021025|-0.693925153255473|-0.9343790428024242|1.391444325447083|2.646210670471191|-0.8050044178962708|-0.007806211709976196|-0.2004087567329407|-0.9145369529724121|XArbitraryZVertical|-0.1853382181681678|-0.4870433632355408|0.5914822152852058|0.615294607310767|-0.3801017999649048|0.8042302131652832|-0.4568770229816437|0|0|0|-1|-1|3
2021-04-22 20:31:07.166 +0100|136933.131945375|-0.342529296875|0.4745025634765625|-1.357711791992188|136933.121964375|1.177854751335083|-0.6303983878741737|-0.8993764037419176|1.521525502204895|3.137826204299927|-1.001116514205933|0.0009997189044952393|-0.237742006778717|-0.8746246695518494|XArbitraryZVertical|-0.1885699438316308|-0.4617121431406598|0.5876549319664478|0.6371224456084973|-0.3667062222957611|0.7829391360282898|-0.5025265216827393|0|0|0|-1|-1|3
2021-04-22 20:31:07.186 +0100|136933.151907375|-0.29510498046875|0.5476226806640625|-1.244155883789062|136933.141926375|1.169996680215752|-0.5686222120653858|-0.868016337839378|0.6935133934020996|3.653199911117554|-1.181583881378174|0.01402255892753601|-0.3105024695396423|-0.80242520570755|XArbitraryZVertical|-0.1959817836539621|-0.4350555480542619|0.5792275172091769|0.660918635734884|-0.3480365574359894|0.7630482912063599|-0.5446355938911438|0|0|0|-1|-1|3
2021-04-22 20:31:07.206 +0100|136933.171868375|-0.2877197265625|0.840087890625|-0.848907470703125|136933.161888375|1.144096717283487|-0.5111448008648827|-0.8483741232386058|0.2976265251636505|4.030781269073486|-1.294461488723755|0.03342217206954956|-0.1317821741104126|-0.588865339756012|XArbitraryZVertical|-0.210088369194616|-0.4092881480127746|0.5648336823209174|0.685061478930605|-0.3234451115131378|0.7502063512802124|-0.5766921639442444|0|0|0|-1|-1|3
2021-04-22 20:31:07.226 +0100|136933.191830375|-0.2574005126953125|0.9896240234375|-0.370513916015625|136933.181849375|1.114236523567027|-0.4511491876371047|-0.8264990875916682|0.7936699390411377|4.155349731445312|-1.517806053161621|0.01126793026924133|0.146257221698761|-0.1222443580627441|XArbitraryZVertical|-0.2239181877681227|-0.3808199977147257|0.5482045112501779|0.7101470732655316|-0.295370489358902|0.7355641722679138|-0.6096735596656799|0|0|0|-1|-1|3
2021-04-22 20:31:07.246 +0100|136933.211792375|-0.1533966064453125|1.085433959960938|0.056793212890625|136933.201811375|1.081429292824651|-0.3933473596962788|-0.791431528411814|1.480777978897095|3.944222688674927|-2.027282476425171|0.02217453718185425|0.2934013605117798|0.4014429450035095|XArbitraryZVertical|-0.2312942704063102|-0.3491792069513034|0.5303911506133775|0.7370632128004868|-0.2693814337253571|0.7113600969314575|-0.6491537094116211|0|0|0|-1|-1|3
2021-04-22 20:31:07.266 +0100|136933.231753375|-0.112548828125|1.031051635742188|0.35406494140625|136933.221773375|1.038732149429495|-0.3498388119467538|-0.743521742112277|1.729036092758179|3.348421812057495|-2.540653467178345|0.1376686990261078|0.4073143601417542|0.8197535872459412|XArbitraryZVertical|-0.2300679568045861|-0.3183037243807433|0.5102497166221208|0.7651123067150436|-0.2522919774055481|0.6768844127655029|-0.6915029287338257|0|0|0|-1|-1|3
2021-04-22 20:31:07.286 +0100|136933.251715375|-0.248809814453125|1.206146240234375|0.3707427978515625|136933.241734375|0.9835363524769419|-0.3271719524035233|-0.6956408359605493|1.535945534706116|2.528627395629883|-2.96746826171875|0.1067416667938232|0.4309312105178833|1.095698475837708|XArbitraryZVertical|-0.2241534498301902|-0.2937574508905934|0.4869152923035642|0.7914388883390571|-0.2466946542263031|0.6408774852752686|-0.7269235849380493|0|0|0|-1|-1|3
2021-04-22 20:31:07.306 +0100|136933.271677375|-0.5570526123046875|1.055389404296875|0.44476318359375|136933.261696375|0.9150286525315607|-0.3284999754800489|-0.6552617599019874|0.1979478001594543|1.65032422542572|-3.454876899719238|-0.08139890432357788|0.5512022972106934|1.163134574890137|XArbitraryZVertical|-0.2164343524701482|-0.2791251848297182|0.4598012843983212|0.8147564598579875|-0.2558045089244843|0.6093668341636658|-0.7504906058311462|0|0|0|-1|-1|3
2021-04-22 20:31:07.326 +0100|136933.291639375|-0.770477294921875|1.375885009765625|0.703521728515625|136933.281658375|0.8203907367712486|-0.3612482297722296|-0.6557227263194866|-2.766375541687012|0.9533490538597107|-3.776219367980957|-0.3626503348350525|0.4982398748397827|1.224268913269043|XArbitraryZVertical|-0.2226774291706586|-0.2822939694904408|0.4244539545073949|0.8310017292916556|-0.2801409363746643|0.6097322702407837|-0.741449773311615|0|0|0|-1|-1|3
2021-04-22 20:31:07.346 +0100|136933.311600375|-1.03851318359375|1.699188232421875|0.9515228271484375|136933.301619375|0.7021764641693232|-0.4260926208036255|-0.6939665660159874|-3.901327848434448|0.01474911160767078|-3.287976980209351|-0.5040852427482605|0.9293487668037415|1.514771938323975|XArbitraryZVertical|-0.2437148636557393|-0.3010179457210581|0.383627149814271|0.8383445426036649|-0.3177222311496735|0.6395913362503052|-0.6999825239181519|0|0|0|-1|-1|3
2021-04-22 20:31:07.366 +0100|136933.331562375|-0.8887786865234375|1.670623779296875|1.144119262695312|136933.321581375|0.5740022336100626|-0.5178849770585741|-0.7420404576093487|-4.95334529876709|-0.8654648661613464|-3.094528913497925|-0.6426604986190796|0.9030802249908447|1.667474389076233|XArbitraryZVertical|-0.2685909860303358|-0.3280873890990719|0.3440616380801662|0.8377584785748733|-0.3648922741413116|0.6757933497428894|-0.6404350996017456|0|0|0|-1|-1|3
2021-04-22 20:31:07.386 +0100|136933.351524375|-0.8811187744140625|1.657470703125|1.281707763671875|136933.341543375|0.4284924842351617|-0.6478136094185103|-0.7973628440842462|-5.433748722076416|-2.017465353012085|-2.639848947525024|-0.4982050061225891|1.014968633651733|1.721249461174011|XArbitraryZVertical|-0.2972413518949373|-0.3648499884390813|0.3064774683227425|0.8274078785921426|-0.4215639531612396|0.7155162692070007|-0.5570641160011292|0|0|0|-1|-1|3
2021-04-22 20:31:07.405 +0100|136933.371485375|-1.184158325195312|2.03863525390625|1.174102783203125|136933.361505375|0.2783205983355901|-0.8100940623470256|-0.842521669362754|-4.396904945373535|-3.142397880554199|-1.935715079307556|-0.4317778944969177|1.129317760467529|1.674587488174438|XArbitraryZVertical|-0.3223085133121374|-0.4082654347435682|0.2759205214145422|0.8082725501235258|-0.4821164309978485|0.7463238835334778|-0.4588731229305267|0|0|0|-1|-1|3
2021-04-22 20:31:07.425 +0100|136933.391447375|-1.0928955078125|2.215545654296875|1.176239013671875|136933.381466375|0.1722537917587121|-0.9608667498236318|-0.8613323074434588|-2.348549842834473|-3.986100196838379|-0.988236665725708|-0.6824780702590942|1.334703922271729|1.571829438209534|XArbitraryZVertical|-0.3327180877780371|-0.4502518364932421|0.261544038404665|0.7862358394680073|-0.5339673757553101|0.7587111592292786|-0.3731439113616943|0|0|0|-1|-1|3
2021-04-22 20:31:07.445 +0100|136933.411409375|-0.957275390625|2.387481689453125|0.9991455078125|136933.401428375|0.1288122610120368|-1.084697721327866|-0.8722248191211514|-0.416009396314621|-5.117773532867432|0.518467128276825|-0.4503702521324158|1.580338954925537|1.433893918991089|XArbitraryZVertical|-0.3309403140862809|-0.4901540946596944|0.2675450082950874|0.7606886839647024|-0.5686264634132385|0.76576167345047|-0.3004549443721771|0|0|0|-1|-1|3
2021-04-22 20:31:07.465 +0100|136933.431370375|-1.265762329101562|2.495361328125|0.7598724365234375|136933.421390375|0.1536259439980794|-1.182315698968042|-0.8974229756378853|0.5818148255348206|-6.613790988922119|2.479989051818848|-0.3663385510444641|1.591493129730225|1.1862473487854|XArbitraryZVertical|-0.3205905645181096|-0.5283106810044074|0.2984638508805403|0.727343810609094|-0.5771576166152954|0.7817224264144897|-0.2362190335988998|0|0|0|-1|-1|3
2021-04-22 20:31:07.485 +0100|136933.451332375|-1.649932861328125|2.240188598632812|0.4578399658203125|136933.441351375|0.2173349118731861|-1.273326932742373|-0.9592469250594643|0.8495062589645386|-7.454489231109619|4.607212066650391|-0.8695499897003174|1.681653261184692|0.8254925608634949|XArbitraryZVertical|-0.3116496361248027|-0.5645655345878282|0.3500845356159649|0.6793977233302479|-0.5489216446876526|0.8187594413757324|-0.1682805269956589|0|0|0|-1|-1|3
2021-04-22 20:31:07.505 +0100|136933.471294375|-2.077255249023438|2.055282592773438|0.07269287109375|136933.461313375|0.2952480505009707|-1.357095988610761|-1.062957367891053|0.5037304162979126|-7.39223051071167|6.46388053894043|-1.256780505180359|1.306943535804749|0.4851203560829163|XArbitraryZVertical|-0.3106645810307691|-0.5932300587775801|0.41335615468658|0.6170108720844363|-0.4752285480499268|0.8737974166870117|-0.1031312271952629|0|0|0|-1|-1|3
2021-04-22 20:31:07.525 +0100|136933.491256375|-2.613525390625|1.805526733398438|-0.62457275390625|136933.481275375|0.363457320219383|-1.434377659683305|-1.204833273289303|-0.3159339129924774|-6.529641628265381|7.852970600128174|-1.837613224983215|1.174527883529663|0.2016053199768066|XArbitraryZVertical|-0.3221383473756755|-0.6098310171135644|0.4785299505963221|0.5434540107241491|-0.3545245230197906|0.9337795376777649|-0.04866603016853333|0|0|0|-1|-1|3
2021-04-22 20:31:07.546 +0100|136933.511217375|-2.703933715820312|1.289352416992188|-0.93548583984375|136933.501236375|0.4246867575998277|-1.498498798608664|-1.368669859479912|0.1015144810080528|-5.788156509399414|8.550864219665527|-2.431544780731201|0.7996858358383179|-0.617456316947937|XArbitraryZVertical|-0.3412493255684774|-0.6134315142206843|0.5404524264081639|0.4638555656330353|-0.2002291977405548|0.9796419143676758|-0.01450135000050068|0|0|0|-1|-1|3
2021-04-22 20:31:07.565 +0100|136933.531179375|-2.664215087890625|0.6413421630859375|-1.042434692382812|136933.521198375|0.8139861821787038|-1.217578220028738|-1.537596392416774|0.810265064239502|-4.922263622283936|8.489128112792969|-2.759989976882935|-0.008375227451324463|-0.9230412244796753|XArbitraryZVertical|-0.3610634267770133|-0.6032343252884221|0.5985289911050997|0.3840633639421273|-0.03114655055105686|0.9994489550590515|-0.01148310117423534|0|0|0|-1|-1|3
2021-04-22 20:31:07.585 +0100|136933.551141375|-2.160659790039062|0.0133819580078125|-0.88421630859375|136933.541160375|-2.942866911169726|1.220403248095489|-1.434201699694375|2.109650850296021|-3.789883375167847|7.667179107666016|-2.718563556671143|-0.6433802247047424|-0.9798988103866577|XArbitraryZVertical|-0.3763437995593115|-0.5787865357682054|0.6520052619875379|0.3134656617011524|0.12789686024189|0.9906854629516602|-0.04674297943711281|0|0|0|-1|-1|3
2021-04-22 20:31:07.605 +0100|136933.571102375|-1.734039306640625|-0.397796630859375|-0.74908447265625|136933.561122375|-2.908425892841464|1.1899580569991|-1.284451574812306|2.437481880187988|-2.705748796463013|6.577232837677002|-2.280399084091187|-0.9918299317359924|-0.7416940927505493|XArbitraryZVertical|-0.3880745443894006|-0.5448902159002756|0.6977110112431106|0.2563049983529005|0.2622115910053253|0.9592826962471008|-0.1049856022000313|0|0|0|-1|-1|3
2021-04-22 20:31:07.625 +0100|136933.591064375|-1.333145141601562|-0.543243408203125|-0.833526611328125|136933.581083375|-2.888070514956553|1.162112146902042|-1.1582626761536|1.697832942008972|-2.024183511734009|5.362060070037842|-1.984519720077515|-1.341416478157043|-0.6181497573852539|XArbitraryZVertical|-0.3978802522697543|-0.5118844203698532|0.7319491471634594|0.2095620637363686|0.3679130971431732|0.9161079525947571|-0.1593312919139862|0|0|0|-1|-1|3
2021-04-22 20:31:07.645 +0100|136933.611026375|-1.191162109375|-0.3243255615234375|-0.957183837890625|136933.601045375|-2.845307346028767|1.165436835937237|-1.062835734408061|0.3790866434574127|-1.476625919342041|4.190321922302246|-1.71258819103241|-1.425984740257263|-0.670982837677002|XArbitraryZVertical|-0.4067539147530781|-0.4885142727804155|0.7530956145571749|0.1695648971474153|0.446979433298111|0.8737382888793945|-0.1918101161718369|0|0|0|-1|-1|3
2021-04-22 20:31:07.665 +0100|136933.630987375|-1.032318115234375|-0.2132415771484375|-1.011795043945312|136933.621007375|-2.781932872799795|1.194596455518898|-0.9968559541217705|-0.86630779504776|-1.067816376686096|3.171540260314941|-1.668045520782471|-1.150880098342896|-0.7706208229064941|XArbitraryZVertical|-0.4153190973031431|-0.4772567743754333|0.7626356104481584|0.1346218741024004|0.5049758553504944|0.83976811170578|-0.199472039937973|0|0|0|-1|-1|3
2021-04-22 20:31:07.685 +0100|136933.650949375|-0.8403167724609375|-0.07830810546875|-0.9141387939453125|136933.640968375|-2.70347622163349|1.242106111685591|-0.9556061845528324|-1.895676374435425|-0.6614136695861816|2.246281385421753|-1.541029930114746|-1.0210862159729|-0.8052979707717896|XArbitraryZVertical|-0.4231095583619573|-0.4773164907810949|0.763074010411197|0.1042379077651533|0.5462188720703125|0.8166637420654297|-0.1862945407629013|0|0|0|-1|-1|3
2021-04-22 20:31:07.705 +0100|136933.670911375|-0.650726318359375|0.111419677734375|-0.681610107421875|136933.660930375|-2.611745293739961|1.306742311417223|-0.9346189972824439|-2.434907913208008|-0.3085990846157074|1.35358738899231|-1.354156136512756|-0.8245301842689514|-0.7210190892219543|XArbitraryZVertical|-0.430100618817629|-0.4873204874058017|0.7558730995149472|0.07866517249513637|0.5735327005386353|0.8043727874755859|-0.1550644040107727|0|0|0|-1|-1|3
2021-04-22 20:31:07.725 +0100|136933.690873375|-0.481048583984375|0.2820281982421875|-0.3956451416015625|136933.680892375|-2.532264785479363|1.367447610952435|-0.9270585700040496|-1.930354714393616|-0.05153324082493782|0.5025023818016052|-1.206840753555298|-0.6525195837020874|-0.4791488647460938|XArbitraryZVertical|-0.4350347016105269|-0.5001405887135433|0.7462121096135869|0.06141586060770002|0.587823212146759|0.7998579740524292|-0.1212083995342255|0|0|0|-1|-1|3
2021-04-22 20:31:07.745 +0100|136933.710834875|-0.3758697509765625|0.428558349609375|-0.323089599609375|136933.700853875|-2.490483738119935|1.400076627886902|-0.9300490873839607|-0.3651221990585327|-0.0476294681429863|-0.3320419192314148|-1.033592104911804|-0.480742335319519|-0.2522148489952087|XArbitraryZVertical|-0.4358919660493445|-0.5091345903190192|0.7400978660487577|0.0550944294822723|0.5891044735908508|0.801649272441864|-0.1015603244304657|0|0|0|-1|-1|3
2021-04-22 20:31:07.765 +0100|136933.730796875|-0.28009033203125|0.4855804443359375|-0.3498992919921875|136933.720815875|-2.505907930669391|1.386669707693501|-0.9420875765573575|0.8595422506332397|-0.03561019897460938|-1.027009725570679|-0.9271581768989563|-0.3390921354293823|-0.2309794276952744|XArbitraryZVertical|-0.4318976455748155|-0.5095363688016221|0.741671550242612|0.06132275892393417|0.5781600475311279|0.8087875843048096|-0.1076742261648178|0|0|0|-1|-1|3
2021-04-22 20:31:07.785 +0100|136933.750758875|-0.2690277099609375|0.8032684326171875|-0.1942291259765625|136933.740777875|-2.560985427926943|1.341688394168927|-0.9642984067834781|1.976920366287231|0.03972194343805313|-1.77867603302002|-0.8145894408226013|-0.2904607653617859|-0.2153676748275757|XArbitraryZVertical|-0.4237692946984658|-0.5056622096016207|0.7474717533604988|0.07753367113769376|0.5550994873046875|0.8216491937637329|-0.1294506341218948|0|0|0|-1|-1|3
2021-04-22 20:31:07.805 +0100|136933.770719875|-0.301849365234375|0.8433837890625|-0.168182373046875|136933.760739875|-2.66750629771768|1.255999871815815|-0.9923305761259791|2.887935638427734|0.1819288432598114|-2.514405727386475|-0.8051044940948486|0.007896482944488525|-0.03320096433162689|XArbitraryZVertical|-0.4117693566445243|-0.4957866231310118|0.7574074782107678|0.1047643263827799|0.5198729038238525|0.8373024463653564|-0.1692832410335541|0|0|0|-1|-1|3
2021-04-22 20:31:07.825 +0100|136933.790681875|-0.3047027587890625|0.8794097900390625|-0.187652587890625|136933.780700875|-2.797884741835646|1.152236849534765|-1.02580325487086|2.018640518188477|0.4363687932491302|-3.103247404098511|-0.7916222810745239|0.002305805683135986|0.03570282459259033|XArbitraryZVertical|-0.3973115205756416|-0.4866113166945834|0.7656299926510058|0.1384334949449789|0.4736606180667877|0.8551309108734131|-0.21070596575737|0|0|0|-1|-1|3
2021-04-22 20:31:07.845 +0100|136933.810643875|-0.30487060546875|0.96826171875|-0.0588226318359375|136933.800662875|-2.863377045967133|1.105821865492535|-1.081854030138464|-1.594441771507263|0.5801796913146973|-3.366667032241821|-0.7166703343391418|0.05526465177536011|0.1378409564495087|XArbitraryZVertical|-0.3850791882724048|-0.4963959097479653|0.7599539772955102|0.166659299698038|0.4198269248008728|0.8828301429748535|-0.2106102406978607|0|0|0|-1|-1|3
2021-04-22 20:31:07.865 +0100|136933.830604875|-0.4018402099609375|1.53875732421875|0.4180908203125|136933.820624875|-2.804724346389252|1.172246647033207|-1.169309054329022|-4.142059326171875|0.8039475679397583|-3.432764768600464|-0.6906492710113525|0.1640831828117371|0.2543343305587769|XArbitraryZVertical|-0.3776545326395617|-0.5306110270779977|0.7360633064625007|0.1844995600971848|0.3601602911949158|0.9204807877540588|-0.1516579836606979|0|0|0|-1|-1|3
2021-04-22 20:31:07.885 +0100|136933.850566875|-0.170257568359375|2.352935791015625|0.6102447509765625|136933.840585875|-2.691211863167938|1.292062914902391|-1.252906123258876|-1.753240704536438|0.5909597873687744|-3.041299819946289|-0.6988295316696167|0.9079670906066895|0.6214900016784668|XArbitraryZVertical|-0.3708624516418873|-0.5652096833157998|0.7093367128105932|0.199600981564647|0.3004998862743378|0.9498969912528992|-0.08599811047315598|0|0|0|-1|-1|3
2021-04-22 20:31:07.905 +0100|136933.870528875|0.0761566162109375|1.427810668945312|0.7251434326171875|136933.860547875|-2.749892805210167|1.246204613394619|-1.306975756708964|1.323218703269958|0.4699007570743561|-2.706172466278076|-0.3077000975608826|1.231040716171265|0.7403769493103027|XArbitraryZVertical|-0.3583926919195296|-0.574431722673689|0.7014737004203171|0.2225257999086584|0.2471543401479721|0.965400755405426|-0.08316574990749359|0|0|0|-1|-1|3
2021-04-22 20:31:07.925 +0100|136933.890490875|-0.136505126953125|0.9005584716796875|0.560089111328125|136933.880509875|-2.947816302948198|1.060976134594664|-1.348624364306479|0.8579130172729492|0.2244150936603546|-2.940459251403809|-0.106618344783783|0.1886107325553894|0.7997804284095764|XArbitraryZVertical|-0.3412684413904536|-0.5742546125751478|0.7011766143915045|0.2492368624945195|0.1923280656337738|0.9754211902618408|-0.1075349822640419|0|0|0|-1|-1|3
2021-04-22 20:31:07.944 +0100|136933.910451875|-0.1015472412109375|1.446273803710938|0.1657257080078125|136933.900470875|-3.137135493409658|0.8797409827751692|-1.39380160442834|-0.04730430617928505|0.2604608237743378|-2.889828681945801|-0.357874870300293|0.06196367740631104|0.5721966624259949|XArbitraryZVertical|-0.3252402633329308|-0.5814710054049903|0.6944456654668731|0.2717640833564611|0.1356775164604187|0.9843772649765015|-0.1122204810380936|0|0|0|-1|-1|3
2021-04-22 20:31:07.964 +0100|136933.930413875|-0.0140838623046875|1.886199951171875|0.0195465087890625|136933.920432875|2.88261937878646|0.6279595458424854|-1.430716087746987|0.4113546311855316|0.6302351951599121|-2.63318133354187|-0.1036179736256599|0.6038503646850586|0.2211869955062866|XArbitraryZVertical|-0.3117346164301008|-0.5884964147187192|0.6857880413191052|0.2935785431337249|0.08202790468931198|0.9902048110961914|-0.1129869967699051|0|0|0|-1|-1|3
2021-04-22 20:31:07.984 +0100|136933.950375875|-0.0351409912109375|1.829147338867188|0.035186767578125|136933.940394875|2.487798067668846|0.2546623833231869|-1.43683424902688|1.220306038856506|1.192432165145874|-2.491190195083618|-0.07951381802558899|0.8941372036933899|0.1481609344482422|XArbitraryZVertical|-0.3001786143492257|-0.5875926546246977|0.6803696363672002|0.3189435906555016|0.03364700824022293|0.9910404682159424|-0.1292553395032883|0|0|0|-1|-1|3
2021-04-22 20:31:08.004 +0100|136933.970336875|0.04388427734375|1.733413696289062|0.1385345458984375|136933.960356875|2.134190906027357|-0.06667346973228033|-1.415172155192757|1.263826251029968|1.655198693275452|-2.362438440322876|-0.006640134379267693|0.8424225449562073|0.2177629768848419|XArbitraryZVertical|-0.291378660440161|-0.5811817171426982|0.6756384142605852|0.3476191269561409|-0.01032652985304594|0.9879149794578552|-0.1546525806188583|0|0|0|-1|-1|3
2021-04-22 20:31:08.024 +0100|136933.990298875|0.1739654541015625|1.467422485351562|0.25164794921875|136933.980317875|1.883743210293021|-0.276734756816926|-1.386215257464041|0.8021327257156372|1.9933260679245|-2.305672168731689|0.1266991794109344|0.6906776428222656|0.3430254459381104|XArbitraryZVertical|-0.286474805550351|-0.5741569285240538|0.6679701247418478|0.3769509058015503|-0.05014472454786301|0.9830132126808167|-0.1765520125627518|0|0|0|-1|-1|3
2021-04-22 20:31:08.044 +0100|136934.010260875|0.335052490234375|1.385269165039062|0.323394775390625|136934.000279875|1.684474161179685|-0.4314383967107577|-1.359817317855611|0.3474490940570831|2.023287534713745|-2.278283834457397|0.3052417933940887|0.4404325485229492|0.4670685529708862|XArbitraryZVertical|-0.2847029573923665|-0.5690607103591876|0.6563701154331875|0.4053303059622811|-0.08757407963275909|0.9778263568878174|-0.1902282685041428|0|0|0|-1|-1|3
2021-04-22 20:31:08.064 +0100|136934.030222875|0.43170166015625|1.421051025390625|0.273956298828125|136934.020241875|1.515118154170377|-0.5580654269896205|-1.333935411300487|0.1684628129005432|1.793806791305542|-2.274957418441772|0.4864737987518311|0.4240848422050476|0.5265512466430664|XArbitraryZVertical|-0.2833434460208173|-0.5658539082918689|0.6427964980261234|0.4316696551456329|-0.1242595762014389|0.972079336643219|-0.1990516930818558|0|0|0|-1|-1|3
2021-04-22 20:31:08.084 +0100|136934.050183875|0.5041351318359375|1.471267700195312|0.066131591796875|136934.040202875|1.377429566860973|-0.6592548405132181|-1.304521259794418|0.3547053635120392|1.430889964103699|-2.214653730392456|0.6045258045196533|0.4708656668663025|0.4371705651283264|XArbitraryZVertical|-0.2799124449941061|-0.5636041968935429|0.629576053651029|0.4556681150562595|-0.1611805856227875|0.9647577404975891|-0.207998663187027|0|0|0|-1|-1|3
2021-04-22 20:31:08.104 +0100|136934.070145875|0.5546112060546875|1.353317260742188|-0.20672607421875|136934.060164875|1.279982116379203|-0.7276851241585796|-1.268768185425812|0.5998209714889526|1.093271493911743|-2.162842988967896|0.7287366390228271|0.5099716186523438|0.2241154313087463|XArbitraryZVertical|-0.2730982373000254|-0.5606774289867532|0.6186856983055987|0.4777931875115232|-0.19785176217556|0.9547351598739624|-0.2221163511276245|0|0|0|-1|-1|3
2021-04-22 20:31:08.124 +0100|136934.090107875|0.5164794921875|1.291473388671875|-0.47747802734375|136934.080126875|1.203904726579229|-0.7808927846077079|-1.23335764934031|0.2598093152046204|0.8228362202644348|-1.982824921607971|0.7809596061706543|0.3813611268997192|-0.03628301620483398|XArbitraryZVertical|-0.2649828694683692|-0.5587543175045763|0.6086080597082372|0.4971660595665728|-0.2330459505319595|0.9436057209968567|-0.235155388712883|0|0|0|-1|-1|3
2021-04-22 20:31:08.145 +0100|136934.110068875|0.3800811767578125|1.226699829101562|-0.6456451416015625|136934.100088875|1.132044451734805|-0.8339650506340793|-1.206480109884474|-0.1565711498260498|0.6437739133834839|-1.669623851776123|0.7611997127532959|0.358525276184082|-0.2919660806655884|XArbitraryZVertical|-0.2589466930948198|-0.5596749831374388|0.5977160213082116|0.5122950349234181|-0.2638842463493347|0.9343675971031189|-0.2394210398197174|0|0|0|-1|-1|3
2021-04-22 20:31:08.164 +0100|136934.130030875|0.240936279296875|1.144149780273438|-0.6406097412109375|136934.120049875|1.065344843528947|-0.883677122776065|-1.18738475649344|-0.4211787581443787|0.6056903600692749|-1.382532358169556|0.6270283460617065|0.26596599817276|-0.422257661819458|XArbitraryZVertical|-0.255645235919795|-0.5621401167392315|0.5865821601809312|0.5239899807555661|-0.289197713136673|0.9273937940597534|-0.2372879981994629|0|0|0|-1|-1|3
2021-04-22 20:31:08.184 +0100|136934.149992875|0.1679229736328125|1.193405151367188|-0.5487518310546875|136934.140011875|1.009837340384298|-0.923081185226036|-1.172244162300202|-0.1985581070184708|0.5787707567214966|-1.108652234077454|0.5283262729644775|0.2200545072555542|-0.3835031986236572|XArbitraryZVertical|-0.2539915250899791|-0.5642781111836727|0.5764183255346029|0.5336858268539477|-0.3094837069511414|0.9216238260269165|-0.2341570407152176|0|0|0|-1|-1|3
2021-04-22 20:31:08.204 +0100|136934.169953875|0.1122894287109375|1.081100463867188|-0.4288177490234375|136934.159973875|0.9846345427281689|-0.9356226055092854|-1.155883462627511|0.350288063287735|0.4683051109313965|-0.8119170665740967|0.4736162424087524|0.2640939950942993|-0.2791227102279663|XArbitraryZVertical|-0.2511712627298676|-0.5633177119637127|0.5704552867007212|0.5423715925657246|-0.3244911134243011|0.9151514768600464|-0.2391723096370697|0|0|0|-1|-1|3
2021-04-22 20:31:08.224 +0100|136934.189915875|0.1058502197265625|1.04510498046875|-0.3719635009765625|136934.179934875|0.9868412475486791|-0.9253974702511362|-1.138044247468789|0.7699857950210571|0.357514351606369|-0.5613505840301514|0.444409966468811|0.1621012687683105|-0.1532889604568481|XArbitraryZVertical|-0.2465377627310941|-0.559544174360549|0.568870486405968|0.550014551745416|-0.3350187540054321|0.9078150391578674|-0.2522588968276978|0|0|0|-1|-1|3
2021-04-22 20:31:08.244 +0100|136934.209877875|0.07269287109375|0.934722900390625|-0.344146728515625|136934.199896875|1.010635849122283|-0.8978576816916568|-1.119080382551209|1.186768889427185|0.2479676008224487|-0.3292880356311798|0.4374185502529144|0.1261342763900757|-0.09165239334106445|XArbitraryZVertical|-0.2403819181273313|-0.5533362321455433|0.5711853583840277|0.5565815731945186|-0.3413482308387756|0.8996993899345398|-0.2720710933208466|0|0|0|-1|-1|3
2021-04-22 20:31:08.264 +0100|136934.229839875|0.0545654296875|0.8195037841796875|-0.3564605712890625|136934.219858875|1.047687992017144|-0.8612024644248357|-1.099178479449112|1.305582404136658|0.09481225162744522|-0.1538555026054382|0.4213268160820007|0.003499150276184082|-0.0548383891582489|XArbitraryZVertical|-0.2329559720031223|-0.5456447039793286|0.5764077211507621|0.5619233064150468|-0.3446657061576843|0.8908343911170959|-0.2960067391395569|0|0|0|-1|-1|3
2021-04-22 20:31:08.284 +0100|136934.249800875|0.0151214599609375|0.8091583251953125|-0.432891845703125|136934.239819875|1.083617265230414|-0.8287315192343683|-1.082466830288934|1.02514636516571|-0.02275895699858665|-0.001608962658792734|0.3878081440925598|-0.06956440210342407|-0.05139586329460144|XArbitraryZVertical|-0.2261049395338837|-0.5388391495149448|0.5822915369888072|0.5652128978906444|-0.3457996845245361|0.8831177949905396|-0.3170578479766846|0|0|0|-1|-1|3
2021-04-22 20:31:08.304 +0100|136934.269762875|-0.01361083984375|0.757904052734375|-0.4851837158203125|136934.259781875|1.112483716267489|-0.8043119477041117|-1.071393521288236|0.7062690854072571|-0.05693269520998001|0.1227766424417496|0.3467646837234497|-0.0804743766784668|-0.1201160550117493|XArbitraryZVertical|-0.2211951795441685|-0.5338426333772717|0.5874786559174938|0.566527739742149|-0.3449784219264984|0.8778687119483948|-0.3321694731712341|0|0|0|-1|-1|3
2021-04-22 20:31:08.324 +0100|136934.289724875|-0.00994873046875|0.7120361328125|-0.4817352294921875|136934.279743875|1.13074471677254|-0.7894027000690682|-1.067000618517457|0.1991801708936691|-0.05859951302409172|0.1681225448846817|0.3302874267101288|-0.1334616541862488|-0.1496659219264984|XArbitraryZVertical|-0.2190198132361985|-0.5310707351168311|0.5909375697507748|0.5663806897718794|-0.3427223563194275|0.8757565021514893|-0.3399883806705475|0|0|0|-1|-1|3
2021-04-22 20:31:08.344 +0100|136934.309685875|-0.00927734375|0.76995849609375|-0.4373016357421875|136934.299705875|1.133454046406664|-0.7883253693963577|-1.070435676996135|-0.2939108610153198|-0.0861852765083313|0.1633102297782898|0.3311578035354614|-0.175993025302887|-0.1341163218021393|XArbitraryZVertical|-0.2199506500138297|-0.5315114690950439|0.5916318753041188|0.5648797711417468|-0.3402205109596252|0.8774095773696899|-0.338234543800354|0|0|0|-1|-1|3
2021-04-22 20:31:08.368 +0100|136934.329647875|-0.047393798828125|0.8026123046875|-0.392974853515625|136934.319666875|1.127867947543034|-0.7950688007715472|-1.078133715607991|-0.4037758111953735|-0.08108089864253998|0.1872256696224213|0.3175209164619446|-0.09715580940246582|-0.09782278537750244|XArbitraryZVertical|-0.2224281167124731|-0.5337875797002807|0.5909065011617601|0.5625177702784091|-0.3376615643501282|0.8810766339302063|-0.3311931192874908|0|0|0|-1|-1|3
2021-04-22 20:31:08.384 +0100|136934.349609875|-0.04876708984375|0.9006500244140625|-0.379364013671875|136934.339628875|1.120852460034529|-0.8031833291159584|-1.086287387502042|-0.3615548610687256|-0.1298212260007858|0.1545699834823608|0.289625883102417|-0.05990636348724365|-0.06281819939613342|XArbitraryZVertical|-0.2250684930576342|-0.5363048539340225|0.5899645218780272|0.5600564124979659|-0.3351570963859558|0.8849037885665894|-0.3234425485134125|0|0|0|-1|-1|3
2021-04-22 20:31:08.404 +0100|136934.369571875|-0.100494384765625|0.9298858642578125|-0.3573455810546875|136934.359590875|1.116472050517636|-0.8107412252913535|-1.091449885028016|-0.1191863417625427|-0.2394213229417801|0.07886421680450439|0.2751498818397522|0.01684832572937012|-0.05912774801254272|XArbitraryZVertical|-0.2260165796384238|-0.5385555432814525|0.5896749200784936|0.5578155802194454|-0.3342767357826233|0.8872965574264526|-0.3177488744258881|0|0|0|-1|-1|3
2021-04-22 20:31:08.423 +0100|136934.389532875|-0.13079833984375|0.88525390625|-0.306793212890625|136934.379551875|1.118501902380343|-0.8145088597224642|-1.092317215949414|0.1355524361133575|-0.3189354240894318|0.05136823654174805|0.2237673401832581|0.04248011112213135|-0.02347278594970703|XArbitraryZVertical|-0.2246932844357701|-0.539938463816761|0.5906792830137438|0.5559473725764187|-0.3349114060401917|0.8876962065696716|-0.3159587681293488|0|0|0|-1|-1|3
2021-04-22 20:31:08.443 +0100|136934.409494875|-0.1800079345703125|0.7826385498046875|-0.245330810546875|136934.399513875|1.127383332025187|-0.8142518977350102|-1.089557202134379|0.3195001780986786|-0.4440507590770721|0.01404323428869247|0.1999996900558472|-0.0183032751083374|0.02820524573326111|XArbitraryZVertical|-0.2213023645510657|-0.5405206745840594|0.5930701120942602|0.5541936399331443|-0.3366106152534485|0.8864220380783081|-0.3177253305912018|0|0|0|-1|-1|3
2021-04-22 20:31:08.463 +0100|136934.429456875|-0.2458038330078125|0.7782135009765625|-0.22955322265625|136934.419475875|1.136351358182862|-0.816370425133262|-1.084373790850875|0.3173523545265198|-0.5620301365852356|-0.112639881670475|0.1411187648773193|-0.1181411743164062|0.08503150939941406|XArbitraryZVertical|-0.216243104033854|-0.5414442684903603|0.5957003741763859|0.5524655929782073|-0.340626448392868|0.8840108513832092|-0.3201540410518646|0|0|0|-1|-1|3
2021-04-22 20:31:08.484 +0100|136934.449417875|-0.3431549072265625|0.849761962890625|-0.287994384765625|136934.439437875|1.141059196142156|-0.8248759631429574|-1.077461539667496|0.2866606414318085|-0.6862572431564331|-0.2220750153064728|0.08083480596542358|-0.09071892499923706|0.08746752142906189|XArbitraryZVertical|-0.2097571559266737|-0.5434240295234019|0.5977881161719723|0.5507646769914634|-0.3478168547153473|0.88075852394104|-0.3213845193386078|0|0|0|-1|-1|3
