loggingTime(txt)|accelerometerTimestamp_sinceReboot(s)|accelerometerAccelerationX(G)|accelerometerAccelerationY(G)|accelerometerAccelerationZ(G)|motionTimestamp_sinceReboot(s)|motionYaw(rad)|motionRoll(rad)|motionPitch(rad)|motionRotationRateX(rad/s)|motionRotationRateY(rad/s)|motionRotationRateZ(rad/s)|motionUserAccelerationX(G)|motionUserAccelerationY(G)|motionUserAccelerationZ(G)|motionAttitudeReferenceFrame(txt)|motionQuaternionX(R)|motionQuaternionY(R)|motionQuaternionZ(R)|motionQuaternionW(R)|motionGravityX(G)|motionGravityY(G)|motionGravityZ(G)|motionMagneticFieldX(µT)|motionMagneticFieldY(µT)|motionMagneticFieldZ(µT)|motionHeading(°)|motionMagneticFieldCalibrationAccuracy(Z)|label
2021-04-22 22:16:05.141 +0100|141521.692191875|0.0348052978515625|-0.15203857421875|-0.996856689453125|141521.672231875|0.1137313612793556|-0.0005837215529494269|0.1655169681599878|-0.0991290882229805|-0.08329780399799347|0.07696583122014999|0.0002090847701765597|0.01237371563911438|-0.006220698356628418|XArbitraryZVertical|0.08254695154890893|0.004407821611933934|0.05661642526407985|0.9949679704290911|-0.0005757439648732543|-0.1647622585296631|-0.9863331317901611|0|0|0|-1|-1|3
2021-04-22 22:16:05.155 +0100|141521.712151875|-0.0358734130859375|-0.14971923828125|-0.98736572265625|141521.692191875|0.114078606356591|-0.0007382536554813729|0.1646552063986073|-0.06928013265132904|-0.04946281760931015|0.01051969733089209|0.01105802040547132|0.01990073919296265|-0.006124973297119141|XArbitraryZVertical|0.08212186026194181|0.004320784178314946|0.05678498018364304|0.9949938949719235|-0.0007282686419785023|-0.1639122068881989|-0.9864746332168579|0|0|0|-1|-1|3
2021-04-22 22:16:05.156 +0100|141521.732111875|0.0135955810546875|-0.1425933837890625|-0.999053955078125|141521.712151875|0.1142397954784194|-0.001707238430556961|0.1646862943232749|-0.03850441053509712|0.02301500365138054|0.003480518236756325|-0.02907802909612656|0.01678809523582458|-0.002591192722320557|XArbitraryZVertical|0.08216450908281837|0.00384622142052317|0.05682528426904592|0.9949901389890069|-0.001684138434939086|-0.1639428734779358|-0.9864683747291565|0|0|0|-1|-1|3
2021-04-22 22:16:05.170 +0100|141521.752070875|0.00604248046875|-0.1737060546875|-0.9954681396484375|141521.732111875|0.1140205557984582|-0.0011767684042629|0.1635959116281888|-0.003207257715985179|-0.03100375644862652|-0.01023458316922188|0.02143953740596771|0.01842842996120453|-0.01081985235214233|XArbitraryZVertical|0.08160741736160994|0.00407013667125275|0.05674087360577496|0.9950398506905483|-0.001161055988632143|-0.1628671437501907|-0.9866473078727722|0|0|0|-1|-1|3
2021-04-22 22:16:05.190 +0100|141521.772030875|-3.0517578125e-05|-0.1550140380859375|-0.99310302734375|141521.752070875|0.1141529011656653|-0.002328057737817335|0.1633353536751324|-0.06397228688001633|-0.04134273529052734|0.003425124334171414|0.005150015465915203|-0.002016037702560425|-0.008231222629547119|XArbitraryZVertical|0.08151020580697294|0.00349533015216436|0.05676049140756127|0.9950488504065015|-0.002297070110216737|-0.1626100689172745|-0.9866877198219299|0|0|0|-1|-1|3
2021-04-22 22:16:05.211 +0100|141521.791990875|0.009521484375|-0.14105224609375|-0.9785614013671875|141521.772030875|0.1141449867712559|-0.003543700625280251|0.1609794497066802|-0.1189477369189262|-0.04419135674834251|0.005087114404886961|0.002398794516921043|0.001564115285873413|-0.0076712965965271|XArbitraryZVertical|0.08037254480571711|0.002823055027209859|0.05671451947641431|0.9951461253473044|-0.003497875994071364|-0.1602850705385208|-0.9870645403862|0|0|0|-1|-1|3
2021-04-22 22:16:05.230 +0100|141521.811950875|-0.000946044921875|-0.13885498046875|-0.9895782470703125|141521.791990875|0.1143075328311308|-0.004593158465516617|0.1585271283344907|-0.08808696269989014|-0.05022645369172096|0.001689542550593615|0.01599445007741451|0.001843839883804321|0.007347762584686279|XArbitraryZVertical|0.07918186377423886|0.002237364456484013|0.05676160518972024|0.9952404182593901|-0.004535548388957977|-0.157863974571228|-0.9874504804611206|0|0|0|-1|-1|3
2021-04-22 22:16:05.250 +0100|141521.831910875|-0.00286865234375|-0.141632080078125|-1.008377075195312|141521.811950875|0.1143674758204873|-0.005412475529059861|0.1576518927552029|0.02804035879671574|-0.04572821408510208|-0.002006214577704668|0.005573760252445936|0.02577504515647888|-0.001948416233062744|XArbitraryZVertical|0.07876951964730254|0.001807002777893227|0.0567621423706318|0.9952740349530094|-0.005345327313989401|-0.1569996476173401|-0.9875841736793518|0|0|0|-1|-1|3
2021-04-22 22:16:05.270 +0100|141521.851869875|-0.0067138671875|-0.1673583984375|-1.008316040039062|141521.831910875|0.1141789307248534|-0.005958942550272949|0.1585820629668966|0.05409399792551994|-0.04029099643230438|-0.004801025148481131|0.002770893275737762|0.02530506253242493|-0.0147780179977417|XArbitraryZVertical|0.07924804559573004|0.001554197444797069|0.05664332016239002|0.9952431621953093|-0.005884136073291302|-0.1579182147979736|-0.9874346852302551|0|0|0|-1|-1|3
2021-04-22 22:16:05.290 +0100|141521.871829875|0.0009002685546875|-0.146148681640625|-1.008163452148438|141521.851869875|0.1140243168251301|-0.00665778172956136|0.1588359635959789|-0.06541772186756134|-0.05439270287752151|-0.0105775985866785|0.004223622381687164|-0.009112194180488586|-0.02246713638305664|XArbitraryZVertical|0.07939426996935413|0.001207556574268356|0.05653769338072087|0.9952379786013493|-0.006573925260454416|-0.1581689268350601|-0.9873901605606079|0|0|0|-1|-1|3
2021-04-22 22:16:05.310 +0100|141521.891789875|-0.0252838134765625|-0.129241943359375|-0.971893310546875|141521.871829875|0.1139054937537773|-0.007465253149032633|0.1567775125868811|-0.1301120668649673|-0.07146505266427994|0.02209379523992538|0.001849495805799961|0.006875559687614441|-0.02369040250778198|XArbitraryZVertical|0.07839279416305088|0.0007423189480941545|0.0564549413510849|0.9953226181892997|-0.007373627740889788|-0.1561360508203506|-0.9877080321311951|0|0|0|-1|-1|3
2021-04-22 22:16:05.330 +0100|141521.911749875|-0.0203857421875|-0.1481170654296875|-0.983978271484375|141521.891789875|0.1142249154047921|-0.008629005054321659|0.1535608940496409|-0.1249944642186165|-0.05360637977719307|0.004031437449157238|-0.007006538100540638|0.01189157366752625|0.01067191362380981|XArbitraryZVertical|0.07682479472716687|8.362589619426839e-05|0.05658230368470853|0.9954378901880967|-0.008527358993887901|-0.1529580801725388|-0.9881958961486816|0|0|0|-1|-1|3
2021-04-22 22:16:05.350 +0100|141521.931709875|-0.0467529296875|-0.1181488037109375|-0.9602203369140625|141521.911749875|0.1145054730909621|-0.009414639725557811|0.1509720512549379|-0.1024776846170425|-0.04410336911678314|0.02559647336602211|-0.01335233822464943|0.01503947377204895|0.003718137741088867|XArbitraryZVertical|0.07555854735366709|-0.0003709346161957456|0.05670346290650998|0.9955277709277855|-0.009307414293289185|-0.1503991931676865|-0.9885815382003784|0|0|0|-1|-1|3
2021-04-22 22:16:05.370 +0100|141521.951669875|-0.0168914794921875|-0.1605682373046875|-0.9688873291015625|141521.931709875|0.1144749453078907|-0.009925691252131538|0.149781683514476|-0.0116084823384881|-0.008419458754360676|-0.02296147495508194|-0.03458912670612335|0.01157370209693909|0.02169853448867798|XArbitraryZVertical|0.07498050704244538|-0.0006606449933024821|0.05667445119424502|0.9955730706626782|-0.009814399294555187|-0.149222269654274|-0.9887549877166748|0|0|0|-1|-1|3
2021-04-22 22:16:05.390 +0100|141521.971628875|-0.025177001953125|-0.202850341796875|-0.966033935546875|141521.951669875|0.1141628722880785|-0.01005033535054396|0.1503213194080312|0.02258251048624516|-0.02158996276557446|-0.01327857654541731|-0.01170058269053698|0.007682234048843384|0.01798504590988159|XArbitraryZVertical|0.07525253638555608|-0.0007189402102610574|0.05651192782852419|0.995561749028478|-0.009936830960214138|-0.1497558355331421|-0.9886730909347534|0|0|0|-1|-1|3
2021-04-22 22:16:05.410 +0100|141521.991588875|-0.0132293701171875|-0.2515869140625|-0.9661712646484375|141521.971628875|0.1136378721329602|-0.01050726058080008|0.1495107974176862|-0.1201062127947807|-0.04062820971012115|-0.03203672915697098|-0.01544373016804457|-0.04525847733020782|0.02371668815612793|XArbitraryZVertical|0.07486174377421251|-0.0009892536957400568|0.05623724441116779|0.995606457551135|-0.01038985140621662|-0.1489544063806534|-0.9887894988059998|0|0|0|-1|-1|3
2021-04-22 22:16:05.430 +0100|141522.011548875|-0.0544281005859375|-0.2873992919921875|-0.981781005859375|141521.991588875|0.113141841960428|-0.01229150867707147|0.1433083583143694|-0.4845402836799622|-0.1238861903548241|-0.01752045936882496|-0.0009120330214500427|-0.09862050414085388|0.02270931005477905|XArbitraryZVertical|0.07182358901068082|-0.002072300805500265|0.05595531122937199|0.9958444625947949|-0.01216520089656115|-0.1428183317184448|-0.9896741509437561|0|0|0|-1|-1|3
2021-04-22 22:16:05.449 +0100|141522.031508875|-0.111297607421875|-0.2174530029296875|-0.9628143310546875|141522.011548875|0.1125488724282177|-0.01625379490646856|0.1283619648061135|-1.050363898277283|-0.2353598177433014|-0.02701294235885143|-0.02529344148933887|-0.1446637958288193|0.0209234356880188|XArbitraryZVertical|0.06448943244914992|-0.004489992026890949|0.05560667774234129|0.9963578399721658|-0.01611936278641224|-0.1280097514390945|-0.9916418790817261|0|0|0|-1|-1|3
2021-04-22 22:16:05.469 +0100|141522.051468875|-0.151031494140625|-0.0874786376953125|-0.8994903564453125|141522.031508875|0.1110153784669164|-0.02136517046377325|0.1033035427027023|-1.344300627708435|-0.2736767530441284|-0.1086983978748322|-0.0707612931728363|-0.1592997461557388|0.01409518718719482|XArbitraryZVertical|0.05213820564211469|-0.007787543745256105|0.05485136520278894|0.9971020117462138|-0.02124965377151966|-0.1031199023127556|-0.9944419264793396|0|0|0|-1|-1|3
2021-04-22 22:16:05.490 +0100|141522.071427875|-0.1593170166015625|-0.094146728515625|-0.85357666015625|141522.051468875|0.1066536291650665|-0.02595320799136349|0.07790838125570591|-1.172631978988647|-0.2177407741546631|-0.2727484703063965|-0.1188432350754738|-0.02254171669483185|0.08642888069152832|XArbitraryZVertical|0.03957683150625731|-0.01087234460305981|0.05275198843112741|0.9977638953866234|-0.02587157860398293|-0.07782959192991257|-0.9966309070587158|0|0|0|-1|-1|3
2021-04-22 22:16:05.510 +0100|141522.091387875|-0.16741943359375|-0.19573974609375|-0.8400115966796875|141522.071427875|0.09896092731129691|-0.02892682971813822|0.05695174544286549|-0.9825572967529297|-0.1380726248025894|-0.4524271786212921|-0.1272219717502594|-0.03624820336699486|0.1296443343162537|XArbitraryZVertical|0.02914924921489018|-0.0130312650954419|0.04902376309476609|0.9982872309207802|-0.02887590229511261|-0.05692096427083015|-0.9979610443115234|0|0|0|-1|-1|3
2021-04-22 22:16:05.530 +0100|141522.111347875|-0.211669921875|-0.339996337890625|-0.8296051025390625|141522.091387875|0.08770256071834615|-0.0307263514843879|0.03422796822878672|-1.55830180644989|-0.1277553886175156|-0.5792111754417419|-0.1378302872180939|-0.1230653077363968|0.1632186770439148|XArbitraryZVertical|0.01776803371750191|-0.01459545099234078|0.04356298604809664|0.9987860424712792|-0.03070352226495743|-0.03422128409147263|-0.9989425539970398|0|0|0|-1|-1|3
2021-04-22 22:16:05.550 +0100|141522.131307875|-0.25970458984375|-0.180816650390625|-0.6850128173828125|141522.111347875|0.07430507059134298|-0.03447341406370764|-0.01331497590071642|-3.354532480239868|-0.2589097321033478|-0.6233106851577759|-0.1551121473312378|-0.3304522633552551|0.1544228792190552|XArbitraryZVertical|-0.006011662179883059|-0.01747082480374135|0.03725231547684592|0.9991350776280705|-0.03446353226900101|0.01331458240747452|-0.9993172883987427|0|0|0|-1|-1|3
2021-04-22 22:16:05.570 +0100|141522.151267875|-0.231201171875|0.0491180419921875|-0.53253173828125|141522.131307875|0.05731921973300339|-0.04018204076641339|-0.09895257220209336|-5.178488731384277|-0.2242943346500397|-0.7295010089874268|-0.2271308898925781|-0.3406267166137695|0.2746700644493103|XArbitraryZVertical|-0.04885083546264203|-0.02147375658082304|0.02960799174687045|0.9981362295341136|-0.03997471928596497|0.09879116714000702|-0.9943049550056458|0|0|0|-1|-1|3
2021-04-22 22:16:05.589 +0100|141522.171227875|-0.2443695068359375|0.26153564453125|-0.5050048828125|141522.151267875|0.03712528689556743|-0.04707606023215979|-0.2146680925888889|-6.397671222686768|-0.1484993398189545|-0.7702887654304504|-0.1826291531324387|-0.2046755999326706|0.4150671362876892|XArbitraryZVertical|-0.1066455838772538|-0.02538429301939186|0.0209705608074259|0.993751909000269|-0.04597854241728783|0.2130231559276581|-0.9759647250175476|0|0|0|-1|-1|3
2021-04-22 22:16:05.609 +0100|141522.191186875|-0.1365814208984375|0.5362701416015625|-0.538238525390625|141522.171227875|0.01320875855560992|-0.05508832544388133|-0.3458734041095929|-6.687756538391113|0.04020368680357933|-0.8355696797370911|-0.2008863091468811|-0.1546608209609985|0.4474095702171326|XArbitraryZVertical|-0.1718277795939563|-0.02826529713108194|0.01124233655611744|0.9846572892641997|-0.05179977044463158|0.3390184938907623|-0.9393525719642639|0|0|0|-1|-1|3
2021-04-22 22:16:05.629 +0100|141522.211146875|-0.09716796875|0.64251708984375|-0.6132049560546875|141522.191186875|-0.01406607257780304|-0.06265218176953904|-0.4734280367158093|-6.164210319519043|0.2709143459796906|-0.9472091197967529|-0.1020670607686043|0.02720001339912415|0.3481342196464539|XArbitraryZVertical|-0.2346027952988591|-0.02879829668448958|0.0005113807582813758|0.9716646658446902|-0.05572463199496269|0.4559399485588074|-0.8882643580436707|0|0|0|-1|-1|3
2021-04-22 22:16:05.649 +0100|141522.231106875|-0.0564422607421875|0.8040924072265625|-0.6668243408203125|141522.211146875|-0.0463030710705573|-0.07150882756315974|-0.5870611396643586|-5.390970706939697|0.4946302771568298|-1.047476768493652|-0.04099416360259056|0.06745266914367676|0.22898930311203|XArbitraryZVertical|-0.2898632629825605|-0.02751503691656896|-0.01180518778229924|0.9565997426828764|-0.0594855360686779|0.5539166331291199|-0.8304443955421448|0|0|0|-1|-1|3
2021-04-22 22:16:05.669 +0100|141522.251066875|0.0128021240234375|1.002548217773438|-0.7067108154296875|141522.231106875|-0.08300324604546869|-0.07994699413371849|-0.6841168695039128|-4.420388221740723|0.8198375105857849|-1.192190527915955|-0.01014620065689087|0.1199803352355957|0.1047019362449646|XArbitraryZVertical|-0.3364324075534336|-0.02370958465524654|-0.02566175421839319|0.9410593282078231|-0.06189114227890968|0.6319888234138489|-0.7725021839141846|0|0|0|-1|-1|3
2021-04-22 22:16:05.689 +0100|141522.271026875|0.0803070068359375|1.030624389648438|-0.7571563720703125|141522.251066875|-0.1258008145332517|-0.08996789071227264|-0.7564246225558366|-3.081110954284668|1.018622279167175|-1.397009372711182|0.06026311963796616|0.2780917286872864|0.03133010864257812|XArbitraryZVertical|-0.370783549999613|-0.01852022859598711|-0.04178504639169058|0.9275940399500724|-0.0653449222445488|0.6863254904747009|-0.7243531346321106|0|0|0|-1|-1|3
2021-04-22 22:16:05.722 +0100|141522.290985875|0.0381011962890625|1.041122436523438|-0.798370361328125|141522.271026875|-0.1733792231388335|-0.1027982270849751|-0.8031135337719941|-1.954738736152649|1.013256072998047|-1.496582388877869|0.1440636217594147|0.306266188621521|-0.05887508392333984|XArbitraryZVertical|-0.3929641398049665|-0.01331642380530796|-0.05958343223385377|0.9175248243221645|-0.0712646022439003|0.7195218205451965|-0.6908037066459656|0|0|0|-1|-1|3
2021-04-22 22:16:05.736 +0100|141522.310945875|-0.020477294921875|0.9898223876953125|-0.829925537109375|141522.290985875|-0.2213974751728183|-0.1188803242759675|-0.8301062609117469|-1.160495400428772|0.8815594911575317|-1.462849378585815|0.134412944316864|0.3075603246688843|-0.1215294599533081|XArbitraryZVertical|-0.4060679880687822|-0.009560425977113181|-0.0771067135277546|0.9105340086375642|-0.08003132045269012|0.7380030751228333|-0.6700347661972046|0|0|0|-1|-1|3
2021-04-22 22:16:05.749 +0100|141522.330905875|-0.050018310546875|0.9707794189453125|-0.810272216796875|141522.310945875|-0.2669029239626774|-0.1365299673533814|-0.8455420076508099|-0.8200723528862|0.732125997543335|-1.348206758499146|0.08231695741415024|0.2525548338890076|-0.162548303604126|XArbitraryZVertical|-0.4139707092354969|-0.007189053155312253|-0.09332047127889352|0.9054656581445725|-0.09028276801109314|0.7483307719230652|-0.6571531295776367|0|0|0|-1|-1|3
2021-04-22 22:16:05.769 +0100|141522.350865875|-0.05181884765625|0.9764251708984375|-0.7708892822265625|141522.330905875|-0.3074501785406896|-0.1536815484266042|-0.8578638480429164|-0.8281746506690979|0.6146928668022156|-1.126028776168823|0.05542723834514618|0.2208941578865051|-0.1753387451171875|XArbitraryZVertical|-0.4204719341427857|-0.005493030785070503|-0.1072882255874505|0.9009231566254126|-0.1001209691166878|0.7564471364021301|-0.6463463306427002|0|0|0|-1|-1|3
2021-04-22 22:16:05.789 +0100|141522.370825875|-0.0339813232421875|0.94366455078125|-0.723388671875|141522.350865875|-0.3423756072300038|-0.1690044062344064|-0.8719976108349329|-0.9008411765098572|0.509807825088501|-0.8775580525398254|0.05571248382329941|0.204447329044342|-0.1455137729644775|XArbitraryZVertical|-0.427691069650593|-0.003701481709154979|-0.1187420107737958|0.8960843711876797|-0.1082034781575203|0.7656155228614807|-0.6341332793235779|0|0|0|-1|-1|3
2021-04-22 22:16:05.809 +0100|141522.390785875|-0.0365142822265625|0.941375732421875|-0.71142578125|141522.370825875|-0.368932465073847|-0.1808774871954872|-0.8865299977077248|-0.8222942352294922|0.3626571595668793|-0.5472224950790405|0.08284179121255875|0.1852768063545227|-0.1045706868171692|XArbitraryZVertical|-0.4348565332419716|-0.001856380340035611|-0.1269397379845633|0.8915058760865407|-0.1137110963463783|0.7748830318450928|-0.6217926740646362|0|0|0|-1|-1|3
2021-04-22 22:16:05.830 +0100|141522.410744875|-0.033355712890625|0.9407501220703125|-0.7066802978515625|141522.390785875|-0.3861881979353562|-0.1876971666945191|-0.9001516652463127|-0.7156474590301514|0.3127123415470123|-0.3102033734321594|0.08023155480623245|0.1499747633934021|-0.1035653352737427|XArbitraryZVertical|-0.4412618362195385|0.0003035831579429912|-0.1320161203165198|0.8876147416425904|-0.1159684211015701|0.7834211587905884|-0.610575795173645|0|0|0|-1|-1|3
2021-04-22 22:16:05.849 +0100|141522.430704875|-0.071136474609375|0.9207916259765625|-0.6863555908203125|141522.410744875|-0.3977642014533379|-0.1911128713468398|-0.9112015579943377|-0.4975197613239288|0.2498830407857895|-0.2012583464384079|0.08800434321165085|0.1498691439628601|-0.1089917421340942|XArbitraryZVertical|-0.4462886947409596|0.002546192761894591|-0.1354575303728827|0.8845740750795626|-0.1164017394185066|0.7902406454086304|-0.6016398072242737|0|0|0|-1|-1|3
2021-04-22 22:16:05.869 +0100|141522.450664875|-0.0756683349609375|0.909698486328125|-0.64141845703125|141522.430704875|-0.4047763969230143|-0.1917225350325471|-0.9180386834882309|-0.2642807066440582|0.2522765398025513|-0.08156388998031616|0.04888671636581421|0.1308053135871887|-0.09765714406967163|XArbitraryZVertical|-0.4492810649191157|0.004596644485756119|-0.1378324414245298|0.8826821492645842|-0.11573626101017|0.7944118976593018|-0.5962507724761963|0|0|0|-1|-1|3
2021-04-22 22:16:05.889 +0100|141522.470624875|-0.0430908203125|0.8758544921875|-0.6056976318359375|141522.450664875|-0.4075379346205801|-0.1885583143577977|-0.9216187584673068|-0.1167825758457184|0.3095329999923706|-0.02616943046450615|0.03677630424499512|0.1180615425109863|-0.05068343877792358|XArbitraryZVertical|-0.4506024860239173|0.007009594886774337|-0.1394537672314581|0.8817375065014887|-0.1133151799440384|0.7965812683105469|-0.5938165187835693|0|0|0|-1|-1|3
2021-04-22 22:16:05.909 +0100|141522.490584875|-0.0334014892578125|0.8417510986328125|-0.6185302734375|141522.470624875|-0.4061938610564277|-0.1797618136543927|-0.9216623560820981|0.08069592714309692|0.4342082738876343|0.1138881668448448|0.05557487159967422|0.08875364065170288|-0.02882397174835205|XArbitraryZVertical|-0.4500108295723322|0.01058996748456927|-0.1408380411545554|0.8817839665130158|-0.1080811619758606|0.7966076135635376|-0.5947561860084534|0|0|0|-1|-1|3
2021-04-22 22:16:05.929 +0100|141522.510544875|-0.0358734130859375|0.81353759765625|-0.626373291015625|141522.490584875|-0.3993156943889309|-0.1657356978625965|-0.9193886320680624|0.2264242321252823|0.4308660626411438|0.2641678750514984|0.0642598420381546|0.03789925575256348|-0.008736014366149902|XArbitraryZVertical|-0.448080528761746|0.0149870979651146|-0.1411399085739755|0.8826544407872103|-0.1000272333621979|0.7952311038970947|-0.5979984402656555|0|0|0|-1|-1|3
2021-04-22 22:16:05.949 +0100|141522.530503875|-0.0810699462890625|0.793792724609375|-0.619903564453125|141522.510544875|-0.3867128361536509|-0.1494283577314235|-0.9132689749742919|0.5029948353767395|0.2128981202840805|0.3421524167060852|0.07307079434394836|0.04171609878540039|-0.02675163745880127|XArbitraryZVertical|-0.4443795114932588|0.01874175946294649|-0.1396851591401365|0.8846829405694578|-0.09098541736602783|0.7915058135986328|-0.6043511629104614|0|0|0|-1|-1|3
2021-04-22 22:16:05.969 +0100|141522.550463875|-0.0759124755859375|0.6273651123046875|-0.6307525634765625|141522.530503875|-0.3740576170668618|-0.1373987515579083|-0.9026034133794223|0.5389755964279175|0.04390712827444077|0.2630868852138519|0.009832091629505157|0.004303514957427979|-0.01722067594528198|XArbitraryZVertical|-0.4390066595602707|0.02020888273650425|-0.1375126304998939|0.8876683197007159|-0.08486035466194153|0.7849425673484802|-0.6137295365333557|0|0|0|-1|-1|3
2021-04-22 22:16:05.989 +0100|141522.57042325|-0.0655059814453125|0.6837921142578125|-0.6371307373046875|141522.550463875|-0.365255911455349|-0.1293950205401236|-0.8967606898553445|0.0338553711771965|0.05068796500563622|0.1591434329748154|0.0103142261505127|-0.1416450142860413|-0.008605718612670898|XArbitraryZVertical|-0.4359864542508916|0.02127368900075505|-0.1357583872263999|0.8894003987061894|-0.08053597807884216|0.781309187412262|-0.618926465511322|0|0|0|-1|-1|3
2021-04-22 22:16:06.009 +0100|141522.59038325|-0.103515625|0.9036102294921875|-0.5460662841796875|141522.57042325|-0.3623275906147723|-0.126910685195807|-0.900764371717001|-0.2302704751491547|-0.0750805139541626|0.08431136608123779|0.006884448230266571|-0.1732819080352783|-0.03248107433319092|XArbitraryZVertical|-0.4376098627459984|0.02211878709357946|-0.1347286858325688|0.8887388263023445|-0.07860155403614044|0.783801794052124|-0.6160167455673218|0|0|0|-1|-1|3
2021-04-22 22:16:06.029 +0100|141522.61034325|-0.134979248046875|0.790924072265625|-0.4668121337890625|141522.59038325|-0.3637450767992215|-0.129946185035875|-0.9025545953686136|0.06632564961910248|-0.1072779148817062|-0.1723035573959351|-0.0143313929438591|0.1408389806747437|0.03520584106445312|XArbitraryZVertical|-0.4385851269007556|0.02125048334037254|-0.1345723809076149|0.8883028741737247|-0.08028915524482727|0.7849122881889343|-0.6143829822540283|0|0|0|-1|-1|3
2021-04-22 22:16:06.049 +0100|141522.63030325|-0.1580963134765625|0.9175872802734375|-0.490234375|141522.61034325|-0.3693247215563637|-0.1351645942286436|-0.8973991300079676|0.3585391044616699|0.01475446298718452|-0.2536872625350952|-0.04111506044864655|0.00396806001663208|0.1343152523040771|XArbitraryZVertical|-0.4366177254043075|0.01965749475751855|-0.1362648838869951|0.8890503496178259|-0.08403832465410233|0.7817075252532959|-0.6179571151733398|0|0|0|-1|-1|3
2021-04-22 22:16:06.069 +0100|141522.65026225|-0.13641357421875|0.87646484375|-0.48431396484375|141522.63030325|-0.3769559332036133|-0.1401836722731174|-0.8860509278718908|0.5750176906585693|0.03206026926636696|-0.354963481426239|-0.0690377876162529|0.1212639212608337|0.1556453704833984|XArbitraryZVertical|-0.4319043658078527|0.01796829292549915|-0.1393697117504228|0.8909051291597212|-0.08837268501520157|0.7745801210403442|-0.6262715458869934|0|0|0|-1|-1|3
2021-04-22 22:16:06.089 +0100|141522.67022225|-0.141571044921875|0.7230377197265625|-0.483428955078125|141522.65026225|-0.3883836431033489|-0.1488039850808991|-0.8684846213439461|0.7005801200866699|-0.0612475723028183|-0.566034734249115|-0.06250956654548645|0.1223002672195435|0.1322543621063232|XArbitraryZVertical|-0.424686151905949|0.01479691147601054|-0.143893274433464|0.8937100349597548|-0.09577066451311111|0.7633509039878845|-0.6388454437255859|0|0|0|-1|-1|3
2021-04-22 22:16:06.108 +0100|141522.69018225|-0.10772705078125|0.5567779541015625|-0.4076385498046875|141522.67022225|-0.3987422934628368|-0.1582115470732093|-0.8557510419403085|0.6740956902503967|-0.1112716943025589|-0.4346672892570496|-0.01774933934211731|-0.01224988698959351|0.1696957349777222|XArbitraryZVertical|-0.4196873432719951|0.01144779622694275|-0.1474945342827993|0.8955316239602032|-0.1032994538545609|0.755063533782959|-0.6474629640579224|0|0|0|-1|-1|3
2021-04-22 22:16:06.128 +0100|141522.71014225|-0.118255615234375|0.6359100341796875|-0.4366455078125|141522.69018225|-0.4089132376567599|-0.1692175042343897|-0.8489240980335955|-0.03420735150575638|-0.1671978682279587|-0.293860524892807|-0.004072710871696472|-0.133000373840332|0.219438374042511|XArbitraryZVertical|-0.417445692749992|0.007912279239737086|-0.15027799744778|0.8961546655294045|-0.1112845540046692|0.7505698800086975|-0.6513530015945435|0|0|0|-1|-1|3
2021-04-22 22:16:06.148 +0100|141522.73010225|-0.0658721923828125|0.68798828125|-0.508453369140625|141522.71014225|-0.4198504143160826|-0.1797063835145355|-0.855859838145492|-0.6671497821807861|-0.07845953106880188|-0.2633033394813538|-0.01623144745826721|-0.1380994319915771|0.2394802570343018|XArbitraryZVertical|-0.4212532940426641|0.006280591427546144|-0.152410618687164|0.8940231825339198|-0.1171769648790359|0.7551348805427551|-0.6450124382972717|0|0|0|-1|-1|3
2021-04-22 22:16:06.169 +0100|141522.75006125|-0.0811767578125|0.72015380859375|-0.6139678955078125|141522.75006125|-0.433783896048231|-0.1921822469434649|-0.8817402119749252|-0.3804264068603516|-0.02678706869482994|-0.05468327179551125|0.0390574187040329|-0.06096947193145752|0.02191627025604248|XArbitraryZVertical|-0.4334785693995865|0.006669566643522363|-0.1537384334301675|0.8879282694103919|-0.1214404404163361|0.7718464732170105|-0.6241036653518677|0|0|0|-1|-1|3
2021-04-22 22:16:06.188 +0100|141522.77002125|-0.135223388671875|0.7701873779296875|-0.615966796875||||||||||||||||||||||||3
2021-04-22 22:16:06.225 +0100|141522.78998125|-0.0920257568359375|0.760223388671875|-0.63201904296875|141522.77002125|-0.441083888715843|-0.1972270920020214|-0.8852282237824994|-0.1180205270648003|0.1228910535573959|-0.3596358001232147|-0.005244717001914978|-0.0224568247795105|0.008870959281921387|XArbitraryZVertical|-0.4353608188492989|0.006428244596333398|-0.1555707195581986|0.8866891231336598|-0.1240590810775757|0.7740594744682312|-0.6208392977714539|0|0|0|-1|-1|3
2021-04-22 22:16:06.241 +0100|141522.80994125|-0.1112060546875|0.80029296875|-0.6023712158203125|141522.78998125|-0.4561913928784307|-0.2052547592950562|-0.8831998882055105|0.1124614700675011|0.1906078904867172|-0.6047358512878418|0.02213430404663086|-0.01471662521362305|-0.01755619049072266|XArbitraryZVertical|-0.4350694893786685|0.005912886619640859|-0.1607046017023288|0.8859197261450997|-0.1293586492538452|0.7727737426757812|-0.6213591694831848|0|0|0|-1|-1|3
2021-04-22 22:16:06.248 +0100|141522.82990125|-0.08966064453125|0.852813720703125|-0.6168060302734375|141522.80994125|-0.4761047084798648|-0.2165354854317521|-0.8751002905937875|0.4210354089736938|0.1952507942914963|-0.8651814460754395|0.03834912180900574|-0.01103079319000244|0.02338409423828125|XArbitraryZVertical|-0.4324415750692538|0.004216469638127008|-0.1678499613276447|0.885891135325374|-0.1376999318599701|0.7676078081130981|-0.6259530186653137|0|0|0|-1|-1|3
2021-04-22 22:16:06.269 +0100|141522.84986125|-0.2069244384765625|0.9746551513671875|-0.6206817626953125|141522.82990125|-0.5030846968236304|-0.2331853202516722|-0.8585291929877492|0.7952136993408203|0.1858155876398087|-1.186441779136658|0.05073963105678558|0.095428466796875|0.02502411603927612|XArbitraryZVertical|-0.426694479209734|0.0004429425572677309|-0.1778869623172988|0.8867287759586375|-0.1510212272405624|0.7568821310997009|-0.6358632445335388|0|0|0|-1|-1|3
2021-04-22 22:16:06.293 +0100|141522.86982025|-0.3593597412109375|1.0234375|-0.6877593994140625|141522.84986125|-0.5339061213214172|-0.2526829275498544|-0.8341263079656457|1.029539227485657|0.2342211008071899|-1.333726525306702|0.00300966203212738|0.1951579451560974|0.01792383193969727|XArbitraryZVertical|-0.4180048459195705|-0.005119043892348966|-0.1900255471508208|0.8883333910598933|-0.1679580360651016|0.7407098412513733|-0.65049147605896|0|0|0|-1|-1|3
2021-04-22 22:16:06.308 +0100|141522.88978025|-0.3688507080078125|0.8693084716796875|-0.7899322509765625|141522.86982025|-0.5623165543390918|-0.2674569306494157|-0.8047846614515063|1.281559467315674|0.3937223851680756|-1.270261287689209|-0.1444824039936066|0.3000710010528564|0.002526938915252686|XArbitraryZVertical|-0.4069243906998775|-0.01017135166084324|-0.2028621936690881|0.8905931356125337|-0.1832162141799927|0.720681369304657|-0.6686181426048279|0|0|0|-1|-1|3
2021-04-22 22:16:06.328 +0100|141522.90974025|-0.3104705810546875|0.6107177734375|-0.7544403076171875|141522.88978025|-0.5846705154778459|-0.2744420446559266|-0.7736696084150811|1.259706616401672|0.5140237808227539|-1.029747009277344|-0.1913264542818069|0.2252161502838135|-0.08462750911712646|XArbitraryZVertical|-0.3943660400088355|-0.01360835589760098|-0.2149693147088137|0.8933524734208547|-0.1938673108816147|0.698764979839325|-0.6885804533958435|0|0|0|-1|-1|3
2021-04-22 22:16:06.348 +0100|141522.92970025|-0.239013671875|0.3737945556640625|-0.6632843017578125|141522.90974025|-0.6005314492341717|-0.2750496444125688|-0.7512422368002915|0.3942489326000214|0.5094866752624512|-0.6906402111053467|-0.1263067722320557|0.01474940776824951|-0.07884013652801514|XArbitraryZVertical|-0.384849188046554|-0.014347213565418|-0.2245127861382809|0.8951421126438136|-0.1984927207231522|0.6825471520423889|-0.7033705115318298|0|0|0|-1|-1|3
2021-04-22 22:16:06.368 +0100|141522.94966025|-0.132568359375|0.652008056640625|-0.6796417236328125|141522.92970025|-0.6186353827563625|-0.2778902723298733|-0.7571073713224259|-1.20335865020752|0.4485212564468384|-0.4626388847827911|-0.04276961088180542|-0.2878347039222717|0.03181320428848267|XArbitraryZVertical|-0.3878198821434531|-0.01116701232317974|-0.2313740416123007|0.8921530713203338|-0.1993882805109024|0.6868218779563904|-0.6989420652389526|0|0|0|-1|-1|3
2021-04-22 22:16:06.388 +0100|141522.96962025|-0.0165863037109375|0.4831695556640625|-0.5413818359375|141522.94966025|-0.6382740617718713|-0.2822406278715247|-0.7868262572415654|-1.850684404373169|0.4698127806186676|0.01578032784163952|0.01386775076389313|-0.1164864301681519|0.01083159446716309|XArbitraryZVertical|-0.4011263610846991|-0.004270742083142571|-0.2357025984797489|0.8851688564199262|-0.1966537088155746|0.7081158757209778|-0.6781588196754456|0|0|0|-1|-1|3
2021-04-22 22:16:06.408 +0100|141522.98957925|-0.044281005859375|0.561370849609375|-0.572784423828125|141522.96962025|-0.6503523301807735|-0.2835669210316161|-0.8241389754793472|-1.964271664619446|0.3096102178096771|0.1713519841432571|0.1814332455396652|-0.2366179227828979|0.06850838661193848|XArbitraryZVertical|-0.4170752601462084|0.003973128193039701|-0.2361670126801922|0.877643296272283|-0.1900248527526855|0.7339632511138916|-0.6520648598670959|0|0|0|-1|-1|3
2021-04-22 22:16:06.427 +0100|141523.00953925|0.062744140625|0.6376190185546875|-0.650299072265625|141522.98957925|-0.6641841291373162|-0.2871171150737325|-0.8592054087193922|-1.517127752304077|0.3704604208469391|-0.04747329652309418|0.1024128347635269|-0.143599808216095|0.07795238494873047|XArbitraryZVertical|-0.4321062621864292|0.01143495458875741|-0.2370147749609645|0.8700445492311204|-0.1849332898855209|0.7573239207267761|-0.6263068318367004|0|0|0|-1|-1|3
2021-04-22 22:16:06.448 +0100|141523.02949925|0.0794219970703125|0.6566009521484375|-0.812774658203125|141523.00953925|-0.6780665572209149|-0.2906458137250625|-0.8829779698927862|-1.001684546470642|0.3488028049468994|-0.1274023950099945|0.2413473427295685|-0.1815527677536011|-0.00389409065246582|XArbitraryZVertical|-0.4422590074057066|0.01713291348962023|-0.2391635953604826|0.8642421344381779|-0.1819305419921875|0.772632896900177|-0.6082268953323364|0|0|0|-1|-1|3
2021-04-22 22:16:06.467 +0100|141523.04945925|-0.0583038330078125|0.635009765625|-0.8144683837890625|141523.02949925|-0.688612096584152|-0.293597067617516|-0.8953900263505534|-0.4260531961917877|0.120352678000927|-0.1414359211921692|0.2632861137390137|-0.1183890700340271|-0.1611055135726929|XArbitraryZVertical|-0.4476070958517495|0.02042950796575604|-0.2414017898405812|0.8607879077509518|-0.1809353679418564|0.7804529666900635|-0.5984610319137573|0|0|0|-1|-1|3
2021-04-22 22:16:06.487 +0100|141523.06941925|-0.0207672119140625|0.554901123046875|-0.796661376953125|141523.04945925|-0.6945205455848046|-0.2955335249338228|-0.8999745409533073|-0.2399044185876846|0.1603469699621201|-0.1238083690404892|0.167575478553772|-0.1488350629806519|-0.2495266199111938|XArbitraryZVertical|-0.4496516788878321|0.02175185325554134|-0.2428895225635733|0.8592701034537434|-0.1810499280691147|0.7833110690116882|-0.5946804285049438|0|0|0|-1|-1|3
2021-04-22 22:16:06.508 +0100|141523.08937925|-0.0235137939453125|0.7353057861328125|-0.8019256591796875|141523.06941925|-0.7026456786712449|-0.302336110090513|-0.9048653146174828|-0.3400397896766663|-0.1869854331016541|-0.1592381745576859|0.1471735388040543|-0.2258557081222534|-0.2066763639450073|XArbitraryZVertical|-0.4523824013293271|0.02155849141336063|-0.2441739039255702|0.8574757885136081|-0.1839481890201569|0.7863419651985168|-0.5897707939147949|0|0|0|-1|-1|3
2021-04-22 22:16:06.528 +0100|141523.10933825|-0.232940673828125|1.013824462890625|-0.8096923828125|141523.08937925|-0.7096295267787097|-0.3147707837145956|-0.9104451381375613|-0.3219180405139923|-0.5268011093139648|-0.07314518839120865|0.1772097647190094|-0.09319758415222168|-0.2157690525054932|XArbitraryZVertical|-0.4560879694924563|0.01885188907950198|-0.2435615439123213|0.8557490274852459|-0.1899060010910034|0.7897768616676331|-0.583256721496582|0|0|0|-1|-1|3
2021-04-22 22:16:06.548 +0100|141523.12929825|-0.490966796875|1.143661499023438|-0.8238677978515625|141523.10933825|-0.7125773774851751|-0.3317693929716403|-0.9134160993019835|-0.01625942811369896|-0.9038500785827637|-0.05958783999085426|0.03926703333854675|0.130706787109375|-0.2433513402938843|XArbitraryZVertical|-0.4593192003396387|0.01281336431579952|-0.2405061923358809|0.8549962181937407|-0.1990274637937546|0.7915957570075989|-0.5777233839035034|0|0|0|-1|-1|3
2021-04-22 22:16:06.568 +0100|141523.14925825|-0.50537109375|1.024826049804688|-0.750518798828125|141523.12929825|-0.715302963644138|-0.3520406218530616|-0.9079408035416376|0.448065459728241|-0.8030543923377991|-0.1503192484378815|-0.2446454912424088|0.3379827737808228|-0.2702388763427734|XArbitraryZVertical|-0.4595333645569329|0.003731226271287993|-0.2378217744122557|0.8557197045972216|-0.2121883183717728|0.7882382273674011|-0.577630341053009|0|0|0|-1|-1|3
2021-04-22 22:16:06.588 +0100|141523.16921825|-0.509735107421875|0.930877685546875|-0.6662139892578125|141523.14925825|-0.7115028112171512|-0.36361160380628|-0.8977654355571343|0.5934826135635376|-0.6482142210006714|-0.01488659344613552|-0.2595185041427612|0.2870493531227112|-0.1834641098976135|XArbitraryZVertical|-0.45681762867246|-0.004039655338858459|-0.2350690206860323|0.8579300294232594|-0.2216988354921341|0.7819359302520752|-0.5826026797294617|0|0|0|-1|-1|3
2021-04-22 22:16:06.608 +0100|141523.18917825|-0.357513427734375|0.7687530517578125|-0.645355224609375|141523.16921825|-0.701347446641156|-0.3658161184630637|-0.8868065881543562|0.6483869552612305|-0.3738081753253937|0.2758060395717621|-0.3094278573989868|0.1858646869659424|-0.09720617532730103|XArbitraryZVertical|-0.4526281854620624|-0.009379762492010101|-0.2318491149875074|0.8609795204783224|-0.2260344624519348|0.7750577926635742|-0.5900794863700867|0|0|0|-1|-1|3
2021-04-22 22:16:06.627 +0100|141523.20913825|-0.280609130859375|0.8074188232421875|-0.60992431640625|141523.18917825|-0.6833323192274269|-0.3576435454217649|-0.8790804954012765|0.4721291363239288|-0.2297150492668152|0.6090298295021057|-0.188541442155838|0.05249476432800293|-0.04147768020629883|XArbitraryZVertical|-0.4484658682340181|-0.01135795078434041|-0.2270613033971861|0.8644031205986028|-0.2232941836118698|0.7701526880264282|-0.5974987149238586|0|0|0|-1|-1|3
2021-04-22 22:16:06.647 +0100|141523.22909725|-0.323150634765625|0.8845062255859375|-0.66070556640625|141523.20913825|-0.6544290580897316|-0.3408384549744438|-0.8761698826360842|0.4934912621974945|-0.3218843936920166|0.9608327150344849|-0.06139048933982849|0.04745757579803467|-0.01040053367614746|XArbitraryZVertical|-0.4452406705192528|-0.01106362214318553|-0.2187122866345757|0.8682184931719829|-0.2139704972505569|0.7682928442955017|-0.6032766699790955|0|0|0|-1|-1|3
2021-04-22 22:16:06.667 +0100|141523.24905725|-0.287445068359375|0.8496856689453125|-0.607330322265625|141523.22909725|-0.6191338189935679|-0.3200212756695567|-0.8696704289533409|0.9390426278114319|-0.3455218076705933|0.8877334594726562|-0.1207218915224075|0.1029189229011536|-0.03925299644470215|XArbitraryZVertical|-0.4401327683358536|-0.01093661826387198|-0.2088376053731597|0.8732414273587221|-0.2029331624507904|0.7641164064407349|-0.6123270988464355|0|0|0|-1|-1|3
2021-04-22 22:16:06.687 +0100|141523.26901725|-0.1815032958984375|0.4173126220703125|-0.676177978515625|141523.24905725|-0.5854474415893063|-0.299927519523041|-0.8509692468021814|1.375545144081116|-0.198716476559639|0.5842345952987671|-0.1058368384838104|0.1379579901695251|0.0143311619758606|XArbitraryZVertical|-0.4300361329581452|-0.01252238488036488|-0.2008384063676648|0.8801001036148691|-0.1947774440050125|0.7519197463989258|-0.6298242211341858|0|0|0|-1|-1|3
2021-04-22 22:16:06.707 +0100|141523.28897725|-0.147491455078125|0.7678375244140625|-0.5928497314453125|141523.26901725|-0.5633694295913182|-0.2863709924138212|-0.8321199765599866|1.007997989654541|-0.1686145663261414|0.361482173204422|-0.03125987946987152|-0.2759811282157898|-0.02140712738037109|XArbitraryZVertical|-0.4205402498308621|-0.01418260032692804|-0.196258631687916|0.8856790145009092|-0.190191775560379|0.7393604516983032|-0.6458895206451416|0|0|0|-1|-1|3
2021-04-22 22:16:06.727 +0100|141523.30893725|-0.1938934326171875|0.4987640380859375|-0.6406707763671875|141523.28897725|-0.5471132766458756|-0.2764414384365645|-0.8156148770468878|0.8783819675445557|0.05091049894690514|0.1982248872518539|0.05459694564342499|0.06723284721374512|0.06709760427474976|XArbitraryZVertical|-0.4123787386790621|-0.01565692192141539|-0.1930255854958032|0.8901908487474144|-0.1870745867490768|0.7281472086906433|-0.6593972444534302|0|0|0|-1|-1|3
2021-04-22 22:16:06.747 +0100|141523.32889725|-0.1820220947265625|0.7022705078125|-0.5321807861328125|141523.30893725|-0.5424583068230169|-0.2694883437595456|-0.8005405902507778|0.7609224319458008|0.2317713052034378|-0.2498346567153931|-0.00118333101272583|-0.2545211315155029|0.05787569284439087|XArbitraryZVertical|-0.4051650855389505|-0.0157436523166784|-0.1940691418416493|0.893269631245325|-0.1853867322206497|0.7177326083183289|-0.6711868047714233|0|0|0|-1|-1|3
2021-04-22 22:16:06.767 +0100|141523.34885725|-0.145751953125|0.5830535888671875|-0.494293212890625|141523.32889725|-0.5447773535214753|-0.2666309415068669|-0.7857119589514127|0.5683600902557373|0.2630491554737091|-0.3104687929153442|0.001116365194320679|0.02736729383468628|0.1093058586120605|XArbitraryZVertical|-0.3984779421649897|-0.01618815012121291|-0.1973225856492295|0.8955542240723655|-0.1862521320581436|0.7073286175727844|-0.681906521320343|0|0|0|-1|-1|3
2021-04-22 22:16:06.787 +0100|141523.36881625|-0.1907501220703125|0.5793914794921875|-0.553466796875|141523.34885725|-0.5515576272067658|-0.2654263885968824|-0.7763264381652009|0.09402628242969513|0.2859792411327362|-0.2939024269580841|0.01881274580955505|-0.08785438537597656|0.1805724501609802|XArbitraryZVertical|-0.3943354277495854|-0.01569684825663598|-0.2016321477487073|0.8964361601102564|-0.187163844704628|0.7006630897521973|-0.6885063648223877|0|0|0|-1|-1|3
2021-04-22 22:16:06.807 +0100|141523.38877625|-0.173004150390625|0.67987060546875|-0.64056396484375|141523.36881625|-0.5608405117364814|-0.2660318961310747|-0.7819313374710162|-0.7687707543373108|0.3180780112743378|-0.2818364500999451|0.03790856897830963|-0.1992185711860657|0.1733022928237915|XArbitraryZVertical|-0.3968964754657702|-0.01329070938354379|-0.2050489476603877|0.8945677985364767|-0.1865452975034714|0.7046511173248291|-0.6845930814743042|0|0|0|-1|-1|3
2021-04-22 22:16:06.827 +0100|141523.40873625|-0.261810302734375|0.94921875|-0.6955108642578125|141523.38877625|-0.5731958863194448|-0.2685925636631088|-0.7973812098013773|-0.8458055257797241|0.289512574672699|-0.2226815968751907|0.01180140674114227|-0.1286908984184265|0.04421800374984741|XArbitraryZVertical|-0.4039059611616658|-0.009603044913174522|-0.2083147197344366|0.890714776278943|-0.1853862553834915|0.7155290842056274|-0.6735355257987976|0|0|0|-1|-1|3
2021-04-22 22:16:06.847 +0100|141523.42869625|-0.1946258544921875|0.8909149169921875|-0.6228179931640625|141523.40873625|-0.5849805851508526|-0.2701415978893092|-0.8066723165934355|-0.1631729304790497|0.4302362501621246|-0.3428547978401184|-0.06288176774978638|0.1686214804649353|-0.01716291904449463|XArbitraryZVertical|-0.408108445224321|-0.006456043020610606|-0.2121769491364661|0.8879115237990742|-0.1846472024917603|0.7219887375831604|-0.6668116450309753|0|0|0|-1|-1|3
2021-04-22 22:16:06.867 +0100|141523.44865625|-0.2095489501953125|0.8017730712890625|-0.5819549560546875|141523.42869625|-0.5930452315958297|-0.2667979362291386|-0.8016639570319309|0.4130152463912964|0.4994317293167114|-0.3631772696971893|-0.01008419692516327|0.189185619354248|0.02152210474014282|XArbitraryZVertical|-0.4056236307223358|-0.004119408544398734|-0.2170145078984867|0.8878949296612203|-0.1833676248788834|0.7185143828392029|-0.6709049940109253|0|0|0|-1|-1|3
2021-04-22 22:16:06.887 +0100|141523.46861625|-0.1142425537109375|0.64154052734375|-0.6614227294921875|141523.44865625|-0.5993613230360806|-0.2591185666886503|-0.7906854814269405|0.3719959855079651|0.7261011600494385|-0.3389601111412048|-0.03975106775760651|0.1320908665657043|0.0859907865524292|XArbitraryZVertical|-0.4000748214819034|-0.001175739393681845|-0.2226208543931517|0.8890325364151389|-0.1802205443382263|0.7108355760574341|-0.6798775196075439|0|0|0|-1|-1|3
2021-04-22 22:16:06.907 +0100|141523.48857525|-0.0867919921875|0.6284027099609375|-0.7406005859375|141523.46861625|-0.6062700413023426|-0.2483839778856706|-0.7874685262963472|-0.2722429931163788|0.8442219495773315|-0.1686426848173141|0.04754164814949036|-0.04647469520568848|0.04334628582000732|XArbitraryZVertical|-0.3974759572155521|0.004460831324910281|-0.2281933148723326|0.8887749758371164|-0.1734733581542969|0.7085692286491394|-0.6839859485626221|0|0|0|-1|-1|3
2021-04-22 22:16:06.927 +0100|141523.50853525|-0.1708526611328125|0.7722015380859375|-0.7585906982421875|141523.48857525|-0.6131851769521187|-0.2358357884640503|-0.7970225551567923|-0.6792995929718018|0.8434479832649231|-0.08415141701698303|0.076861172914505|-0.08106178045272827|-0.05181205272674561|XArbitraryZVertical|-0.4001062925797654|0.01293380767356677|-0.2327073310549194|0.8863381279534162|-0.163287878036499|0.7152785062789917|-0.6794953346252441|0|0|0|-1|-1|3
2021-04-22 22:16:06.947 +0100|141523.52849525|-0.1465606689453125|0.756591796875|-0.745635986328125|141523.52849525|-0.632963622779128|-0.2156532584452409|-0.8150563047344719|-0.1396487206220627|0.9817937612533569|-0.3044885694980621|-0.03229036927223206|0.048908531665802|-0.07407647371292114|XArbitraryZVertical|-0.4052201937642125|0.02873761453682121|-0.2435422326300631|0.8807144614929826|-0.1467572003602982|0.7277641892433167|-0.6699414849281311|0|0|0|-1|-1|3
2021-04-22 22:16:06.967 +0100|141523.54845525|-0.0326385498046875|0.6826324462890625|-0.692596435546875||||||||||||||||||||||||3
2021-04-22 22:16:06.987 +0100|141523.5684170417|-0.045867919921875|0.6659698486328125|-0.700958251953125|141523.54845525|-0.6397817564348319|-0.2029358323240505|-0.8143019185621861|0.08640369027853012|0.7237154245376587|-0.09011192619800568|0.1097860932350159|-0.03605359792709351|-0.03338146209716797|XArbitraryZVertical|-0.4032216608447999|0.03559038596223194|-0.2491943085418528|0.8797999400623809|-0.1383362412452698|0.7272466421127319|-0.6722912192344666|0|0|0|-1|-1|3
2021-04-22 22:16:07.007 +0100|141523.5883770417|-0.1723175048828125|0.617767333984375|-0.623626708984375|141523.5684170417|-0.642429377169907|-0.1886124700588331|-0.812424630546109|0.05649220943450928|0.7582246065139771|-0.08291668444871902|0.006877392530441284|-0.06279420852661133|0.009818375110626221|XArbitraryZVertical|-0.4005675308046648|0.04211747583179883|-0.2534334586994246|0.879513207366697|-0.1289486736059189|0.7259567975997925|-0.6755435466766357|0|0|0|-1|-1|3
2021-04-22 22:16:07.027 +0100|141523.6083360417|-0.0714111328125|0.8475494384765625|-0.7306976318359375|141523.5883770417|-0.6416686496601568|-0.1757123553221281|-0.8103577216767485|-0.06908053159713745|0.6730189919471741|-0.007419444620609283|0.03444036841392517|-0.1212772130966187|0.04070299863815308|XArbitraryZVertical|-0.3980563672040829|0.04730548562763392|-0.2558846090515934|0.8796797926964217|-0.1204856336116791|0.7245337963104248|-0.6786266565322876|0|0|0|-1|-1|3
2021-04-22 22:16:07.047 +0100|141523.6282960417|-0.1693267822265625|0.8016510009765625|-0.7670440673828125|141523.6083360417|-0.644940771730492|-0.1650001082761037|-0.8087696717233434|0.2748881578445435|0.5630139708518982|-0.09346671402454376|0.01871632784605026|0.1001704931259155|-0.04495441913604736|XArbitraryZVertical|-0.3959127534354371|0.05241041763230921|-0.2596071974111173|0.8792670451649484|-0.1133980974555016|0.7234383225440979|-0.6810124516487122|0|0|0|-1|-1|3
2021-04-22 22:16:07.067 +0100|141523.6482560417|-0.14776611328125|0.67987060546875|-0.7646484375|141523.6282960417|-0.6453802853842616|-0.1537522031707872|-0.7998820441156566|0.5217555165290833|0.5371724367141724|-0.141692116856575|-0.06128863245248795|0.0659295916557312|-0.06542563438415527|XArbitraryZVertical|-0.3906094692962746|0.05602154649452511|-0.2628706188541325|0.8804459724184444|-0.1067116186022758|0.7172738909721375|-0.6885716319084167|0|0|0|-1|-1|3
2021-04-22 22:16:07.087 +0100|141523.6682160417|-0.087554931640625|0.5930633544921875|-0.7162017822265625|141523.6482560417|-0.6476319974873034|-0.1458379435197156|-0.7876099314177918|0.5332456231117249|0.4189143180847168|-0.1827991604804993|-0.04590816795825958|0.03873735666275024|-0.07228797674179077|XArbitraryZVertical|-0.3842032588091088|0.05798406153067946|-0.2665486413160646|0.882030338558858|-0.1025303080677986|0.7086690068244934|-0.698051393032074|0|0|0|-1|-1|3
2021-04-22 22:16:07.106 +0100|141523.6881760417|-0.133697509765625|0.6550750732421875|-0.67041015625|141523.6682160417|-0.6483862451952521|-0.138678065897164|-0.7787678630129306|0.2249226421117783|0.2512322068214417|-0.07164263725280762|0.007158845663070679|-0.11239093542099|-0.02366042137145996|XArbitraryZVertical|-0.3793964782591685|0.05987640288612502|-0.2690594339339319|0.8832215887367107|-0.09839213639497757|0.7024029493331909|-0.7049462795257568|0|0|0|-1|-1|3
2021-04-22 22:16:07.127 +0100|141523.7081360417|-0.137237548828125|0.7414093017578125|-0.6620635986328125|141523.6881760417|-0.6500298780160064|-0.1364525771294468|-0.7789854828052045|-0.1182085946202278|0.1940782517194748|0.01084691099822521|-0.02471973747014999|-0.07040107250213623|0.02692717313766479|XArbitraryZVertical|-0.3791410080970951|0.06120545692829|-0.2701874885708783|0.8828956927713147|-0.0968022421002388|0.7025578022003174|-0.7050119638442993|0|0|0|-1|-1|3
2021-04-22 22:16:07.146 +0100|141523.7280950417|-0.1511383056640625|0.740478515625|-0.7017974853515625|141523.7081360417|-0.6504701635790652|-0.1331992963528321|-0.7836679713011714|-0.1763769239187241|0.1887882053852081|0.02886053174734116|-0.0459301695227623|0.02727240324020386|0.03794711828231812|XArbitraryZVertical|-0.3807150312056867|0.06347129737897303|-0.2705774123733486|0.8819385091153205|-0.09407021105289459|0.7058823108673096|-0.7020549178123474|0|0|0|-1|-1|3
2021-04-22 22:16:07.166 +0100|141523.7480550417|-0.1341705322265625|0.7083282470703125|-0.7325897216796875|141523.7280950417|-0.6522411471063536|-0.1313982698704223|-0.7854537623418545|-0.002993089612573385|0.1866905987262726|-0.05301533639431|-0.06222210824489594|0.04384607076644897|0.009597122669219971|XArbitraryZVertical|-0.3811869181677675|0.06488736778489493|-0.2715405167385316|0.8813353288166603|-0.09264032542705536|0.7071461081504822|-0.700972318649292|0|0|0|-1|-1|3
2021-04-22 22:16:07.187 +0100|141523.7680150417|-0.119476318359375|0.6656646728515625|-0.7108917236328125|141523.7480550417|-0.6545524744931421|-0.1297902409612936|-0.7816708248504282|0.1315018832683563|0.1554002612829208|-0.09577052295207977|-0.05017121136188507|0.01326179504394531|-0.03028613328933716|XArbitraryZVertical|-0.3792555886826472|0.06543104326899205|-0.2732042258456409|0.8816141329313572|-0.09185859560966492|0.7044662237167358|-0.7037679553031921|0|0|0|-1|-1|3
2021-04-22 22:16:07.206 +0100|141523.7879750417|-0.1081695556640625|0.6678619384765625|-0.663787841796875|141523.7680150417|-0.6576446084828577|-0.1298617938103611|-0.7781663838339732|0.05329306796193123|0.09023777395486832|-0.1198024451732635|-0.02692879736423492|-0.02623879909515381|-0.01355153322219849|XArbitraryZVertical|-0.3776470970781185|0.06542258724030929|-0.2748675195641354|0.8817883305696653|-0.09222809225320816|0.7019746899604797|-0.7062051296234131|0|0|0|-1|-1|3
2021-04-22 22:16:07.226 +0100|141523.8079350417|-0.10821533203125|0.7077789306640625|-0.634307861328125|141523.7879750417|-0.661785860144985|-0.1318174694355995|-0.7794364625359099|-0.1447819471359253|0.07318331301212311|-0.08284540474414825|-0.01739485561847687|-0.04864245653152466|0.0301821231842041|XArbitraryZVertical|-0.3783305256859248|0.06554822021662611|-0.27620878735546|0.8810664842468724|-0.09349174797534943|0.7028786540031433|-0.7051388621330261|0|0|0|-1|-1|3
2021-04-22 22:16:07.246 +0100|141523.8278950417|-0.1263275146484375|0.776885986328125|-0.6208953857421875|141523.8079350417|-0.665178798886121|-0.1330516923591974|-0.7841275641031715|-0.2613768577575684|0.1247944161295891|-0.03627754747867584|-0.01682575792074203|-0.009399592876434326|0.0591389536857605|XArbitraryZVertical|-0.3804159293288927|0.06640913183448607|-0.2770422339865549|0.8798415644246457|-0.09392353147268295|0.7062077522277832|-0.7017471194267273|0|0|0|-1|-1|3
2021-04-22 22:16:07.266 +0100|141523.8478540417|-0.0854034423828125|0.7538299560546875|-0.6525726318359375|141523.8278950417|-0.6691693085845384|-0.1338762373560206|-0.7889908394538895|-0.2402631789445877|0.1645695120096207|-0.1205835491418839|-0.02169632911682129|0.04490488767623901|0.07777446508407593|XArbitraryZVertical|-0.3824937992022097|0.06760026068849698|-0.2781931674604725|0.8784858186184131|-0.0940425843000412|0.7096425890922546|-0.6982573866844177|0|0|0|-1|-1|3
2021-04-22 22:16:07.286 +0100|141523.8678140417|-0.076019287109375|0.70135498046875|-0.6684722900390625|141523.8478540417|-0.6741738683388911|-0.1337142195321127|-0.7905516446929043|-0.04415948688983917|0.2248409688472748|-0.1504106819629669|-0.007430866360664368|0.05602830648422241|0.0508122444152832|XArbitraryZVertical|-0.3829723886618354|0.06888490973094065|-0.2802769952776645|0.8775146011912939|-0.09378167241811752|0.7107414603233337|-0.6971740126609802|0|0|0|-1|-1|3
2021-04-22 22:16:07.306 +0100|141523.8877740417|-0.05908203125|0.7034759521484375|-0.6851806640625|141523.8678140417|-0.6792408729984936|-0.1332109595219754|-0.7891370165399489|0.0695289820432663|0.2316113114356995|-0.1938913315534592|0.01754394918680191|-0.001249194145202637|0.03902250528335571|XArbitraryZVertical|-0.3821173775040181|0.06984150529931099|-0.2827270242256634|0.877025592985873|-0.0935642421245575|0.7097455859184265|-0.69821697473526|0|0|0|-1|-1|3
2021-04-22 22:16:07.326 +0100|141523.9077340417|-0.0764007568359375|0.67681884765625|-0.6800994873046875|141523.8877740417|-0.6844124041751001|-0.1331671017575796|-0.7873707563568567|0.05773943290114403|0.1657159179449081|-0.1747168302536011|0.04474873095750809|0.006160736083984375|0.009033322334289551|XArbitraryZVertical|-0.3811703320923611|0.07055422276067305|-0.2851668595909174|0.8765907651855311|-0.09369993209838867|0.7085002660751343|-0.6994625329971313|0|0|0|-1|-1|3
2021-04-22 22:16:07.346 +0100|141523.9276940417|-0.0428466796875|0.7450103759765625|-0.692596435546875|141523.9077340417|-0.6902636191573142|-0.1344349436731115|-0.7889060472411044|-0.1430033147335052|0.1492750942707062|-0.1928468346595764|0.01314091682434082|-0.02528685331344604|0.01407599449157715|XArbitraryZVertical|-0.3818034375291752|0.07137181422136321|-0.2873443575203633|0.8755372949448241|-0.094440758228302|0.7095828652381897|-0.6982644200325012|0|0|0|-1|-1|3
2021-04-22 22:16:07.366 +0100|141523.9476540417|-0.092498779296875|0.800048828125|-0.63897705078125|141523.9276940417|-0.6978591318052949|-0.1374698475148349|-0.7939621669095972|-0.2184269279241562|0.1195434555411339|-0.1925773173570633|0.02546317130327225|-0.006013333797454834|0.016693115234375|XArbitraryZVertical|-0.3841343543409831|0.07235285376394789|-0.2896051390058409|0.8736903088507606|-0.09606659412384033|0.7131364345550537|-0.6944116950035095|0|0|0|-1|-1|3
2021-04-22 22:16:07.386 +0100|141523.9676140417|-0.0676727294921875|0.760986328125|-0.6370086669921875|141523.9476540417|-0.7036871040285506|-0.1403099500724766|-0.7974470254840272|-0.1303262561559677|0.06439808011054993|-0.2276990860700607|0.04908999800682068|0.08558797836303711|0.03624558448791504|XArbitraryZVertical|-0.3858242734292828|0.07282899483407268|-0.2912665556932312|0.8723528119001019|-0.09769025444984436|0.715575098991394|-0.6916711330413818|0|0|0|-1|-1|3
2021-04-22 22:16:07.406 +0100|141523.9875730417|-0.0703125|0.72515869140625|-0.650543212890625|141523.9676140417|-0.7104499324776032|-0.1421115541919818|-0.7991428746996189|-0.09147553145885468|0.1418894082307816|-0.252961277961731|0.002480223774909973|0.06290477514266968|0.06037890911102295|XArbitraryZVertical|-0.3865631768665672|0.0736412197569432|-0.2937008931465702|0.871140500172118|-0.09876420348882675|0.716758668422699|-0.6902917623519897|0|0|0|-1|-1|3
2021-04-22 22:16:07.426 +0100|141524.0075330417|-0.0656280517578125|0.7696990966796875|-0.660919189453125|141523.9875730417|-0.7168578185060517|-0.1438503477342305|-0.7994826480421585|-0.02692886628210545|0.1404881030321121|-0.2055905759334564|0.03657389432191849|0.004425048828125|0.04504197835922241|XArbitraryZVertical|-0.3867273969793518|0.07418201612425648|-0.2961208305050936|0.8702019525185485|-0.09992940723896027|0.7169955372810364|-0.6898779273033142|0|0|0|-1|-1|3
2021-04-22 22:16:07.446 +0100|141524.0274930417|-0.09332275390625|0.7798309326171875|-0.688079833984375|141524.0075330417|-0.7211116351616811|-0.1440333902193594|-0.7989355536379041|0.003877632785588503|0.115946538746357|-0.1445654928684235|0.04417222738265991|0.04588323831558228|0.02681130170822144|XArbitraryZVertical|-0.3863634924953218|0.07482891910449073|-0.2979900129644747|0.8696700770436488|-0.1001119837164879|0.7166140675544739|-0.6902477741241455|0|0|0|-1|-1|3
2021-04-22 22:16:07.466 +0100|141524.0474530417|-0.0849609375|0.7872314453125|-0.7168121337890625|141524.0274930417|-0.7239330523753652|-0.1425191116373176|-0.7998895736769652|0.009712652303278446|0.1389706432819366|-0.1417147517204285|-0.001571699976921082|0.05698263645172119|0.01450520753860474|XArbitraryZVertical|-0.3864361464958556|0.07619962296248788|-0.2994141300793671|0.8690292952831303|-0.0989694744348526|0.7172791361808777|-0.6897214651107788|0|0|0|-1|-1|3
2021-04-22 22:16:07.486 +0100|141524.0674130417|-0.1072998046875|0.767333984375|-0.709625244140625|141524.0474530417|-0.727544514654854|-0.1427218134215782|-0.8010494597408742|0.0247475765645504|0.1268320530653|-0.09501063823699951|0.01801146566867828|0.07054871320724487|-0.03242027759552002|XArbitraryZVertical|-0.386820522035292|0.07701382948238225|-0.3008279073527251|0.8682980927653461|-0.09899089485406876|0.718086838722229|-0.6888775229454041|0|0|0|-1|-1|3
2021-04-22 22:16:07.506 +0100|141524.0873730417|-0.0667572021484375|0.7147674560546875|-0.7099456787109375|141524.0674130417|-0.7298438198520679|-0.1411816265167205|-0.801164417564777|0.02388694509863853|0.1538480222225189|-0.1185393109917641|-0.008955441415309906|0.05842947959899902|-0.02107417583465576|XArbitraryZVertical|-0.3865480010780195|0.07814725389797926|-0.3021122472137281|0.8678720043531043|-0.09791814535856247|0.7181668877601624|-0.688947319984436|0|0|0|-1|-1|3
2021-04-22 22:16:07.526 +0100|141524.1073320417|-0.0747833251953125|0.697052001953125|-0.6905517578125|141524.0873730417|-0.7320059585028797|-0.1392786794902355|-0.8011314468705941|0.02981427311897278|0.1439267694950104|-0.07876162976026535|0.0249691978096962|0.007777988910675049|-0.02204054594039917|XArbitraryZVertical|-0.3861607729865242|0.07938464591538559|-0.3034211436386235|0.867475420799912|-0.09661022573709488|0.7181439399719238|-0.6891558766365051|0|0|0|-1|-1|3
2021-04-22 22:16:07.546 +0100|141524.1272920417|-0.0966033935546875|0.718475341796875|-0.69744873046875|141524.1073320417|-0.7333110010511834|-0.1373950315822821|-0.8014770559161424|0.0236478429287672|0.1389654129743576|-0.03031268902122974|0.02360637485980988|-0.0164797306060791|-0.005031108856201172|XArbitraryZVertical|-0.3859689270086543|0.08051459696403236|-0.3043163229585325|0.8671430829538727|-0.09527793526649475|0.7183843851089478|-0.6890907883644104|0|0|0|-1|-1|3
2021-04-22 22:16:07.566 +0100|141524.1472520417|-0.10406494140625|0.7428131103515625|-0.7274932861328125|141524.1272920417|-0.7334633832236362|-0.134499933417672|-0.8018365668390318|0.0002861935645341873|0.1445482969284058|-0.0214116033166647|0.004547543823719025|-0.004812717437744141|-0.006036460399627686|XArbitraryZVertical|-0.3856742673687014|0.08186275527569839|-0.3049053107598483|0.8669409754697541|-0.0932479128241539|0.7186344265937805|-0.6891077160835266|0|0|0|-1|-1|3
2021-04-22 22:16:07.585 +0100|141524.1672120417|-0.1114349365234375|0.71630859375|-0.726898193359375|141524.1472520417|-0.734501945849505|-0.1322513483338522|-0.8022741617419941|0.006796457804739475|0.1497693806886673|-0.04194333404302597|-0.01868064701557159|0.01917505264282227|-0.02960836887359619|XArbitraryZVertical|-0.3854737214879569|0.08311491839885425|-0.3057458027485052|0.8666149546999737|-0.09165668487548828|0.7189386487007141|-0.6890038251876831|0|0|0|-1|-1|3
2021-04-22 22:16:07.606 +0100|141524.1871720417|-0.0985107421875|0.6977081298828125|-0.6961822509765625|141524.1672120417|-0.7354130509510286|-0.1298868870339024|-0.8019355447944279|0.01752886362373829|0.1503931432962418|-0.03269000351428986|-0.01965289562940598|0.005204498767852783|-0.03937560319900513|XArbitraryZVertical|-0.3849300295368507|0.08425492703187484|-0.3066291773267361|0.8664343702339861|-0.0900588259100914|0.7187032699584961|-0.6894599795341492|0|0|0|-1|-1|3
2021-04-22 22:16:07.625 +0100|141524.2071320417|-0.089813232421875|0.710723876953125|-0.655548095703125|141524.1871720417|-0.7355958674126931|-0.1266351834125523|-0.8013678164008845|0.01490758173167706|0.164341077208519|-0.009262352250516415|-0.01439746469259262|-0.01963865756988525|-0.0155341625213623|XArbitraryZVertical|-0.3841822552784782|0.08559829579100482|-0.3073889595518717|0.8663654230461983|-0.08786796033382416|0.7183083891868591|-0.6901538372039795|0|0|0|-1|-1|3
2021-04-22 22:16:07.645 +0100|141524.2270920417|-0.102813720703125|0.7140045166015625|-0.67791748046875|141524.2071320417|-0.7351825728038708|-0.1229231692690742|-0.8007536611376334|0.0221091341227293|0.177530437707901|0.01734404638409615|0.000397607684135437|-0.01536595821380615|0.02393651008605957|XArbitraryZVertical|-0.3833683214265186|0.08701853353020229|-0.3079816088624124|0.8663740779405931|-0.08535958081483841|0.7178809642791748|-0.6909130215644836|0|0|0|-1|-1|3
2021-04-22 22:16:07.666 +0100|141524.2470510417|-0.1049957275390625|0.717437744140625|-0.71295166015625|141524.2270920417|-0.7352391455696351|-0.1193717202701286|-0.8000768338242371|0.04538249969482422|0.2066257297992706|0.006655449979007244|-0.02331535518169403|0.0002115964889526367|0.02708262205123901|XArbitraryZVertical|-0.3825308438496847|0.08844853936679035|-0.3087510466638138|0.8663255157962736|-0.08296314626932144|0.717409610748291|-0.6916940212249756|0|0|0|-1|-1|3
2021-04-22 22:16:07.685 +0100|141524.2670110417|-0.1038970947265625|0.69097900390625|-0.7137451171875|141524.2470510417|-0.7352804722299547|-0.1158992698393879|-0.7988156675856936|0.03696507960557938|0.1751886010169983|0.00230597541667521|-0.01845677942037582|0.006446540355682373|-0.01864075660705566|XArbitraryZVertical|-0.3814562861250176|0.08973872467649224|-0.309552072791685|0.8663808452389469|-0.08066534250974655|0.716530442237854|-0.6928761005401611|0|0|0|-1|-1|3
2021-04-22 22:16:07.705 +0100|141524.2869710417|-0.0843048095703125|0.7157440185546875|-0.7049407958984375|141524.2670110417|-0.7360760346651529|-0.1135147905064519|-0.7982805256622346|-0.02991769649088383|0.1495029479265213|-0.0249769538640976|-0.02944988757371902|-0.02713090181350708|-0.0174592137336731|XArbitraryZVertical|-0.3808233054820858|0.09082912906737597|-0.3104016208837116|0.8662416853803721|-0.07905638962984085|0.716157078742981|-0.6934473514556885|0|0|0|-1|-1|3
2021-04-22 22:16:07.725 +0100|141524.3069310417|-0.0962066650390625|0.69769287109375|-0.6688690185546875|141524.2869710417|-0.7369865608969082|-0.11164570217393|-0.7988032699867349|-0.0253131091594696|0.1228005588054657|-0.006911668926477432|-0.0122179314494133|0.001450300216674805|-0.01673871278762817|XArbitraryZVertical|-0.3807135639032707|0.0919037729570802|-0.311102607951261|0.8659250197561364|-0.07771841436624527|0.7165217995643616|-0.6932217478752136|0|0|0|-1|-1|3
2021-04-22 22:16:07.745 +0100|141524.3268910417|-0.0863189697265625|0.675384521484375|-0.675262451171875|141524.3069310417|-0.7375596152973835|-0.1100639265171438|-0.7993511150720325|0.015866469591856|0.1322561651468277|-0.004428448155522346|-0.01294566690921783|-0.01625043153762817|0.02071279287338257|XArbitraryZVertical|-0.3806737351034906|0.09279386468399457|-0.3116003717356048|0.865668670031243|-0.07657866925001144|0.7169038653373718|-0.6929535865783691|0|0|0|-1|-1|3
2021-04-22 22:16:07.765 +0100|141524.3468510417|-0.0910797119140625|0.6903228759765625|-0.6972198486328125|141524.3268910417|-0.7380502653845458|-0.1079717119122955|-0.7987251018032213|0.0332808792591095|0.1337029039859772|0.001942187780514359|-0.01202797889709473|-0.03777128458023071|0.02333164215087891|XArbitraryZVertical|-0.3800583936343953|0.09368273058126125|-0.3122691374316866|0.8656022838968319|-0.07517704367637634|0.7164672613143921|-0.6935583353042603|0|0|0|-1|-1|3
2021-04-22 22:16:07.785 +0100|141524.3668110417|-0.0946502685546875|0.675262451171875|-0.716278076171875|141524.3468510417|-0.7383640301418892|-0.1059850158881724|-0.7971251149528381|0.06741756200790405|0.1318900287151337|0.02023490890860558|-0.02012078464031219|-0.02479809522628784|0.004980623722076416|XArbitraryZVertical|-0.3790525773748556|0.09432110797049556|-0.3129306868932092|0.8657350964771167|-0.07392018288373947|0.7153501510620117|-0.6948453187942505|0|0|0|-1|-1|3
2021-04-22 22:16:07.805 +0100|141524.3867700417|-0.0967254638671875|0.68505859375|-0.7394256591796875|141524.3668110417|-0.7381477419829793|-0.1037022693122183|-0.7958321723816729|0.01153943035751581|0.1103502288460732|0.007601404562592506|-0.01884960383176804|-0.03813058137893677|-0.01375430822372437|XArbitraryZVertical|-0.3781551836176871|0.09504146955622664|-0.3133886564547799|0.8658829850774844|-0.07242950797080994|0.7144461274147034|-0.6959315538406372|0|0|0|-1|-1|3
2021-04-22 22:16:07.825 +0100|141524.4067300417|-0.0993499755859375|0.6798858642578125|-0.702484130859375|141524.3867700417|-0.738796609256454|-0.1022677089553551|-0.7960579236461579|-0.02012272551655769|0.1006041765213013|-0.01558993384242058|-0.02752441167831421|-0.027881920337677|-0.04202502965927124|XArbitraryZVertical|-0.3779953090066716|0.09582469988440244|-0.3139199468541303|0.8656740813275217|-0.07141461968421936|0.7146040797233582|-0.6958743333816528|0|0|0|-1|-1|3
2021-04-22 22:16:07.845 +0100|141524.4266900417|-0.085662841796875|0.6646881103515625|-0.6797943115234375|141524.4067300417|-0.7398581631103002|-0.1013162367703595|-0.7960943023736547|0.007197396829724312|0.1185183003544807|-0.03088118135929108|-0.02472543716430664|-0.02406215667724609|-0.02014797925949097|XArbitraryZVertical|-0.3778102780268455|0.0964434516215367|-0.3145558137152137|0.8654552851891187|-0.07074984908103943|0.7146294713020325|-0.6959161162376404|0|0|0|-1|-1|3
2021-04-22 22:16:07.865 +0100|141524.4466500417|-0.0870819091796875|0.6588897705078125|-0.694244384765625|141524.4266900417|-0.741243311645356|-0.09978431921237438|-0.7952269741604008|0.04114439338445663|0.1532092243432999|-0.03502515330910683|-0.02301382273435593|-0.04588562250137329|0.01525932550430298|XArbitraryZVertical|-0.377132736729828|0.09721536682493245|-0.3155237365533391|0.865312074430027|-0.06974539905786514|0.7140225172042847|-0.6966401338577271|0|0|0|-1|-1|3
2021-04-22 22:16:07.885 +0100|141524.4666100417|-0.0913848876953125|0.6505126953125|-0.7422332763671875|141524.4466500417|-0.7424934403603958|-0.09777711498762176|-0.7934115079237024|0.07138577103614807|0.1611953526735306|-0.05435739457607269|-0.01078180223703384|-0.05569130182266235|0.01334518194198608|XArbitraryZVertical|-0.3759816367851871|0.09799999430386871|-0.3166081832779498|0.8653283085852774|-0.06847338378429413|0.7127503156661987|-0.6980676054954529|0|0|0|-1|-1|3
2021-04-22 22:16:07.905 +0100|141524.4865700417|-0.09564208984375|0.654998779296875|-0.764801025390625|141524.4666100417|-0.744755036935917|-0.09643443242139782|-0.7908706290701568|0.07792039960622787|0.1643655896186829|-0.08245818316936493|-0.02713948488235474|-0.05291491746902466|-0.03049379587173462|XArbitraryZVertical|-0.3745753648538715|0.09855777868263015|-0.3180694803227202|0.8653390068364661|-0.06771020591259003|0.7109658122062683|-0.6999593377113342|0|0|0|-1|-1|3
2021-04-22 22:16:07.925 +0100|141524.5065300417|-0.11700439453125|0.6640777587890625|-0.745269775390625|141524.4865700417|-0.7479978226696777|-0.09609653828357738|-0.7882522277519757|0.09828018397092819|0.1299586594104767|-0.1289667338132858|-0.02269627153873444|-0.0622100830078125|-0.06235748529434204|XArbitraryZVertical|-0.3732462458561066|0.09884754917987285|-0.3197731316401062|0.8652524348635297|-0.06765207648277283|0.7091220021247864|-0.7018328309059143|0|0|0|-1|-1|3
2021-04-22 22:16:07.945 +0100|141524.5264890417|-0.105377197265625|0.6389007568359375|-0.74884033203125|141524.5065300417|-0.7528446654125838|-0.09738570175198194|-0.785621779971255|0.09679529070854187|0.1390834003686905|-0.1848982572555542|-0.04901518672704697|-0.04570454359054565|-0.04720932245254517|XArbitraryZVertical|-0.3720937272983588|0.09872577583395252|-0.3218687166576017|0.8649855661879865|-0.06873791664838791|0.7072649002075195|-0.7035989761352539|0|0|0|-1|-1|3
2021-04-22 22:16:07.965 +0100|141524.5464490417|-0.141143798828125|0.531768798828125|-0.8087005615234375|141524.5264890417|-0.7583286572844903|-0.09856690652550071|-0.783138776406505|0.08075527101755142|0.1448251605033875|-0.2030891627073288|-0.03284430503845215|-0.05037093162536621|-0.03242301940917969|XArbitraryZVertical|-0.3709572160194413|0.09878944704731671|-0.3242475457751895|0.8645779764442988|-0.06974157691001892|0.7055073380470276|-0.7052627801895142|0|0|0|-1|-1|3
2021-04-22 22:16:07.985 +0100|141524.5664090417|-0.17877197265625|0.487548828125|-0.8495025634765625|141524.5464490417|-0.764144883298408|-0.1001639836168262|-0.7804768421821622|0.02723992988467216|0.136255756020546|-0.2140075117349625|-0.05194676667451859|-0.1333208084106445|-0.08907985687255859|XArbitraryZVertical|-0.3697982605370226|0.09869638078173056|-0.3267103878079599|0.8641577521025037|-0.07105538249015808|0.7036183476448059|-0.7070165276527405|0|0|0|-1|-1|3
2021-04-22 22:16:08.005 +0100|141524.586369|-0.209747314453125|0.38262939453125|-0.950103759765625|141524.5664090417|-0.7722191209483772|-0.1026483833875739|-0.7787895217512214|-0.04169780761003494|0.2015859633684158|-0.3510616719722748|-0.1064654067158699|-0.2044017314910889|-0.1313677430152893|XArbitraryZVertical|-0.3690909031820642|0.09880786875459939|-0.3298949626115498|0.8632371008910596|-0.07293321937322617|0.7024183869361877|-0.7080178260803223|0|0|0|-1|-1|3
2021-04-22 22:16:08.025 +0100|141524.606329|-0.3400421142578125|0.266204833984375|-1.054107666015625|141524.586369|-0.7850247852439938|-0.1071985475405628|-0.7770397148033544|-0.01050486788153648|0.2932884097099304|-0.56868577003479|-0.1168003231287003|-0.2899929285049438|-0.2137532234191895|XArbitraryZVertical|-0.3684727129036258|0.09888405355112367|-0.334742997313601|0.8616246505547196|-0.07628544420003891|0.7011718153953552|-0.7088996171951294|0|0|0|-1|-1|3
2021-04-22 22:16:08.045 +0100|141524.626289|-0.3908233642578125|0.1880035400390625|-1.030929565429688|141524.606329|-0.8066322254370251|-0.1148986777375585|-0.7752579217468453|0.008904915302991867|0.4818055629730225|-1.004298686981201|-0.2204538583755493|-0.4090217351913452|-0.3385794162750244|XArbitraryZVertical|-0.3679550790125916|0.09921418831804039|-0.342790666023945|0.8586386728270519|-0.08188485354185104|0.6999003291130066|-0.7095311880111694|0|0|0|-1|-1|3
2021-04-22 22:16:08.065 +0100|141524.646248|-0.4254608154296875|0.024932861328125|-0.923370361328125|141524.626289|-0.8409969314046203|-0.1255557534200731|-0.7716693160486773|0.06547606736421585|0.8658576607704163|-1.48683226108551|-0.301068902015686|-0.4838008880615234|-0.3292840719223022|XArbitraryZVertical|-0.3665991172260584|0.10026106836655|-0.3559072999803984|0.8537464579947398|-0.08975554257631302|0.6973326802253723|-0.7111055850982666|0|0|0|-1|-1|3
2021-04-22 22:16:08.084 +0100|141524.666208|-0.407257080078125|-0.0014801025390625|-0.733367919921875|141524.646248|-0.8892101781361795|-0.1369277595727108|-0.7655492066647929|0.1018900796771049|1.387072801589966|-2.028098821640015|-0.3220400214195251|-0.6316840648651123|-0.2519937753677368|XArbitraryZVertical|-0.3636887849411107|0.1029744476974174|-0.3749741036757887|0.8464758952407532|-0.09841697663068771|0.6929330825805664|-0.7142534852027893|0|0|0|-1|-1|3
2021-04-22 22:16:08.104 +0100|141524.686168|-0.42169189453125|0.0320587158203125|-0.6906585693359375|141524.666208|-0.9511665161468063|-0.1474454651942882|-0.756715435916562|0.1761097460985184|1.812752723693848|-2.585890293121338|-0.2867674827575684|-0.701108992099762|-0.05626100301742554|XArbitraryZVertical|-0.3588482239610726|0.1078199576931556|-0.4001295478235411|0.8363606407727119|-0.1068188175559044|0.686536967754364|-0.7192056179046631|0|0|0|-1|-1|3
2021-04-22 22:16:08.124 +0100|141524.706128|-0.3680572509765625|0.1107940673828125|-0.731414794921875|141524.686168|-1.0282450271876|-0.1597458528075371|-0.7412589812923694|0.4812654256820679|2.196404695510864|-3.222582340240479|-0.3266397714614868|-0.6585696339607239|0.04167383909225464|XArbitraryZVertical|-0.3509460992552348|0.1127965206127259|-0.4317546870302679|0.8232264775334101|-0.1173310801386833|0.6752170920372009|-0.7282275557518005|0|0|0|-1|-1|3
2021-04-22 22:16:08.145 +0100|141524.726088|-0.21319580078125|0.3390045166015625|-0.57366943359375|141524.706128|-1.119828911192304|-0.1751983460829657|-0.7193407917952519|0.502106249332428|2.364330530166626|-3.872635841369629|-0.2448290586471558|-0.5847312211990356|0.003664672374725342|XArbitraryZVertical|-0.3405697044343428|0.116832329761873|-0.4691326092642373|0.8063976532055561|-0.1311180740594864|0.6588889360427856|-0.7407249808311462|0|0|0|-1|-1|3
2021-04-22 22:16:08.164 +0100|141524.746048|-0.040618896484375|0.7043304443359375|-0.3264923095703125|141524.726088|-1.224022656166974|-0.1946736098631388|-0.6948141135966992|0.4553642868995667|2.423938989639282|-4.385190963745117|-0.1169343739748001|-0.3736869096755981|0.12559574842453|XArbitraryZVertical|-0.3298438251970472|0.1198821649025026|-0.5105540203645672|0.7849624210740184|-0.1486001908779144|0.6402426362037659|-0.753662645816803|0|0|0|-1|-1|3
2021-04-22 22:16:08.184 +0100|141524.766008|0.0455780029296875|1.0460205078125|-0.2088470458984375|141524.746048|-1.334891460535532|-0.2174064836518746|-0.6644573062039409|0.7924798130989075|2.325379848480225|-4.68845272064209|0.1067428141832352|-0.04519051313400269|0.3315860629081726|XArbitraryZVertical|-0.3181292871747893|0.1201410240508685|-0.5538902380749499|0.7599773514891799|-0.169808492064476|0.6166319847106934|-0.7687197923660278|0|0|0|-1|-1|3
2021-04-22 22:16:08.204 +0100|141524.785967|-0.2742462158203125|1.616043090820312|-0.2942657470703125|141524.766008|-1.445471238626192|-0.2387307061518047|-0.6263867843563211|0.8192357420921326|2.136706590652466|-4.733562469482422|0.2439888715744019|0.3429470658302307|0.5695838928222656|XArbitraryZVertical|-0.3043631274033691|0.1173712100136115|-0.5972685787555548|0.7327054908861359|-0.1915760040283203|0.5862213373184204|-0.7871741652488708|0|0|0|-1|-1|3
2021-04-22 22:16:08.224 +0100|141524.805927|-0.4086761474609375|2.202987670898438|-0.2187957763671875|141524.785967|-1.548502001533585|-0.2584623088232503|-0.5940735213575316|0.09663804620504379|1.809961676597595|-4.173087596893311|0.02507980167865753|0.958950400352478|0.5204724073410034|XArbitraryZVertical|-0.2936696521379943|0.1148339687285759|-0.6360201312396693|0.7043080846403551|-0.2118026316165924|0.5597412586212158|-0.8011425733566284|0|0|0|-1|-1|3
2021-04-22 22:16:08.244 +0100|141524.825887|-0.1148529052734375|2.630889892578125|0.1766510009765625|141524.805927|-1.636728497949629|-0.2733435444501536|-0.5777660493101044|-0.2785580158233643|1.605165123939514|-3.347917795181274|-0.1835644841194153|1.501697182655334|0.5361226201057434|XArbitraryZVertical|-0.2882197468229686|0.1167776402083964|-0.6667267609875384|0.6773241654089528|-0.2261350005865097|0.5461539626121521|-0.8065847158432007|0|0|0|-1|-1|3
2021-04-22 22:16:08.264 +0100|141524.845847|0.151947021484375|2.649749755859375|0.27191162109375|141524.825887|-1.703736634501406|-0.2779502711133914|-0.5637037726054388|0.1020813584327698|1.584467768669128|-2.452081680297852|0.01869027316570282|2.024211645126343|0.8741954565048218|XArbitraryZVertical|-0.2815384615917987|0.1196500597207654|-0.6904757600774628|0.6554870934644331|-0.2319328337907791|0.534320592880249|-0.8128399252891541|0|0|0|-1|-1|3
2021-04-22 22:16:08.284 +0100|141524.865807|-0.0458526611328125|3.0953369140625|0.2502288818359375|141524.845847|-1.747637853256806|-0.2713403744485653|-0.5555654372882437|-0.4303599298000336|1.338862657546997|-1.343053221702576|0.3619130849838257|2.067454814910889|1.091085195541382|XArbitraryZVertical|-0.274143162654834|0.1248469121616428|-0.7068076722468687|0.6400638761113973|-0.2277129888534546|0.5274237990379333|-0.8185175657272339|0|0|0|-1|-1|3
2021-04-22 22:16:08.304 +0100|141524.885767|-0.0351409912109375|2.932540893554688|0.450164794921875|141524.865807|-1.770321819503362|-0.2601255347135964|-0.5620277978687847|-0.6103804707527161|0.9963787198066711|-0.4010408818721771|0.2158366292715073|2.513589859008789|1.048528552055359|XArbitraryZVertical|-0.270561926746812|0.1339468888670703|-0.7146006808688524|0.6310313037745555|-0.2176381200551987|0.5329031944274902|-0.8177089691162109|0|0|0|-1|-1|3
2021-04-22 22:16:08.324 +0100|141524.905727|-0.088470458984375|3.062896728515625|0.7389984130859375|141524.885767|-1.772376976101319|-0.2471488291433817|-0.5757737977350924|-0.888071596622467|0.3548405766487122|0.592652440071106|0.1710625141859055|2.463449954986572|1.209936261177063|XArbitraryZVertical|-0.2697333376682012|0.1435332848968887|-0.7149913169196406|0.6288319624483075|-0.205197349190712|0.54448401927948|-0.8132842183113098|0|0|0|-1|-1|3
2021-04-22 22:16:08.344 +0100|141524.925686|-0.3598480224609375|3.1199951171875|0.9064178466796875|141524.905727|-1.753419440924089|-0.2361371778694106|-0.601971314303464|-1.205644249916077|-0.3113834857940674|1.548269867897034|0.1127464175224304|2.451309204101562|1.47856330871582|XArbitraryZVertical|-0.2747924353471373|0.154321601667077|-0.7066345421564294|0.6335152967438052|-0.1928254663944244|0.5662683844566345|-0.8013479113578796|0|0|0|-1|-1|3
2021-04-22 22:16:08.364 +0100|141524.945646|-0.9308624267578125|3.051727294921875|1.028640747070312|141524.925686|-1.712569708101361|-0.2252062762753759|-0.6319817758708365|-1.079927086830139|-0.9476860165596008|2.360436916351318|-0.08088609576225281|2.582701206207275|1.655151128768921|XArbitraryZVertical|-0.2830140961784373|0.163282544514829|-0.6905846383334148|0.6452401142401454|-0.1801774799823761|0.5907449126243591|-0.7864836454391479|0|0|0|-1|-1|3
2021-04-22 22:16:08.384 +0100|141524.965606|-1.459030151367188|3.527542114257812|0.9270782470703125|141524.945646|-1.655417591798696|-0.2177731894609005|-0.680231640907176|-3.023155450820923|-1.840442657470703|3.137987852096558|-0.6012288331985474|2.371484279632568|1.783875703811646|XArbitraryZVertical|-0.2998026395375179|0.174888207141379|-0.6655618413477754|0.6607268219155517|-0.1679677367210388|0.628973126411438|-0.7590649724006653|0|0|0|-1|-1|3
2021-04-22 22:16:08.404 +0100|141524.985566|-2.0770263671875|3.386734008789062|0.576080322265625|141524.965606|-1.588366796071672|-0.2239281077535706|-0.776140192626251|-4.6219162940979|-3.336297988891602|3.809441566467285|-1.15137791633606|2.704956531524658|1.666401743888855|XArbitraryZVertical|-0.3373196858329057|0.1957361911293183|-0.6264857948332001|0.67484693378825|-0.1584680527448654|0.7005301713943481|-0.695805549621582|0|0|0|-1|-1|3
2021-04-22 22:16:08.424 +0100|141525.005526|-2.551422119140625|2.272842407226562|0.689544677734375|141524.985566|-1.495613627331092|-0.2382189667510726|-0.8556369498530833|-0.8904878497123718|-4.874589443206787|4.161805629730225|-1.804417371749878|2.726731061935425|1.305859804153442|XArbitraryZVertical|-0.3755564291917515|0.2008669988908484|-0.5782132059169439|0.6959018644212737|-0.1547359377145767|0.7549887299537659|-0.6372196078300476|0|0|0|-1|-1|3
2021-04-22 22:16:08.444 +0100|141525.025486|-3.497329711914062|2.043075561523438|0.1781768798828125|141525.005526|-1.354016096789541|-0.2386518919097013|-0.8564473808301094|2.376590013504028|-5.869414806365967|4.980299949645996|-2.300074815750122|1.852359533309937|1.319404125213623|XArbitraryZVertical|-0.3892117839641931|0.1738828302091592|-0.5273138274892474|0.7349960941868974|-0.1548671126365662|0.7555199265480042|-0.6365578770637512|0|0|0|-1|-1|3
2021-04-22 22:16:08.464 +0100|141525.045446|-4.203277587890625|0.97637939453125|0.0045166015625|141525.025486|-1.178331675066552|-0.2306461794789695|-0.8228088537308861|3.544426441192627|-6.300035953521729|5.425197124481201|-3.051511526107788|1.362750768661499|1.015776038169861|XArbitraryZVertical|-0.3888719448845381|0.1330485116236582|-0.4676626143007331|0.7825398322034819|-0.1554902195930481|0.7330592274665833|-0.662153422832489|0|0|0|-1|-1|3
2021-04-22 22:16:08.484 +0100|141525.065405|-3.542572021484375|0.604278564453125|-0.717926025390625|141525.045446|-1.003065410346932|-0.2238602708321737|-0.7780853668166523|3.881369352340698|-5.262436389923096|5.021620273590088|-3.857767581939697|0.1511867046356201|0.6374951004981995|XArbitraryZVertical|-0.3801966616211269|0.09059439133688688|-0.4049104734604502|0.8266139869243416|-0.1581180393695831|0.7019169926643372|-0.6944863200187683|0|0|0|-1|-1|3
2021-04-22 22:16:08.504 +0100|141525.085365|-4.087081909179688|0.5681610107421875|-1.081039428710938|141525.065405|-0.8318066796273523|-0.2131987476317831|-0.7829722231692539|-0.3193915188312531|-5.300499439239502|6.147608280181885|-3.149324893951416|-2.202413558959961|-0.2124401330947876|XArbitraryZVertical|-0.3867878778325073|0.06331856880665755|-0.3341934573222942|0.8571468219581959|-0.1499773412942886|0.7053893208503723|-0.6927717924118042|0|0|0|-1|-1|3
2021-04-22 22:16:08.524 +0100|141525.105325|-3.66583251953125|0.1165618896484375|-1.667327880859375|141525.085365|-0.6625452870434745|-0.1840469117375773|-0.8355625209375172|-2.590845584869385|-4.061585903167725|6.244877338409424|-4.052004337310791|-0.5898944139480591|-0.3398195505142212|XArbitraryZVertical|-0.4093675375752467|0.05198174721242042|-0.26075775570299|0.8727666373767146|-0.122755654156208|0.7416739463806152|-0.6594322323799133|0|0|0|-1|-1|3
2021-04-22 22:16:08.543 +0100|141525.125285|-3.088851928710938|0.1129608154296875|-1.685409545898438|141525.105325|-0.4806378444851192|-0.1172880172499724|-0.9364199910725205|-5.559657096862793|-3.548213720321655|6.738013744354248|-3.825833797454834|-0.7894803881645203|-0.8937109112739563|XArbitraryZVertical|-0.4500156896734976|0.05642833290584497|-0.1863416419241131|0.8715380431135388|-0.06935444474220276|0.8054414987564087|-0.5886034369468689|0|0|0|-1|-1|3
2021-04-22 22:16:08.564 +0100|141525.145245|-2.616439819335938|1.164505004882812|-1.315231323242188|141525.125285|-0.2375260565011993|0.01837304282695368|-1.085823795181774|-8.625732421875|-3.493497848510742|6.796231746673584|-3.27502965927124|-0.8060435652732849|-1.30337929725647|XArbitraryZVertical|-0.512038605156749|0.06902004147425111|-0.1061552393425548|0.8495785942309515|0.008564738556742668|0.8846877813339233|-0.4661054015159607|0|0|0|-1|-1|3
2021-04-22 22:16:08.583 +0100|141525.165205|-2.395950317382812|1.741714477539062|-1.306427001953125|141525.145245|0.1594811527239614|0.3143553353210109|-1.247778026634935|-8.662616729736328|-3.599477767944336|5.872231006622314|-2.762839555740356|-0.1330040693283081|-1.114902257919312|XArbitraryZVertical|-0.5852806069307945|0.08067795877579549|-0.02730132992993088|0.8063451932943376|0.09815069288015366|0.9482816457748413|-0.3018753528594971|0|0|0|-1|-1|3
2021-04-22 22:16:08.603 +0100|141525.185165|-1.755294799804688|0.687408447265625|-2.50347900390625|141525.165205|0.7319490297804997|0.7981636613163653|-1.307064004007136|-4.612876892089844|-2.87791895866394|5.134308338165283|-2.70008373260498|0.9193727374076843|-1.009745717048645|XArbitraryZVertical|-0.6335178894003054|0.08759430317689418|0.04118845973477489|0.767649585656086|0.18667072057724|0.9654237627983093|-0.1819646507501602|0|0|0|-1|-1|3
2021-04-22 22:16:08.623 +0100|141525.205124|-1.377853393554688|0.5245208740234375|-2.775711059570312|141525.185165|1.103417103439136|1.101319889274147|-1.259164438734353|-1.577280879020691|-2.725223064422607|4.78900146484375|-2.14482307434082|-0.03929746150970459|-2.070372581481934|XArbitraryZVertical|-0.6489970507734356|0.0971803426876698|0.09864533079674999|0.7480829484863186|0.273438960313797|0.951834499835968|-0.1387176215648651|0|0|0|-1|-1|3
2021-04-22 22:16:08.643 +0100|141525.225084|-1.203842163085938|0.179046630859375|-2.213150024414062|141525.205124|1.249474070710018|1.180531284863031|-1.181418551738619|0.1527587920427322|-3.176906585693359|4.299221515655518|-1.80103611946106|-0.4055222868919373|-2.637853622436523|XArbitraryZVertical|-0.6456844929177372|0.1043205347101556|0.1521399839548495|0.7409873575726464|0.3510692417621613|0.9251454472541809|-0.1444175243377686|0|0|0|-1|-1|3
2021-04-22 22:16:08.663 +0100|141525.245044|-1.05767822265625|-0.3061676025390625|-1.516952514648438|141525.225084|1.3053256815794|1.16319938038741|-1.104467529438386|0.3697872459888458|-3.551016807556152|3.717782258987427|-1.624187231063843|-0.5651910305023193|-2.250741720199585|XArbitraryZVertical|-0.632284448253447|0.1053690698802575|0.2030657815879675|0.7401879180201248|0.4127764999866486|0.8932248950004578|-0.1782274693250656|0|0|0|-1|-1|3
2021-04-22 22:16:08.683 +0100|141525.265004|-0.980072021484375|-0.158172607421875|-1.669189453125|141525.245044|1.363725495679758|1.1470684808867|-1.040018463955949|-0.2156645506620407|-3.179171562194824|3.377264976501465|-1.612758636474609|-1.124284386634827|-1.365612745285034|XArbitraryZVertical|-0.6208215367375896|0.1025412678523456|0.2500884961595279|0.7358816526157648|0.4614371359348297|0.8624135851860046|-0.2081318199634552|0|0|0|-1|-1|3
2021-04-22 22:16:08.703 +0100|141525.284964|-0.89849853515625|-0.04754638671875|-1.881744384765625|141525.265004|1.412638341109177|1.130617668225157|-0.9839912319065421|0.3691308796405792|-2.517479181289673|2.78143048286438|-1.430228233337402|-1.046397566795349|-1.385006427764893|XArbitraryZVertical|-0.6098980559823308|0.100287177143553|0.2905518160387752|0.7304427272931396|0.5009220242500305|0.8327139616012573|-0.2359336912631989|0|0|0|-1|-1|3
2021-04-22 22:16:08.723 +0100|141525.304924|-0.60382080078125|-0.15338134765625|-1.804946899414062|141525.284964|1.419894902150097|1.094280150896234|-0.9311400151005711|1.598058462142944|-1.758876323699951|2.139750003814697|-1.491512060165405|-0.8493891954421997|-1.608753085136414|XArbitraryZVertical|-0.5937680791195877|0.1026646326436106|0.3202689195930551|0.7309769353370337|0.5304218530654907|0.8023009300231934|-0.2737988829612732|0|0|0|-1|-1|3
2021-04-22 22:16:08.743 +0100|141525.324884|-0.411834716796875|-0.1931610107421875|-1.592697143554688|141525.304924|1.389018823812954|1.040164936323721|-0.878555978186081|2.525654315948486|-1.287318825721741|1.525803208351135|-1.241870284080505|-0.9119073152542114|-1.510529518127441|XArbitraryZVertical|-0.5714261903732458|0.1093915674365287|0.3402647034558174|0.7387324979392019|0.5504945516586304|0.7698180079460144|-0.323011189699173|0|0|0|-1|-1|3
2021-04-22 22:16:08.763 +0100|141525.344843|-0.388946533203125|-0.1531982421875|-1.373184204101562|141525.324884|1.338355233796233|0.9796016249831984|-0.8303681346278967|2.682044506072998|-0.974575936794281|0.7541260123252869|-0.9859647750854492|-0.9213303923606873|-1.277051687240601|XArbitraryZVertical|-0.5462160205043619|0.1168400442865488|0.3520643103190102|0.7510308693426614|0.5601072907447815|0.7381797432899475|-0.3759929239749908|0|0|0|-1|-1|3
2021-04-22 22:16:08.783 +0100|141525.364803|-0.36773681640625|-0.016571044921875|-1.15850830078125|141525.344843|1.285337832963635|0.9248574637836309|-0.797430658871254|2.231618881225586|-0.6608635783195496|-0.1675039976835251|-0.9631339311599731|-0.8877279162406921|-0.9921985268592834|XArbitraryZVertical|-0.5245444510366251|0.1208646906559522|0.3556662656080621|0.7640330887155542|0.5578147768974304|0.7155636548995972|-0.4204896986484528|0|0|0|-1|-1|3
2021-04-22 22:16:08.803 +0100|141525.384763|-0.2415618896484375|0.1581268310546875|-1.010879516601562|141525.364803|1.230045346597456|0.874946264275017|-0.7810774574736188|1.781476259231567|-0.4173837006092072|-0.9931018948554993|-0.9056158661842346|-0.7738074660301208|-0.7738882303237915|XArbitraryZVertical|-0.5076802175380388|0.121005930615422|0.351561641280382|0.7771891141471404|0.5450507402420044|0.7040449976921082|-0.4552367329597473|0|0|0|-1|-1|3
2021-04-22 22:16:08.823 +0100|141525.404723|-0.024566650390625|0.160003662109375|-1.08245849609375|141525.384763|1.169019569951277|0.8264182111804905|-0.7816873852991802|1.506124377250671|-0.1868788450956345|-1.872018814086914|-0.8259041309356689|-0.5587405562400818|-0.5385127067565918|XArbitraryZVertical|-0.4958433178109231|0.1171091453882852|0.3396596913180652|0.7906051031191973|0.5220101475715637|0.7044780254364014|-0.4808497130870819|0|0|0|-1|-1|3
2021-04-22 22:16:08.843 +0100|141525.424683|-0.048004150390625|0.1535186767578125|-1.057815551757812|141525.404723|1.094714048795439|0.7704301267514553|-0.793157050031151|1.424591064453125|-0.1336140781641006|-2.638682126998901|-0.5486679077148438|-0.5479592084884644|-0.5703760385513306|XArbitraryZVertical|-0.4860408339189164|0.1096656022077914|0.3209245738227476|0.8054473227713244|0.488624632358551|0.7125717997550964|-0.503475546836853|0|0|0|-1|-1|3
2021-04-22 22:16:08.863 +0100|141525.444643|-0.0051727294921875|0.65081787109375|-1.03863525390625|141525.424683|1.001662814778449|0.7032758675079968|-0.8142884873070092|1.359761834144592|0.166815310716629|-3.542119026184082|-0.4773162603378296|-0.6147335767745972|-0.5480217933654785|XArbitraryZVertical|-0.4779635118217188|0.0989344004947425|0.2942844176834905|0.8216810444908124|0.4438994824886322|0.7272374033927917|-0.5235257148742676|0|0|0|-1|-1|3
2021-04-22 22:16:08.883 +0100|141525.464603|0.1276702880859375|0.94549560546875|-1.014114379882812|141525.444643|0.8833000643520853|0.6231917020234936|-0.8377063885059697|1.862623810768127|0.5490326285362244|-4.214281558990479|-0.4211562871932983|-0.2326419949531555|-0.5107739567756653|XArbitraryZVertical|-0.4696955632441777|0.08773143452766473|0.2589542907295887|0.8394236466799069|0.3905470371246338|0.7431102395057678|-0.5433785319328308|0|0|0|-1|-1|3
2021-04-22 22:16:08.903 +0100|141525.484562|0.111083984375|1.040206909179688|-0.868194580078125|141525.464603|0.7311344139946679|0.5234964768739336|-0.8475225287814746|2.74442982673645|0.8074180483818054|-4.79331636428833|-0.2336642742156982|0.1544715762138367|-0.4271285533905029|XArbitraryZVertical|-0.455263275818339|0.07830860097310152|0.2153876087320497|0.8603553791402576|0.3308625817298889|0.7496430277824402|-0.5732062458992004|0|0|0|-1|-1|3
2021-04-22 22:16:08.923 +0100|141525.504522|-0.07012939453125|1.190460205078125|-0.70001220703125|141525.484562|0.5594951811856368|0.41017793161323|-0.8411600569526926|2.757600784301758|0.7042911648750305|-5.071416854858398|-0.1240367889404297|0.3008943796157837|-0.3432085514068604|XArbitraryZVertical|-0.4355249404984835|0.06830758290747467|0.1668506285639327|0.8819371389526759|0.2658212184906006|0.7454169392585754|-0.6113042235374451|0|0|0|-1|-1|3
2021-04-22 22:16:08.943 +0100|141525.524482|-0.096649169921875|1.9385986328125|-0.7130889892578125|141525.504522|0.3939593494376494|0.3005907869285653|-0.8355746290830297|1.557876348495483|0.6705918908119202|-5.041165351867676|-0.2293460220098495|0.3330104947090149|-0.07929354906082153|XArbitraryZVertical|-0.4201904711922253|0.05569398679442822|0.1172821599286549|0.8980997207363983|0.1985992044210434|0.7416820526123047|-0.6406763195991516|0|0|0|-1|-1|3
2021-04-22 22:16:08.963 +0100|141525.544442|0.063812255859375|1.94085693359375|-0.7721405029296875|141525.524482|0.2439614986135373|0.2042635010429904|-0.8369129377936481|1.028087854385376|0.8515223264694214|-4.66712760925293|-0.2528321743011475|1.057852029800415|-0.02434033155441284|XArbitraryZVertical|-0.412564672104374|0.04327873199576075|0.06947902843988561|0.9072432213592364|0.1358578503131866|0.7425791025161743|-0.6558346748352051|0|0|0|-1|-1|3
2021-04-22 22:16:08.983 +0100|141525.564402|0.0355682373046875|1.57073974609375|-0.69268798828125|141525.544442|0.1119307790899673|0.1254657844372409|-0.8294441574851472|1.130864262580872|1.019383072853088|-3.959977149963379|-0.05767874419689178|1.277520298957825|-0.0954938530921936|XArbitraryZVertical|-0.404722792311863|0.0347930957852642|0.02587248744335743|0.9134109993384577|0.0845031663775444|0.7375561594963074|-0.6699777841567993|0|0|0|-1|-1|3
2021-04-22 22:16:09.003 +0100|141525.5843620417|0.1864166259765625|1.667343139648438|-0.6132659912109375|141525.564402|0.004333759942013149|0.06721892698036816|-0.8152493934896239|1.074318170547485|1.126348614692688|-3.232887983322144|0.01955575868487358|0.8918245434761047|-0.03252041339874268|XArbitraryZVertical|-0.3962717652970701|0.02999126019291121|-0.01133303695108517|0.9175733759551477|0.04605643823742867|0.7278966307640076|-0.6841384172439575|0|0|0|-1|-1|3
2021-04-22 22:16:09.023 +0100|141525.6043220417|0.4603424072265625|1.441543579101562|-0.5433807373046875|141525.5843620417|-0.07879897159242442|0.03610463748411576|-0.7906808828724702|1.704511404037476|1.677337646484375|-2.278749465942383|0.07693569362163544|0.9673757553100586|0.0896683931350708|XArbitraryZVertical|-0.3841045772619322|0.031813247966208|-0.04329166886867699|0.9217253433879613|0.02538909763097763|0.7108323574066162|-0.7029032111167908|0|0|0|-1|-1|3
2021-04-22 22:16:09.042 +0100|141525.6242810417|0.2205352783203125|1.189651489257812|-0.5037994384765625|141525.6043220417|-0.1378424819738384|0.0297260871947533|-0.7582569626099248|1.534167885780334|1.521616101264954|-1.733186960220337|0.4047050774097443|0.8338128924369812|0.1841049194335938|XArbitraryZVertical|-0.3682406404066114|0.03925979251771643|-0.06945694031711264|0.9263008722555691|0.02157902345061302|0.6876569986343384|-0.7257149815559387|0|0|0|-1|-1|3
2021-04-22 22:16:09.063 +0100|141525.6442410417|0.281341552734375|1.120010375976562|-0.5451507568359375|141525.6242810417|-0.1784891957006486|0.03021065543372899|-0.7373625990725519|0.5956512689590454|1.437587857246399|-1.223158240318298|0.2370388060808182|0.5840256810188293|0.2447595596313477|XArbitraryZVertical|-0.3576546853310383|0.04614981128218573|-0.08854957861383446|0.9285001226708138|0.02235986664891243|0.6723379492759705|-0.7399066686630249|0|0|0|-1|-1|3
2021-04-22 22:16:09.082 +0100|141525.6642010417|0.2286224365234375|0.9371490478515625|-0.4833831787109375|141525.6442410417|-0.2066004288706022|0.04024261887598363|-0.7326090822754597|0.1285835355520248|1.339127659797668|-0.9155409336090088|0.230480894446373|0.453671395778656|0.1999839544296265|XArbitraryZVertical|-0.3542490834627298|0.05561053230048327|-0.1034239591929572|0.9277492761003062|0.02990957722067833|0.668811559677124|-0.7428300976753235|0|0|0|-1|-1|3
2021-04-22 22:16:09.102 +0100|141525.6841610417|0.1994476318359375|0.824676513671875|-0.4483795166015625|141525.6642010417|-0.2312792358216733|0.04876298672220439|-0.7317428651138249|0.002508551813662052|1.224866390228271|-0.9498446583747864|0.2125889807939529|0.3263401389122009|0.2426236867904663|XArbitraryZVertical|-0.3526413734605148|0.06388060943924651|-0.1163768409778288|0.9262936258981995|0.03626582399010658|0.6681673526763916|-0.7431266307830811|0|0|0|-1|-1|3
2021-04-22 22:16:09.123 +0100|141525.7041210417|0.2161712646484375|0.6680755615234375|-0.4389190673828125|141525.6841610417|-0.2587571463277087|0.0549059547872255|-0.7326128712237353|0.08823597431182861|1.22906231880188|-1.113856911659241|0.1613952070474625|0.1562594771385193|0.2834321260452271|XArbitraryZVertical|-0.3517354971927991|0.07160708958575324|-0.1301624634104853|0.9242361035257184|0.04079819843173027|0.6688144207000732|-0.7423091530799866|0|0|0|-1|-1|3
2021-04-22 22:16:09.142 +0100|141525.7240810417|0.105377197265625|0.6839447021484375|-0.3700408935546875|141525.7041210417|-0.2894677162944061|0.05823656524923308|-0.730704890910553|0.1716900169849396|1.11335015296936|-1.078321576118469|0.1706896871328354|0.06922394037246704|0.2956730723381042|XArbitraryZVertical|-0.3494710342636859|0.07841633202245196|-0.144945632757871|0.9223404274122646|0.04334450513124466|0.667394757270813|-0.7434417605400085|0|0|0|-1|-1|3
2021-04-22 22:16:09.162 +0100|141525.7440410417|0.02105712890625|0.7056884765625|-0.3407440185546875|141525.7240810417|-0.3173109170770236|0.05977677818999764|-0.7297489386450868|0.08414656668901443|0.9529247283935547|-0.9894174337387085|0.1008877903223038|-0.02076208591461182|0.3650590777397156|XArbitraryZVertical|-0.3477824466284045|0.08391695156311547|-0.1580536150111199|0.9203393969262442|0.04452760890126228|0.6666825413703918|-0.7440106272697449|0|0|0|-1|-1|3
2021-04-22 22:16:09.182 +0100|141525.7640010417|-0.005340576171875|0.72918701171875|-0.385223388671875|141525.7440410417|-0.3422806937787756|0.06206367638607736|-0.7292871024218919|0.06304103881120682|0.942251980304718|-0.8850500583648682|-0.01563980430364609|0.04990994930267334|0.4054388999938965|XArbitraryZVertical|-0.3463006845549014|0.0892680792593557|-0.1699350838033473|0.9182752213158557|0.04624805971980095|0.6663382053375244|-0.7442141175270081|0|0|0|-1|-1|3
2021-04-22 22:16:09.202 +0100|141525.7839600417|-0.028961181640625|0.7516021728515625|-0.5113372802734375|141525.7640010417|-0.3657804355762715|0.06517143385816546|-0.729705024647733|0.02294125594198704|0.9245326519012451|-0.8891436457633972|-0.05055756866931915|0.0538402795791626|0.3841853141784668|XArbitraryZVertical|-0.3451390325530374|0.09478750974422298|-0.1812416701034098|0.9159944908195816|0.04854252561926842|0.6666498184204102|-0.7437887787818909|0|0|0|-1|-1|3
2021-04-22 22:16:09.222 +0100|141525.8039200417|-0.0709686279296875|0.8304290771484375|-0.613677978515625|141525.7839600417|-0.3900899467796445|0.06640084021575308|-0.7309171469827109|-0.02001340128481388|0.8114069104194641|-0.9465150833129883|-0.06817246973514557|0.07097315788269043|0.2640250325202942|XArbitraryZVertical|-0.3443996068864326|0.09963975496983285|-0.1925496173533808|0.9134470291559774|0.04940325021743774|0.6675527691841125|-0.7429216504096985|0|0|0|-1|-1|3
2021-04-22 22:16:09.242 +0100|141525.8238800417|-0.0648956298828125|0.800872802734375|-0.602996826171875|141525.8039200417|-0.417398404742967|0.06304188504755318|-0.7328720858850869|-0.02724826149642467|0.6734721064567566|-1.081416845321655|-0.1131408512592316|0.1517027020454407|0.1440322399139404|XArbitraryZVertical|-0.3442456184332315|0.1029813461689994|-0.2043830303006802|0.9105588767513539|0.04682523384690285|0.6690070629119873|-0.7417795658111572|0|0|0|-1|-1|3
2021-04-22 22:16:09.262 +0100|141525.8438400417|-0.037841796875|0.843963623046875|-0.5614776611328125|141525.8238800417|-0.4469799441291026|0.05514962049198768|-0.7351242285411862|-0.071136474609375|0.51071697473526|-1.127400755882263|-0.1134428381919861|0.1339324116706848|0.1256604790687561|XArbitraryZVertical|-0.3445687933709025|0.1047018753911053|-0.216412829175712|0.9074554354600747|0.04088635742664337|0.6706793308258057|-0.7406197190284729|0|0|0|-1|-1|3
2021-04-22 22:16:09.282 +0100|141525.8638000417|-0.0355987548828125|0.8391265869140625|-0.5567779541015625|141525.8438400417|-0.4774540192855452|0.04329359523100594|-0.7377587966815123|-0.07666837424039841|0.3666896820068359|-1.130742430686951|-0.07086086273193359|0.1590343713760376|0.1684842109680176|XArbitraryZVertical|-0.3454884615163587|0.1048591570824808|-0.2280909029488382|0.9042216908973535|0.03202629834413528|0.6726311445236206|-0.7392845749855042|0|0|0|-1|-1|3
2021-04-22 22:16:09.302 +0100|141525.8837600417|0.0383453369140625|0.8531646728515625|-0.6364288330078125|141525.8638000417|-0.5077407119988591|0.02927013179427839|-0.7404959975644245|-0.07429204136133194|0.3049170076847076|-1.133844971656799|-0.05418068170547485|0.1549667119979858|0.1929574608802795|XArbitraryZVertical|-0.3467846341796565|0.1040743952063018|-0.2392341151633412|0.9009306555048724|0.0216021966189146|0.6746541261672974|-0.7378178834915161|0|0|0|-1|-1|3
2021-04-22 22:16:09.322 +0100|141525.9037200417|0.0201873779296875|0.77978515625|-0.6385650634765625|141525.8837600417|-0.5369762014347217|0.01518867403834036|-0.7411004069586683|0.02566948160529137|0.2096062451601028|-1.023659706115723|0.007425351999700069|0.1932780146598816|0.1036693453788757|XArbitraryZVertical|-0.3472664806268065|0.1028856637562319|-0.2499138197849277|0.8979775698079313|0.01120465155690908|0.6751001477241516|-0.7376410365104675|0|0|0|-1|-1|3
2021-04-22 22:16:09.342 +0100|141525.9236790417|0.0535125732421875|0.645477294921875|-0.6671295166015625|141525.9037200417|-0.5648652788823328|0.0004243146040049467|-0.7416625374836587|-0.07910426706075668|0.2141237556934357|-1.020726084709167|0.01290024816989899|0.1342391967773438|0.1014978885650635|XArbitraryZVertical|-0.3479773781144609|0.1011854085942228|-0.2598227903676341|0.8950785304067668|0.0003128669050056487|0.6755146980285645|-0.7373465299606323|0|0|0|-1|-1|3
2021-04-22 22:16:09.362 +0100|141525.9436390417|-0.012786865234375|0.548431396484375|-0.6892547607421875|141525.9236790417|-0.5914204778714016|-0.0137898607503199|-0.7449561937145521|-0.2480293363332748|0.1534869372844696|-0.9351933002471924|0.06811925768852234|-0.01775246858596802|0.07058888673782349|XArbitraryZVertical|-0.3499919566309497|0.09990884330018444|-0.2690294787951489|0.8917101499460391|-0.01013684831559658|0.6779395937919617|-0.7350476980209351|0|0|0|-1|-1|3
2021-04-22 22:16:09.382 +0100|141525.9635990417|-0.0467987060546875|0.497039794921875|-0.622222900390625|141525.9436390417|-0.6161248375431013|-0.02798496630725284|-0.7499914645834995|-0.2544524669647217|0.1344871520996094|-0.8895875215530396|0.02570654451847076|-0.1087713837623596|0.04947805404663086|XArbitraryZVertical|-0.3529392290374078|0.09863965151976531|-0.277231117195855|0.8881706843099921|-0.0204737801104784|0.6816325187683105|-0.7314082384109497|0|0|0|-1|-1|3
2021-04-22 22:16:09.402 +0100|141525.9835590417|-0.0972137451171875|0.4831695556640625|-0.5330047607421875|141525.9635990417|-0.6402239317254325|-0.04140515910915975|-0.7533044268990314|-0.1113052666187286|0.1683983504772186|-0.8922104239463806|0.0004990119487047195|-0.1667032241821289|0.07660132646560669|XArbitraryZVertical|-0.3551073808123342|0.09744272303927903|-0.2853246577895595|0.8848692779503228|-0.0301936399191618|0.6840528249740601|-0.7288073301315308|0|0|0|-1|-1|3
2021-04-22 22:16:09.422 +0100|141526.0035190417|-0.0837249755859375|0.4378509521484375|-0.5621795654296875|141525.9835590417|-0.666500142293297|-0.05489826989451384|-0.7523854675154811|0.1836853474378586|0.2965308129787445|-1.040498614311218|-0.05404302105307579|-0.2123735547065735|0.1841309666633606|XArbitraryZVertical|-0.3553896069399409|0.0960092445368106|-0.2945978871505434|0.8818687794527755|-0.04005894437432289|0.6833822131156921|-0.7289609313011169|0|0|0|-1|-1|3
2021-04-22 22:16:09.442 +0100|141526.0234790417|-0.1023712158203125|0.4935455322265625|-0.700714111328125|141526.0035190417|-0.6969604399391867|-0.06878628255333687|-0.7438011999657452|0.5367329120635986|0.3734335899353027|-1.261354207992554|-0.03117768466472626|-0.2131614685058594|0.1986225843429565|XArbitraryZVertical|-0.3522817456519553|0.0939020666704499|-0.3061936897430521|0.8793893910356573|-0.05057993158698082|0.6770901083946228|-0.7341599464416504|0|0|0|-1|-1|3
2021-04-22 22:16:09.462 +0100|141526.0434390417|-0.1736907958984375|0.575775146484375|-0.7598114013671875|141526.0234790417|-0.7330040257134665|-0.08577202618951046|-0.7299920742535094|0.5588145852088928|0.3272491991519928|-1.530017852783203|-0.02799119055271149|-0.1890802383422852|0.07193899154663086|XArbitraryZVertical|-0.3472846576817062|0.09040562174426248|-0.3201508214388039|0.8767690240858058|-0.06383723765611649|0.666863739490509|-0.742440402507782|0|0|0|-1|-1|3
2021-04-22 22:16:09.482 +0100|141526.0633980417|-0.22576904296875|0.77056884765625|-0.7271728515625|141526.0434390417|-0.7764121509577965|-0.1087641946380492|-0.7190222240347639|0.2144408822059631|0.258363664150238|-1.787718892097473|-0.07646477222442627|-0.1066012382507324|-0.007824540138244629|XArbitraryZVertical|-0.3444160304934465|0.08588145429298422|-0.3361048624322411|0.8723736082971733|-0.08167837560176849|0.6586492657661438|-0.7480039596557617|0|0|0|-1|-1|3
2021-04-22 22:16:09.502 +0100|141526.0833580417|-0.2733001708984375|1.073822021484375|-0.7259521484375|141526.0633980417|-0.8251471907781747|-0.1358398485945247|-0.7128077045618817|0.04866647347807884|0.2320573776960373|-1.912839770317078|-0.1110357791185379|0.05827432870864868|0.02592712640762329|XArbitraryZVertical|-0.3443959669576753|0.0813118131404524|-0.3532114869272721|0.8660379032254696|-0.1024509966373444|0.6539604663848877|-0.7495596408843994|0|0|0|-1|-1|3
2021-04-22 22:16:09.522 +0100|141526.1033180417|-0.1989288330078125|1.008316040039062|-0.80633544921875|141526.0833580417|-0.8746670103158419|-0.16264691317062|-0.7022973741907872|0.4812470972537994|0.3415265679359436|-1.962358474731445|-0.1443034112453461|0.3558582067489624|0.03423064947128296|XArbitraryZVertical|-0.3428782942483818|0.0761033653678785|-0.3710541103169726|0.8596288991715546|-0.1236114948987961|0.6459730863571167|-0.7532855272293091|0|0|0|-1|-1|3
2021-04-22 22:16:09.542 +0100|141526.1232780417|-0.14678955078125|0.87664794921875|-0.889678955078125|141526.1033180417|-0.9200912537784028|-0.1837442276065839|-0.6818686864786533|0.8353540301322937|0.424997091293335|-1.819384574890137|-0.0803883969783783|0.4039501547813416|-0.01976913213729858|XArbitraryZVertical|-0.3367291814503932|0.0703563890266206|-0.3891829286443188|0.8545174959152628|-0.1418569684028625|0.6302449703216553|-0.76332688331604|0|0|0|-1|-1|3
2021-04-22 22:16:09.562 +0100|141526.1432380417|-0.1121978759765625|0.925445556640625|-0.94305419921875|141526.1232780417|-0.9579712897128135|-0.1994970527196557|-0.6628093383983922|0.3225491940975189|0.3452355563640594|-1.452686786651611|0.006922751665115356|0.2876967787742615|-0.09485983848571777|XArbitraryZVertical|-0.3307183127274038|0.0656440806873245|-0.4048795994089099|0.8499346199928633|-0.1562158465385437|0.6153337955474854|-0.7726324796676636|0|0|0|-1|-1|3
2021-04-22 22:16:09.581 +0100|141526.1631980417|-0.1005096435546875|1.13232421875|-0.88128662109375|141526.1432380417|-0.9898564189226562|-0.2132896531091015|-0.6606468044996494|-0.5884442925453186|0.2353401482105255|-1.059962034225464|0.04108458757400513|0.2801254987716675|-0.1689550876617432|XArbitraryZVertical|-0.3316301478035664|0.06457436440269824|-0.4163562293123498|0.8440966844832444|-0.167138546705246|0.6136276721954346|-0.7717031836509705|0|0|0|-1|-1|3
2021-04-22 22:16:09.601 +0100|141526.1831580417|0.006561279296875|1.159759521484375|-0.74591064453125|141526.1631980417|-1.016662395887253|-0.2256000219103777|-0.670064351546784|-0.6071611046791077|0.2439500987529755|-0.8455473184585571|0.07923939824104309|0.4443475604057312|-0.1407725811004639|XArbitraryZVertical|-0.3371396691298664|0.0661548744759928|-0.4244067663939027|0.8377585388129501|-0.1753250956535339|0.6210364103317261|-0.7639207243919373|0|0|0|-1|-1|3
2021-04-22 22:16:09.621 +0100|141526.2031180417|0.065185546875|0.9120635986328125|-0.7071990966796875|141526.1831580417|-1.036274476965985|-0.232017349951536|-0.6705777665795625|0.2552152872085571|0.3368113338947296|-0.6815866827964783|0.1724436283111572|0.5532897114753723|-0.0276913046836853|XArbitraryZVertical|-0.3380654294008263|0.06691042525804693|-0.4314535450207689|0.833716227615305|-0.1801504343748093|0.62143874168396|-0.7624695301055908|0|0|0|-1|-1|3
2021-04-22 22:16:09.641 +0100|141526.2230770417|0.11383056640625|0.707122802734375|-0.75946044921875|141526.2031180417|-1.047643251074567|-0.230539366101331|-0.6560435407496565|0.8237708210945129|0.4877115190029144|-0.4883880913257599|0.2133241891860962|0.3887165784835815|0.06983321905136108|XArbitraryZVertical|-0.3315830423475681|0.06579557526031446|-0.438295160018418|0.8328392203708822|-0.1810682117938995|0.6099864840507507|-0.7714472413063049|0|0|0|-1|-1|3
2021-04-22 22:16:09.661 +0100|141526.2430370417|0.0644378662109375|0.689849853515625|-0.822113037109375|141526.2230770417|-1.051549052872605|-0.2232329343942746|-0.6405598351513685|0.49961057305336|0.4604319632053375|-0.1839722096920013|0.2967277765274048|0.1544004082679749|0.0325998067855835|XArbitraryZVertical|-0.323674483772343|0.06558419591796016|-0.4430655743452978|0.8334425747761285|-0.1774967163801193|0.5976443886756897|-0.7818670868873596|0|0|0|-1|-1|3
2021-04-22 22:16:09.681 +0100|141526.2629970417|-0.012725830078125|0.654296875|-0.7992095947265625|141526.2430370417|-1.053154970664731|-0.2154784116630881|-0.6368815657155347|-0.147204577922821|0.3955298364162445|-0.04772035032510757|0.2482359260320663|0.09523493051528931|-0.02425366640090942|XArbitraryZVertical|-0.3204291785216464|0.06814750322390076|-0.4454369199833613|0.8332269135683337|-0.1718973070383072|0.594691276550293|-0.7853621244430542|0|0|0|-1|-1|3
2021-04-22 22:16:09.701 +0100|141526.2829570417|-0.062469482421875|0.5594635009765625|-0.6995391845703125|141526.2629970417|-1.056964147762658|-0.2103938199701411|-0.643815064838731|-0.5648347735404968|0.3442696332931519|-0.09370293468236923|0.1654792129993439|0.08164894580841064|-0.03360557556152344|XArbitraryZVertical|-0.3219294529656438|0.07262250168275228|-0.4469904032439446|0.8314368376467356|-0.1670367121696472|0.6002511382102966|-0.782174825668335|0|0|0|-1|-1|3
2021-04-22 22:16:09.721 +0100|141526.3029170417|-0.243927001953125|0.344818115234375|-0.7804107666015625|141526.2829570417|-1.064070765925447|-0.208399720105217|-0.6572041452308791|-0.8225209712982178|0.2821605503559113|-0.1864848881959915|0.119547501206398|-0.01999384164810181|0.05300086736679077|XArbitraryZVertical|-0.326544802031213|0.07798564653012111|-0.4486145160607931|0.8282703712890438|-0.1637990772724152|0.6109057664871216|-0.7745734453201294|0|0|0|-1|-1|3
2021-04-22 22:16:09.741 +0100|141526.3228770417|-0.4658660888671875|0.2901153564453125|-0.97265625|141526.3029170417|-1.07446035495906|-0.2101110202586109|-0.6725656025779512|-0.7535033226013184|0.1981472969055176|-0.3121584057807922|-0.02223247289657593|-0.2280364036560059|0.03225040435791016|XArbitraryZVertical|-0.3325912196220187|0.08289497869594142|-0.4507021313887263|0.824244592834896|-0.1631476730108261|0.6229948997497559|-0.7650229930877686|0|0|0|-1|-1|3
2021-04-22 22:16:09.761 +0100|141526.3428370417|-0.54559326171875|0.18890380859375|-1.05706787109375|141526.3228770417|-1.087991051303671|-0.2150823356248278|-0.68070032988316|-0.201745331287384|0.1804455369710922|-0.5373334884643555|-0.2516351938247681|-0.3125496506690979|-0.156300961971283|XArbitraryZVertical|-0.3363448938109137|0.0852000185240684|-0.4543943571159624|0.8204504097644405|-0.1658616662025452|0.6293374300003052|-0.7592261433601379|0|0|0|-1|-1|3
2021-04-22 22:16:09.781 +0100|141526.3627960417|-0.55517578125|-0.035400390625|-0.9912261962890625|141526.3428370417|-1.104924551908795|-0.2211917083620697|-0.6765268003380136|0.2504034042358398|0.291559100151062|-0.8758474588394165|-0.3698229789733887|-0.397267758846283|-0.3021723031997681|XArbitraryZVertical|-0.3353945098655103|0.08445826224082065|-0.4608443255023488|0.8173126476867776|-0.1710717082023621|0.626088559627533|-0.7607546448707581|0|0|0|-1|-1|3
2021-04-22 22:16:09.801 +0100|141526.3827560417|-0.564422607421875|-0.0893096923828125|-0.8496246337890625|141526.3627960417|-1.13179164005945|-0.2288083501525144|-0.6668080254355335|0.1680536568164825|0.6511465907096863|-1.396058678627014|-0.3855500221252441|-0.6045191287994385|-0.2486112117767334|XArbitraryZVertical|-0.332274625171318|0.08326855014254451|-0.4718006763554123|0.8124432795848407|-0.1782328337430954|0.6184808611869812|-0.76531982421875|0|0|0|-1|-1|3
2021-04-22 22:16:09.821 +0100|141526.4027160417|-0.48846435546875|0.124969482421875|-0.69293212890625|141526.3827560417|-1.173825990060948|-0.2367055690478397|-0.6579118549375229|0.04111897572875023|1.198190927505493|-2.052140712738037|-0.3672882318496704|-0.7102513909339905|-0.1166571974754333|XArbitraryZVertical|-0.3289953134941149|0.08460890773513594|-0.4886707799121561|0.8036194963028541|-0.1855540573596954|0.6114658713340759|-0.7692068219184875|0|0|0|-1|-1|3
2021-04-22 22:16:09.841 +0100|141526.4226760417|-0.3366546630859375|0.250640869140625|-0.6177825927734375|141526.4027160417|-1.233342328148681|-0.2417571900117389|-0.6429745045027498|0.3050153851509094|1.894636154174805|-2.910914897918701|-0.3428067862987518|-0.4817045927047729|0.06067228317260742|XArbitraryZVertical|-0.3220602468184935|0.08807003682888452|-0.5136054772914499|0.7903988955817902|-0.1916029006242752|0.5995786190032959|-0.7770417332649231|0|0|0|-1|-1|3
2021-04-22 22:16:09.861 +0100|141526.4426360417|-0.350128173828125|0.4616241455078125|-0.6050262451171875|141526.4226760417|-1.311208250132543|-0.2449889485337678|-0.6190256457052189|0.4357216060161591|2.332069635391235|-3.75044846534729|-0.1668106019496918|-0.3923910856246948|0.1526586413383484|XArbitraryZVertical|-0.3105878708203081|0.0920472409200218|-0.5468165867946371|0.7720455428787274|-0.1975398808717728|0.580241858959198|-0.7901249527931213|0|0|0|-1|-1|3
2021-04-22 22:16:09.881 +0100|141526.4625960417|-0.32501220703125|1.013076782226562|-0.35382080078125|141526.4426360417|-1.404668528161174|-0.2505557004000229|-0.5959719765792224|-0.2657397091388702|2.414477586746216|-4.207125663757324|-0.121615931391716|-0.1655464768409729|0.1921421885490417|XArbitraryZVertical|-0.299516618955964|0.0970008726361799|-0.5846893137232673|0.7476758465134747|-0.2051979154348373|0.5613134503364563|-0.801761269569397|0|0|0|-1|-1|3
2021-04-22 22:16:09.901 +0100|141526.4825560417|-0.113555908203125|1.595382690429688|0.0276336669921875|141526.4625960417|-1.508896458081531|-0.2596557176550464|-0.5864069675911994|-0.808092474937439|2.494506359100342|-4.396883964538574|-0.1422413289546967|0.3031036257743835|0.371602475643158|XArbitraryZVertical|-0.2937060287608801|0.1059727933770651|-0.6228755609780166|0.7173092714586405|-0.2138540744781494|0.5533718466758728|-0.8050130605697632|0|0|0|-1|-1|3
2021-04-22 22:16:09.921 +0100|141526.5025160417|-0.074554443359375|1.81304931640625|0.1774444580078125|141526.4825560417|-1.612191928070914|-0.2662123806222893|-0.5715838038813019|0.09925008565187454|2.47315239906311|-4.279032230377197|0.04727974534034729|0.9327438473701477|0.7466300129890442|XArbitraryZVertical|-0.2853311282764417|0.1134756662588361|-0.6602946062671882|0.6853616691050297|-0.2212614715099335|0.5409647822380066|-0.8114188313484192|0|0|0|-1|-1|3
2021-04-22 22:16:09.941 +0100|141526.5224750417|-0.1498565673828125|2.329620361328125|0.214935302734375|141526.5025160417|-1.701054630415958|-0.266508726720832|-0.5445098749675082|0.2600867748260498|2.204620361328125|-3.641765594482422|0.1757160127162933|1.243536233901978|0.9809294939041138|XArbitraryZVertical|-0.2719765517275705|0.1159188570784|-0.6939608196380787|0.6565136158882898|-0.2252775281667709|0.5179989337921143|-0.8251831531524658|0|0|0|-1|-1|3
2021-04-22 22:16:09.961 +0100|141526.5424350417|-0.0659027099609375|2.75909423828125|0.35797119140625|141526.5224750417|-1.771995536114733|-0.2619643631886761|-0.5277439187743801|-0.1972142308950424|1.871709942817688|-2.6842942237854|0.0757167637348175|1.677932500839233|1.030988097190857|XArbitraryZVertical|-0.2612206647460363|0.1205347090376789|-0.7197854870185054|0.6317785487838895|-0.223743200302124|0.5035855174064636|-0.834470272064209|0|0|0|-1|-1|3
2021-04-22 22:16:09.981 +0100|141526.5623950417|-0.2878265380859375|2.881988525390625|0.620452880859375|141526.5424350417|-1.824048333039046|-0.2548983185638874|-0.5197691963963587|-0.240131214261055|1.415721893310547|-1.87779426574707|0.121266096830368|2.207054853439331|1.159836173057556|XArbitraryZVertical|-0.2531588763341163|0.126355031659383|-0.7379990113248966|0.6126193488206689|-0.218846932053566|0.4966798424720764|-0.8398900032043457|0|0|0|-1|-1|3
2021-04-22 22:16:10.001 +0100|141526.582355|-0.4530029296875|3.45379638671875|1.069610595703125|141526.5623950417|-1.859851263024302|-0.2505915328642614|-0.527174498298577|-1.405253410339355|0.8183391690254211|-0.945468008518219|0.01614296436309814|2.237658977508545|1.339420318603516|XArbitraryZVertical|-0.251269001371034|0.1350726641762626|-0.7483562446374513|0.5988174398302163|-0.2143097221851349|0.5030934810638428|-0.8372385501861572|0|0|0|-1|-1|3
2021-04-22 22:16:10.020 +0100|141526.602315|-0.5770416259765625|3.1387939453125|1.15777587890625|141526.582355|-1.881174316966873|-0.2498036967105506|-0.5588773207511635|-1.752658724784851|0.3300170302391052|-0.02717974595725536|-0.2454938292503357|2.814552307128906|1.785248875617981|XArbitraryZVertical|-0.2580185377181053|0.150529690009245|-0.7502674124997111|0.5898018573970875|-0.209600418806076|0.530234694480896|-0.8215345144271851|0|0|0|-1|-1|3
2021-04-22 22:16:10.041 +0100|141526.622275|-1.141082763671875|3.327911376953125|1.212753295898438|141526.602315|-1.875253284909929|-0.2485898653227711|-0.5859879090243437|-0.8545524477958679|-0.6294420957565308|1.212426424026489|-0.2904942035675049|2.714325904846191|1.952574253082275|XArbitraryZVertical|-0.2652612394157477|0.1608073610955773|-0.744659493279716|0.5909820994929518|-0.2049900591373444|0.5530227422714233|-0.8075549602508545|0|0|0|-1|-1|3
2021-04-22 22:16:10.061 +0100|141526.642235|-1.886245727539062|3.749191284179688|0.916107177734375|141526.622275|-1.837172875760884|-0.2539237698315106|-0.6159673413247931|-1.494292616844177|-2.094587802886963|2.576557874679565|-0.7546050548553467|2.581293344497681|2.000506639480591|XArbitraryZVertical|-0.2784031872734247|0.1657421681904119|-0.7279566500961956|0.6042354025289169|-0.2050363272428513|0.5777483582496643|-0.7900424003601074|0|0|0|-1|-1|3
2021-04-22 22:16:10.081 +0100|141526.662194|-2.789306640625|3.42596435546875|0.683074951171875|141526.642235|-1.771088798617541|-0.2709460713712491|-0.6707957261841818|-2.265256404876709|-3.621613502502441|4.002223968505859|-1.492024183273315|3.078356504440308|1.782307267189026|XArbitraryZVertical|-0.3051407174881963|0.1717967337089914|-0.6962851209922585|0.6265477808243154|-0.2096521556377411|0.6216095089912415|-0.7547500729560852|0|0|0|-1|-1|3
2021-04-22 22:16:10.100 +0100|141526.682154|-3.511199951171875|3.641677856445312|0.31488037109375|141526.662194|-1.665314392407001|-0.2882058934316967|-0.7427474224742111|-2.572932720184326|-4.92125940322876|5.85481595993042|-2.342374086380005|2.939179182052612|1.402917623519897|XArbitraryZVertical|-0.3406521080961235|0.1756137706955586|-0.6470826553705251|0.6590902984648426|-0.2093694806098938|0.6763142347335815|-0.7062318921089172|0|0|0|-1|-1|3
2021-04-22 22:16:10.120 +0100|141526.702114|-4.010971069335938|4.141128540039062|-0.483428955078125|141526.682154|-1.502149814779223|-0.2792745716820333|-0.8411313701733669|-3.378978967666626|-5.701998710632324|7.773617267608643|-3.177157878875732|2.700143337249756|1.093276381492615|XArbitraryZVertical|-0.3822331793388049|0.1830346197638555|-0.575356576193588|0.6995434663631093|-0.183759406208992|0.7453978061676025|-0.6407922506332397|0|0|0|-1|-1|3
2021-04-22 22:16:10.141 +0100|141526.722074|-4.644317626953125|2.903060913085938|-0.7930450439453125|141526.702114|-1.272326471717245|-0.2164200945606667|-0.9216753492687333|-0.1043091043829918|-5.823872566223145|8.206888198852539|-3.778613567352295|3.46124267578125|0.2841872572898865|XArbitraryZVertical|-0.4130850135312774|0.1848462276780737|-0.4903913718817606|0.7447879405697991|-0.1298041641712189|0.7966154813766479|-0.5903852581977844|0|0|0|-1|-1|3
2021-04-22 22:16:10.160 +0100|141526.742034|-4.7864990234375|2.283920288085938|-0.9083099365234375|141526.722074|-0.9829871027743925|-0.09941119825732073|-0.8942717556632337|4.550824642181396|-5.759299755096436|8.769745826721191|-4.244519233703613|2.439713954925537|-0.1116383075714111|XArbitraryZVertical|-0.4018753893414014|0.164311459090139|-0.4060803325163356|0.8041124898928442|-0.06213758885860443|0.7797533273696899|-0.6229958534240723|0|0|0|-1|-1|3
2021-04-22 22:16:10.180 +0100|141526.761994|-5.47332763671875|0.64300537109375|-0.476043701171875|141526.742034|-0.6695463379847121|0.005402394125456017|-0.7936827733769376|7.113897800445557|-6.832780838012695|10.61428356170654|-4.095082759857178|0.9004020690917969|-0.448596179485321|XArbitraryZVertical|-0.3642302670695227|0.1293413185504405|-0.3040067141332422|0.8707394071777185|0.003788272617384791|0.7129405736923218|-0.7012142539024353|0|0|0|-1|-1|3
2021-04-22 22:16:10.200 +0100|141526.781954|-5.557403564453125|-0.531768798828125|-0.2752227783203125|141526.761994|-0.3944271956145951|0.05343819999277592|-0.6207035126246147|9.113727569580078|-6.297218322753906|10.85367393493652|-5.36415958404541|0.5082062482833862|0.2328256964683533|XArbitraryZVertical|-0.2943824743627594|0.08476323687409895|-0.1945111284899169|0.9318367303340743|0.04344965890049934|0.5816075801849365|-0.8123083114624023|0|0|0|-1|-1|3
