loggingTime(txt)|accelerometerTimestamp_sinceReboot(s)|accelerometerAccelerationX(G)|accelerometerAccelerationY(G)|accelerometerAccelerationZ(G)|motionTimestamp_sinceReboot(s)|motionYaw(rad)|motionRoll(rad)|motionPitch(rad)|motionRotationRateX(rad/s)|motionRotationRateY(rad/s)|motionRotationRateZ(rad/s)|motionUserAccelerationX(G)|motionUserAccelerationY(G)|motionUserAccelerationZ(G)|motionAttitudeReferenceFrame(txt)|motionQuaternionX(R)|motionQuaternionY(R)|motionQuaternionZ(R)|motionQuaternionW(R)|motionGravityX(G)|motionGravityY(G)|motionGravityZ(G)|motionMagneticFieldX(µT)|motionMagneticFieldY(µT)|motionMagneticFieldZ(µT)|motionHeading(°)|motionMagneticFieldCalibrationAccuracy(Z)|label
2021-04-22 21:47:38.366 +0100|140282.6539466667|-0.0377655029296875|0.0236053466796875|-0.998260498046875|140282.6339856667|-2.190132543711561|-0.03575255876153428|-0.06776955636442886|0.03794992715120316|0.06227414309978485|-0.08473667502403259|-0.06309245526790619|0.02227763831615448|0.0219387412071228|XArbitraryZVertical|-0.03139466150182494|0.02192960760975746|-0.8880290447930457|0.4581899525456239|-0.03566288948059082|0.06771769374608994|-0.9970669150352478|0|0|0|-1|-1|3
2021-04-22 21:47:38.377 +0100|140282.6739076667|-0.0466156005859375|0.0418243408203125|-1.004379272460938|140282.6739076667|-2.194742429548717|-0.03318315718558665|-0.06874520672641812|-0.07437440007925034|0.07682747393846512|-0.1167775243520737|-0.0152873732149601|-0.03422246873378754|-0.007519423961639404|XArbitraryZVertical|-0.03042381281331667|0.02302188346134384|-0.8891038165394606|0.4561128414377448|-0.03309870138764381|0.06869107484817505|-0.9970887899398804|0|0|0|-1|-1|3
2021-04-22 21:47:38.379 +0100|140282.6938686667|-0.04095458984375|0.05902099609375|-1.019287109375|140282.6938686667|-2.197132012171441|-0.03213322154114485|-0.06880076275267226|0.03771525248885155|0.0652887374162674|-0.1186477690935135|-0.006782390177249908|-0.01554010063409805|-0.01908570528030396|XArbitraryZVertical|-0.0299418565985213|0.02332182711112434|-0.8896629288896609|0.4550380317045045|-0.032051682472229|0.06874649971723557|-0.997119128704071|0|0|0|-1|-1|3
2021-04-22 21:47:38.399 +0100|140282.7138296667|-0.055511474609375|0.0647735595703125|-1.015548706054688||||||||||||||||||||||||3
2021-04-22 21:47:38.418 +0100|140282.7337906667|-0.0504150390625|0.04638671875|-1.000686645507812|140282.7138296667|-2.198919065576146|-0.03212995469559449|-0.06727887720812117|0.07015899568796158|0.07704536616802216|-0.05483416840434074|-0.02068307623267174|-0.001829974353313446|-0.0211641788482666|XArbitraryZVertical|-0.02957463980006962|0.02267163316992457|-0.8900978193168533|0.4542437485344598|-0.03205174952745438|0.06722813099622726|-0.9972226619720459|0|0|0|-1|-1|3
2021-04-22 21:47:38.438 +0100|140282.7537516667|-0.0424041748046875|0.0391845703125|-0.9843597412109375|140282.7337906667|-2.199343740384863|-0.0310964097304183|-0.06663948291687646|0.02347810938954353|0.09347084164619446|0.005778134800493717|-0.02351297624409199|-0.02276793122291565|-0.005769014358520508|XArbitraryZVertical|-0.02896493355582597|0.02262780198387157|-0.890221204613546|0.4540433901666392|-0.03102238848805428|0.06659017503261566|-0.997298002243042|0|0|0|-1|-1|3
2021-04-22 21:47:38.458 +0100|140282.7737126667|-0.0198974609375|0.03509521484375|-0.9875030517578125|140282.7537516667|-2.198753464594494|-0.02943199525951725|-0.06583793355410301|-0.01609215326607227|0.1036278158426285|0.04979601502418518|-0.01487168855965137|-0.01931311935186386|0.007227957248687744|XArbitraryZVertical|-0.02804914576347385|0.02264041110941225|-0.8901254149772464|0.454287797624312|-0.02936398983001709|0.06579037755727768|-0.9974012970924377|0|0|0|-1|-1|3
2021-04-22 21:47:38.479 +0100|140282.7936736667|-0.0333404541015625|0.0599517822265625|-0.99365234375|140282.7737126667|-2.197880320626531|-0.02780693016723559|-0.06647378612335049|-0.09512291848659515|0.06297807395458221|0.04152698814868927|0.004456575959920883|-0.03397040069103241|0.009200692176818848|XArbitraryZVertical|-0.02748020961678603|0.02328065982034086|-0.8899381897977361|0.4546571048699268|-0.02774194069206715|0.06642483919858932|-0.9974057078361511|0|0|0|-1|-1|3
2021-04-22 21:47:38.498 +0100|140282.8136346667|-0.0371246337890625|0.0899658203125|-1.0010986328125|140282.7936736667|-2.19755314804601|-0.02691707404470576|-0.06866570398732244|-0.1229973509907722|0.06123104318976402|0.01176190190017223|-0.006002224981784821|-0.01540537178516388|0.006956100463867188|XArbitraryZVertical|-0.0275856338554095|0.02445421559609125|-0.8898362639036352|0.4547885612354878|-0.02685040049254894|0.0686117559671402|-0.9972820281982422|0|0|0|-1|-1|3
2021-04-22 21:47:38.518 +0100|140282.8335956667|-0.035736083984375|0.0746917724609375|-1.000503540039062|140282.8136346667|-2.197090820807215|-0.02633056731012839|-0.06978312591585166|-0.02591893449425697|0.05062127485871315|0.03392836824059486|-0.009869817644357681|0.01373807340860367|-0.0003993511199951172|XArbitraryZVertical|-0.02758412052056211|0.02507859853966186|-0.8897186008393722|0.454984807448315|-0.02626344747841358|0.06972650438547134|-0.9972203373908997|0|0|0|-1|-1|3
2021-04-22 21:47:38.538 +0100|140282.8535566667|-0.039306640625|0.0650634765625|-0.9950103759765625|140282.8335956667|-2.196237575454011|-0.02602737814597317|-0.06955621596437855|0.001028376631438732|0.02080771699547768|0.05557090044021606|-0.004724366590380669|0.01019550114870071|-0.005502521991729736|XArbitraryZVertical|-0.02740839795369813|0.02503488749087051|-0.8895328058195119|0.4553610880854897|-0.02596151083707809|0.0695001408457756|-0.9972440600395203|0|0|0|-1|-1|3
2021-04-22 21:47:38.558 +0100|140282.8735176667|-0.026947021484375|0.032745361328125|-0.9967498779296875|140282.8535566667|-2.195180746811083|-0.02552904331628403|-0.06839215129324641|0.04128395020961761|0.0268215611577034|0.04811325296759605|-0.01802140846848488|-0.0004535019397735596|0.003928840160369873|XArbitraryZVertical|-0.02693519071272641|0.02461614226614056|-0.8893200675014185|0.4558272520510547|-0.02546659484505653|0.06833884865045547|-0.9973371028900146|0|0|0|-1|-1|3
2021-04-22 21:47:38.578 +0100|140282.8934786667|-0.0357513427734375|0.0499725341796875|-0.9940338134765625|140282.8735176667|-2.194986686199015|-0.02503457045552277|-0.06744184255318676|0.01796636357903481|0.02076025865972042|-0.02291431836783886|-0.00627540610730648|-0.02456030994653702|0.008552908897399902|XArbitraryZVertical|-0.02650144914660814|0.0243035093346641|-0.8892995616430115|0.4559095657959432|-0.02497505024075508|0.06739073246717453|-0.9974140524864197|0|0|0|-1|-1|3
2021-04-22 21:47:38.598 +0100|140282.9134396667|-0.0259552001953125|0.06085205078125|-1.00091552734375|140282.8934786667|-2.195824391752219|-0.02481486557518133|-0.06727527695587771|0.0184884425252676|0.03504721075296402|-0.05879703909158707|-0.009790161624550819|-0.02376851439476013|0.003412067890167236|XArbitraryZVertical|-0.026355678041924|0.02429053697041152|-0.8894963237728899|0.4555347458223276|-0.02475618943572044|0.06722453981637955|-0.997430682182312|0|0|0|-1|-1|3
2021-04-22 21:47:38.618 +0100|140282.9334006667|-0.0298919677734375|0.058502197265625|-0.995849609375|140282.9134396667|-2.196865179207448|-0.02450461972382408|-0.06741766671613172|0.0005624399054795504|0.02037585899233818|-0.04527750238776207|-0.0008377600461244583|-0.01089483499526978|-0.005577266216278076|XArbitraryZVertical|-0.02623736164652381|0.02443821165005516|-0.8897348110204581|0.4550677182934196|-0.0244465060532093|0.06736660748720169|-0.9974287748336792|0|0|0|-1|-1|3
2021-04-22 21:47:38.638 +0100|140282.9533616667|-0.020111083984375|0.068115234375|-0.9875030517578125|140282.9334006667|-2.197606410429518|-0.02463924189032762|-0.06783135730780299|-0.02314159087836742|0.009721990674734116|-0.02108188718557358|-0.004457835108041763|-0.009720668196678162|-0.002556800842285156|XArbitraryZVertical|-0.02638211075861418|0.02460147904587473|-0.8898942003204673|0.454738554670258|-0.024580093100667|0.06777935475111008|-0.9973974823951721|0|0|0|-1|-1|3
2021-04-22 21:47:38.658 +0100|140282.9733226667|-0.0218353271484375|0.0448760986328125|-0.9711151123046875|140282.9533616667|-2.198242759515319|-0.02459457565052131|-0.06762314171924881|0.01931097730994225|0.006918639875948429|-0.0415683388710022|-0.0007788930088281631|0.001641236245632172|0.009482383728027344|XArbitraryZVertical|-0.02630716934303459|0.0245273211402832|-0.890043157745705|0.4544553162666361|-0.02453588880598545|0.06757161766290665|-0.9974126815795898|0|0|0|-1|-1|3
2021-04-22 21:47:38.678 +0100|140282.9932836667|-0.0064544677734375|0.0462799072265625|-0.974029541015625|140282.9733226667|-2.199174157589671|-0.02468546034152673|-0.066401744473053|0.004087583161890507|0.01406299602240324|-0.05100179091095924|0.002899589017033577|-0.01206319034099579|0.02355414628982544|XArbitraryZVertical|-0.02605936513727705|0.02397501993333551|-0.8902752062336595|0.4540445850704256|-0.02462855726480484|0.0663529559969902|-0.9974921941757202|0|0|0|-1|-1|3
2021-04-22 21:47:38.698 +0100|140283.0132446667|-0.010528564453125|0.0901031494140625|-0.992889404296875|140282.9932836667|-2.200291459275885|-0.02458956224946137|-0.06663363940246043|-0.05395562946796417|0.005838461685925722|-0.05166767165064812|0.01726888678967953|-0.02897243201732635|0.02404463291168213|XArbitraryZVertical|-0.02605577075294454|0.02411462156109151|-0.8905258534770745|0.4535454606153785|-0.02453252114355564|0.06658434122800827|-0.9974791407585144|0|0|0|-1|-1|3
2021-04-22 21:47:38.718 +0100|140283.0332056667|-0.0178985595703125|0.067535400390625|-1.012741088867188|140283.0132446667|-2.201036455048215|-0.02471395611980301|-0.06674024644924734|0.02697686851024628|-0.009267041459679604|-0.02712610736489296|0.01525656133890152|0.01456133276224136|0.009843826293945312|XArbitraryZVertical|-0.02612630389692506|0.02414363650209506|-0.8906912031833361|0.4532149261981981|-0.02465642616152763|0.06669071316719055|-0.9974690079689026|0|0|0|-1|-1|3
2021-04-22 21:47:38.738 +0100|140283.0531666667|-0.0267486572265625|0.0608367919921875|-1.01141357421875|140283.0332056667|-2.20150213002097|-0.02521063495495678|-0.06568905968696974|0.05633189529180527|-0.02829527482390404|-0.02382698468863964|0.0108404066413641|0.0111699104309082|-0.01082044839859009|XArbitraryZVertical|-0.026104190531091|0.02356882273153556|-0.8908086875128622|0.4530154613560798|-0.02515359781682491|0.06564182788133621|-0.9975261688232422|0|0|0|-1|-1|3
2021-04-22 21:47:38.758 +0100|140283.0731276667|-0.0208892822265625|0.0590362548828125|-0.99530029296875|140283.0531666667|-2.202103366847393|-0.02550606253760584|-0.06424056584059525|0.08825433999300003|-0.006272050086408854|-0.03864933922886848|0.001753343269228935|-0.008899539709091187|-0.01576930284500122|XArbitraryZVertical|-0.02590133842395721|0.02286424567430939|-0.8909661676517797|0.4527536508728195|-0.0254506915807724|0.0641963928937912|-0.9976127147674561|0|0|0|-1|-1|3
2021-04-22 21:47:38.778 +0100|140283.0930886667|-0.0203857421875|0.0340423583984375|-0.9832916259765625|140283.0731276667|-2.203168787438841|-0.02525129383131265|-0.06145445288672273|0.1186861544847488|0.008005209267139435|-0.08370398730039597|-0.0008462518453598022|0.001678310334682465|0.001379847526550293|XArbitraryZVertical|-0.02514656607716099|0.02169361746985822|-0.8912574639351276|0.4522800677866881|-0.02520094811916351|0.06141577661037445|-0.9977940917015076|0|0|0|-1|-1|3
2021-04-22 21:47:38.812 +0100|140283.1130496667|-0.0181121826171875|0.0268402099609375|-0.9824676513671875|140283.0930886667|-2.204922299295295|-0.02528504634382696|-0.05954181398736623|0.07484151422977448|-0.01769045926630497|-0.09317658841609955|0.01153471507132053|-0.02087239548563957|0.009108781814575195|XArbitraryZVertical|-0.02471145782056706|0.02085498287717234|-0.8916845457462249|0.4515012220498281|-0.0252375490963459|0.05950663983821869|-0.9979088306427002|0|0|0|-1|-1|3
2021-04-22 21:47:38.825 +0100|140283.1330106667|-0.02276611328125|0.0615386962890625|-0.9923248291015625|140283.1130496667|-2.206697348654249|-0.02539513895674982|-0.05996492581357176|-0.07917185127735138|-0.02149617113173008|-0.09321928024291992|0.00308375246822834|-0.02925983816385269|0.01786977052688599|XArbitraryZVertical|-0.02483725280476359|0.02104089856056351|-0.8920766405107758|0.4507102163080706|-0.02534677088260651|0.05992899462580681|-0.997880756855011|0|0|0|-1|-1|3
2021-04-22 21:47:38.838 +0100|140283.1529716667|-0.01593017578125|0.0779571533203125|-1.004714965820312|140283.1330106667|-2.208985008722911|-0.02578856232489802|-0.06180325686701113|-0.08154662698507309|-0.005261007696390152|-0.1315513253211975|0.003259835764765739|-0.01534769684076309|0.008775711059570312|XArbitraryZVertical|-0.02540144907393131|0.02180157716460901|-0.8925564184997956|0.4496917608681304|-0.02573647350072861|0.06176391988992691|-0.9977589249610901|0|0|0|-1|-1|3
2021-04-22 21:47:38.858 +0100|140283.1729326667|-0.0047607421875|0.07940673828125|-1.016265869140625|140283.1529716667|-2.211405722031845|-0.02597290747782846|-0.06249273431673679|0.01245610136538744|0.002348602283746004|-0.1074701249599457|0.004587067291140556|0.02047844231128693|-0.003097414970397949|XArbitraryZVertical|-0.02561176728673394|0.02209896310195136|-0.8930861460393169|0.4486123606777869|-0.02591929398477077|0.06245206668972969|-0.9977113604545593|0|0|0|-1|-1|3
2021-04-22 21:47:38.878 +0100|140283.1928936667|-0.0186614990234375|0.0820159912109375|-1.0089111328125|140283.1729326667|-2.212866260422012|-0.02620556599969412|-0.06147492149468332|0.0556986965239048|-0.03805506601929665|-0.03215610980987549|0.02288725227117538|0.0145973265171051|-0.01956570148468018|XArbitraryZVertical|-0.02547195103193513|0.02161070129625169|-0.8934275737103083|0.4479636301941931|-0.02615307085216045|0.06143620982766151|-0.9977683424949646|0|0|0|-1|-1|3
2021-04-22 21:47:38.898 +0100|140283.2128546667|-0.0221710205078125|0.055450439453125|-0.9965057373046875|140283.1928936667|-2.212929239509183|-0.02712567817329109|-0.05947629185332816|0.09638064354658127|-0.03943735361099243|0.01666575856506824|0.00905332900583744|0.02794484049081802|-0.01348799467086792|XArbitraryZVertical|-0.02543539403652752|0.02051222183512859|-0.8934629786585661|0.4479468816805233|-0.02707439474761486|0.05944123119115829|-0.9978646039962769|0|0|0|-1|-1|3
2021-04-22 21:47:38.918 +0100|140283.2328156667|-0.0157623291015625|0.022125244140625|-1.001708984375|140283.2128546667|-2.21233582338238|-0.02789438636258783|-0.05662062552597235|0.1504204273223877|-0.04641462489962578|0.03573789820075035|0.01066423766314983|0.006442666053771973|-0.000816047191619873|XArbitraryZVertical|-0.0251458812307525|0.01905633540823617|-0.8933661746491117|0.4482206436968701|-0.02784607373178005|0.05659037828445435|-0.9980090856552124|0|0|0|-1|-1|3
2021-04-22 21:47:38.938 +0100|140283.2527766667|-0.0240631103515625|0.0269775390625|-0.9925384521484375|140283.2328156667|-2.211411645286415|-0.0287341841775421|-0.05419639851737007|0.1562582403421402|-0.0828443169593811|0.03905584290623665|0.0110026728361845|-0.0260641984641552|0.002163112163543701|XArbitraryZVertical|-0.02498677751130619|0.01777328132029189|-0.893186100240384|0.4486407931108782|-0.02868804708123207|0.05416987091302872|-0.9981195330619812|0|0|0|-1|-1|3
2021-04-22 21:47:38.958 +0100|140283.27273775|-0.0137176513671875|0.0542144775390625|-1.003204345703125|140283.27273775|-2.210503224316721|-0.03071764555837448|-0.05085575593413135|0.07547200471162796|-0.07737988978624344|0.03509145975112915|0.01832830533385277|-0.00603504478931427|-0.006738424301147461|XArbitraryZVertical|-0.02513155897577107|0.01582441695074514|-0.8930076945349914|0.4490605845970855|-0.03067310713231564|0.05083383619785309|-0.9982360005378723|0|0|0|-1|-1|3
2021-04-22 21:47:38.978 +0100|140283.29269875|-0.022705078125|0.0681304931640625|-0.996490478515625||||||||||||||||||||||||3
2021-04-22 21:47:38.998 +0100|140283.31265975|-0.0305633544921875|0.0418853759765625|-0.9990081787109375|140283.29269875|-2.209723854863011|-0.03154597176154288|-0.04961017365316506|0.08532415330410004|-0.03975906223058701|0.04405015334486961|0.009513579308986664|0.01977561414241791|-0.002963244915008545|XArbitraryZVertical|-0.02522805019606981|0.01507222582027409|-0.8928404963584737|0.4494132320207782|-0.03150193393230438|0.04958982765674591|-0.9982727766036987|0|0|0|-1|-1|3
2021-04-22 21:47:39.018 +0100|140283.33262075|-0.0333251953125|-0.000518798828125|-0.996185302734375|140283.31265975|-2.208609450098754|-0.03181091859551476|-0.04721294022410129|0.1299167722463608|-0.01237841229885817|0.05027982220053673|0.00360194593667984|0.002959225326776505|0.005429863929748535|XArbitraryZVertical|-0.0248162422586985|0.01392825939677513|-0.8926210814244274|0.4499086913099422|-0.03177011385560036|0.04719540104269981|-0.9983803033828735|0|0|0|-1|-1|3
2021-04-22 21:47:39.038 +0100|140283.35258175|-0.03997802734375|-0.0068359375|-0.97772216796875|140283.33262075|-2.207874804174391|-0.03191052033777779|-0.04343997716378403|0.2144089788198471|-0.03459199890494347|0.01362007856369019|-0.001877874135971069|-0.03802572190761566|0.002454280853271484|XArbitraryZVertical|-0.02401766164836608|0.01221245622425225|-0.892506275632627|0.4502296898343744|-0.03187500685453415|0.04342631623148918|-0.9985480308532715|0|0|0|-1|-1|3
2021-04-22 21:47:39.062 +0100|140283.37254275|-0.0198211669921875|-0.006378173828125|-1.002304077148438|140283.35258175|-2.208401768813862|-0.03148375549833845|-0.03953992419956375|0.1618413180112839|0.06157570332288742|-0.09294550865888596|-0.01442966982722282|-0.03878295421600342|0.02576178312301636|XArbitraryZVertical|-0.02294762210739164|0.0105735306114387|-0.8926799076552184|0.4499826915715203|-0.03145395219326019|0.03952962160110474|-0.9987232089042664|0|0|0|-1|-1|3
2021-04-22 21:47:39.078 +0100|140283.39250375|-0.0220489501953125|0.0115203857421875|-1.013168334960938|140283.37254275|-2.210906930719509|-0.0298129464000656|-0.03797639477888365|0.04278336465358734|0.08537483215332031|-0.1462036818265915|0.01132346503436565|-0.05250991135835648|0.001261055469512939|XArbitraryZVertical|-0.02183763930948087|0.01027871579382446|-0.8932804458627968|0.4488515265758932|-0.02978703752160072|0.0379672683775425|-0.9988349080085754|0|0|0|-1|-1|3
2021-04-22 21:47:39.097 +0100|140283.41246475|-0.0337677001953125|0.00897216796875|-0.9987030029296875|140283.39250375|-2.213943735048587|-0.02792547681890449|-0.03875072550272336|-0.0819367915391922|0.1140712946653366|-0.1681697815656662|0.00550055131316185|-0.02699277549982071|-0.01140952110290527|XArbitraryZVertical|-0.02115140138768121|0.01108038460416246|-0.8939720651355322|0.4474861767754881|-0.02790088579058647|0.03874102979898453|-0.998859703540802|0|0|0|-1|-1|3
2021-04-22 21:47:39.117 +0100|140283.43242575|-0.0370941162109375|-0.0089569091796875|-0.9627685546875|140283.41246475|-2.217972260729295|-0.02573416512095336|-0.04038506009934994|-0.1315679997205734|0.1401038616895676|-0.2339808493852615|-0.004288865253329277|-0.02671848982572556|-0.003740191459655762|XArbitraryZVertical|-0.02051237337365349|0.01234273313475872|-0.8948750513412939|0.4456743029306992|-0.0257103443145752|0.04037408158183098|-0.9988538026809692|0|0|0|-1|-1|3
2021-04-22 21:47:39.137 +0100|140283.45238675|-0.0400238037109375|-0.0295562744140625|-0.9558868408203125|140283.43242575|-2.223369728557097|-0.02296183599878648|-0.04278852876134725|-0.1891702711582184|0.1840139031410217|-0.3092652857303619|-0.01458298601210117|-0.04768982157111168|0.03043752908706665|XArbitraryZVertical|-0.01976900521146753|0.01408957171830445|-0.8960736291829793|0.4432414737401263|-0.0229388028383255|0.0427754744887352|-0.9988213181495667|0|0|0|-1|-1|3
2021-04-22 21:47:39.157 +0100|140283.47234775|-0.0804290771484375|-0.0716094970703125|-0.9416351318359375|140283.45238675|-2.231250628643804|-0.01888714578004803|-0.04620241515736679|-0.2812244594097137|0.2374967783689499|-0.4645228087902069|-0.02273000590503216|-0.06646592915058136|0.04955118894577026|XArbitraryZVertical|-0.01863399631080779|0.01659602794585903|-0.8978103399170093|0.4396750941155252|-0.01886586844921112|0.04618597775697708|-0.9987546801567078|0|0|0|-1|-1|3
2021-04-22 21:47:39.177 +0100|140283.49230875|-0.1031036376953125|-0.0746917724609375|-0.9014129638671875|140283.47234775|-2.240358708023412|-0.01544375499034151|-0.05148310391093226|-0.3110862076282501|0.1631174087524414|-0.3791106045246124|-0.0439496748149395|-0.1158229634165764|0.05154967308044434|XArbitraryZVertical|-0.01815811073666523|0.01980684852043102|-0.8997670032459002|0.4355427426707038|-0.01542267948389053|0.05146036297082901|-0.9985559582710266|0|0|0|-1|-1|3
2021-04-22 21:47:39.197 +0100|140283.51226975|-0.044525146484375|-0.1697235107421875|-0.9112701416015625|140283.49230875|-2.24783682549118|-0.0119594691875172|-0.05634467862680881|-0.3819125592708588|0.2924368679523468|-0.4687261581420898|-0.1075822860002518|-0.1130175590515137|0.08296686410903931|XArbitraryZVertical|-0.01756326579573463|0.02281890476329241|-0.901353984629805|0.4321248948260873|-0.01194020546972752|0.0563148707151413|-0.9983416795730591|0|0|0|-1|-1|3
2021-04-22 21:47:39.217 +0100|140283.53223075|-0.0172882080078125|-0.1680908203125|-0.917022705078125|140283.51226975|-2.259387901105061|-0.007768599028649351|-0.06553186468772311|-0.7047883272171021|0.2555607855319977|-0.6431780457496643|-0.033782958984375|-0.2265425324440002|0.07932060956954956|XArbitraryZVertical|-0.0174969734869961|0.02796664327548402|-0.9037351163372086|0.4268194132137478|-0.007751846220344305|0.06548497080802917|-0.9978234171867371|0|0|0|-1|-1|3
2021-04-22 21:47:39.237 +0100|140283.55219175|-0.0371551513671875|-0.102325439453125|-0.95013427734375|140283.53223075|-2.273658856230613|-0.003866811557989569|-0.08139248908670151|-1.049043416976929|0.2848311960697174|-0.7658714652061462|-0.03011243231594563|-0.2571764886379242|0.08611369132995605|XArbitraryZVertical|-0.0188596645203028|0.03610136687874358|-0.906518964311688|0.4201958125114906|-0.003854000708088279|0.08130265027284622|-0.9966819882392883|0|0|0|-1|-1|3
2021-04-22 21:47:39.257 +0100|140283.57215375|-0.0719146728515625|-0.0217132568359375|-0.943817138671875|140283.55219175|-2.290590588426995|-0.0008142810223841172|-0.1054067247729696|-1.341599106788635|0.2143721282482147|-0.9092146754264832|-0.01193167641758919|-0.2140536159276962|0.0555914044380188|XArbitraryZVertical|-0.02211499625718504|0.04781386053851337|-0.9095584252810517|0.4122235722447742|-0.0008097615791484714|0.1052116453647614|-0.9944494962692261|0|0|0|-1|-1|3
2021-04-22 21:47:39.277 +0100|140283.59211475|-0.0355224609375|0.0639190673828125|-0.9359588623046875|140283.57215375|-2.308937595555354|0.002209352997746846|-0.1343772346878165|-1.540786266326904|0.3070212006568909|-0.9121928215026855|-0.07697309553623199|-0.1925069242715836|0.04385411739349365|XArbitraryZVertical|-0.02614288591864837|0.06184883842662692|-0.9125462263072489|0.4034240485359749|0.002189433900639415|0.1339731812477112|-0.9909825325012207|0|0|0|-1|-1|3
2021-04-22 21:47:39.313 +0100|140283.61207575|-0.02880859375|-0.0044097900390625|-0.921661376953125|140283.59211475|-2.327779930922039|0.00562390049306115|-0.1663665949498797|-1.65485942363739|0.2961012423038483|-0.95799320936203|-0.04897304624319077|-0.1083350032567978|0.04411482810974121|XArbitraryZVertical|-0.03030996687977552|0.07741200630308197|-0.9152630738353995|0.3941856807333483|0.005546221975237131|0.1656002104282379|-0.986177384853363|0|0|0|-1|-1|3
2021-04-22 21:47:39.328 +0100|140283.63203675|-0.0198974609375|0.0622711181640625|-0.904998779296875|140283.61207575|-2.347141456434906|0.007813586991550575|-0.2026478941266359|-1.946050047874451|0.2839269042015076|-0.9546139240264893|-0.03438731282949448|-0.1808179914951324|0.0644679069519043|XArbitraryZVertical|-0.03554687980305195|0.09477776609314785|-0.9175542345589616|0.3845100152040383|0.007653620559722185|0.2012637406587601|-0.9795072078704834|0|0|0|-1|-1|3
2021-04-22 21:47:39.337 +0100|140283.65199775|-0.0009307861328125|0.11285400390625|-0.89752197265625|140283.63203675|-2.365525273124453|0.008929660460537838|-0.2454118880440108|-2.315942287445068|0.2360564321279526|-0.8791046142578125|-0.03219131380319595|-0.2070377171039581|0.05952173471450806|XArbitraryZVertical|-0.04220944373765536|0.1149740416137011|-0.9188925536421138|0.3750145460605227|0.008661989122629166|0.2429558932781219|-0.9699986577033997|0|0|0|-1|-1|3
2021-04-22 21:47:39.357 +0100|140283.67195875|0.04669189453125|0.1982269287109375|-0.861328125|140283.65199775|-2.382659787773118|0.008947054786930825|-0.2953101512204551|-2.649640083312988|0.2173107117414474|-0.8025069236755371|-0.02014131098985672|-0.1868658363819122|0.05182713270187378|XArbitraryZVertical|-0.05038598545381207|0.1382911208183959|-0.9189899008311289|0.3657793168272979|0.008559639565646648|0.2910365760326385|-0.9566736221313477|0|0|0|-1|-1|3
2021-04-22 21:47:39.377 +0100|140283.69191975|0.0717620849609375|0.274017333984375|-0.8487548828125|140283.67195875|-2.398195221513602|0.008023406266626598|-0.3515693336750181|-2.962490320205688|0.1722706854343414|-0.7297183275222778|0.02689103782176971|-0.165875256061554|0.07060831785202026|XArbitraryZVertical|-0.05983581462259598|0.1643717158101478|-0.9176011788531488|0.3569451983794664|0.00753256119787693|0.3443715870380402|-0.9388032555580139|0|0|0|-1|-1|3
2021-04-22 21:47:39.397 +0100|140283.71188075|0.051361083984375|0.4713287353515625|-0.823883056640625|140283.69191975|-2.412661306455684|0.005552931465928728|-0.4125744507067631|-3.110150814056396|0.1161313056945801|-0.6415448784828186|0.06118173897266388|-0.1564632058143616|0.06156963109970093|XArbitraryZVertical|-0.07047133644521189|0.1923409810956702|-0.914704396082874|0.3483601088276226|0.005086967721581459|0.4009690880775452|-0.9160774946212769|0|0|0|-1|-1|3
2021-04-22 21:47:39.417 +0100|140283.73184175|0.0879669189453125|0.5247955322265625|-0.780975341796875|140283.71188075|-2.424912322755113|0.002242105040328391|-0.4754316629850758|-3.182797908782959|0.1073305755853653|-0.5024887919425964|0.06227636337280273|-0.03293377161026001|0.07274734973907471|XArbitraryZVertical|-0.08156841550211771|0.2209074169744025|-0.9102370151154275|0.3406101692666118|0.001993443351238966|0.4577222764492035|-0.8890930414199829|0|0|0|-1|-1|3
2021-04-22 21:47:39.437 +0100|140283.75180275|0.1725311279296875|0.4962615966796875|-0.7708892822265625|140283.73184175|-2.434740278853867|-0.0006229369676849661|-0.538169864237097|-3.184443235397339|0.07508155703544617|-0.3710408806800842|0.07046571373939514|0.006461441516876221|0.05733215808868408|XArbitraryZVertical|-0.09229597325522944|0.2493139262160401|-0.904402465220998|0.3337369282469814|-0.0005348837003111839|0.5125654339790344|-0.8586480617523193|0|0|0|-1|-1|3
2021-04-22 21:47:39.457 +0100|140283.77176375|0.162139892578125|0.5971832275390625|-0.7192230224609375|140283.75180275|-2.442322206929432|-0.004656857715091579|-0.6005784050030445|-3.095464468002319|-0.1014016047120094|-0.2501434981822968|0.1586726754903793|-0.08018100261688232|0.04451233148574829|XArbitraryZVertical|-0.1034159948849151|0.2771374053763012|-0.897217850397897|0.3278724099127863|-0.003841935191303492|0.565119743347168|-0.824999988079071|0|0|0|-1|-1|3
2021-04-22 21:47:39.477 +0100|140283.79172475|0.1126708984375|0.7105255126953125|-0.685516357421875|140283.77176375|-2.447766170182744|-0.01207123024383513|-0.660533962740701|-2.894515514373779|-0.3118562996387482|-0.1362946629524231|0.1841228604316711|-0.04722470045089722|0.05314117670059204|XArbitraryZVertical|-0.1156266484818928|0.3030294643797918|-0.8889204478152235|0.3234566494505277|-0.009531993418931961|0.6135385632514954|-0.7896072268486023|0|0|0|-1|-1|3
2021-04-22 21:47:39.497 +0100|140283.81168575|0.111297607421875|0.76885986328125|-0.678985595703125|140283.79172475|-2.450849242121156|-0.0211806727250297|-0.7162958906150135|-2.70847749710083|-0.3670914769172668|-0.005134256556630135|0.1371592879295349|0.03433710336685181|0.05390846729278564|XArbitraryZVertical|-0.1280000358869462|0.3264644377048679|-0.8799381577585592|0.3205403491657609|-0.01597418263554573|0.6565954089164734|-0.7540739178657532|0|0|0|-1|-1|3
2021-04-22 21:47:39.517 +0100|140283.83164675|0.08221435546875|0.9000701904296875|-0.6860504150390625|140283.81168575|-2.450540350475671|-0.02807430347471613|-0.7662620780712154|-2.276209115982056|-0.3568357229232788|0.1433311104774475|0.1285775601863861|0.05368375778198242|0.04000163078308105|XArbitraryZVertical|-0.1388489921879758|0.3472881008268714|-0.8708179731090083|0.3190424580524348|-0.02022509649395943|0.6934468746185303|-0.7202238440513611|0|0|0|-1|-1|3
2021-04-22 21:47:39.537 +0100|140283.85160775|0.045654296875|0.882049560546875|-0.6832122802734375|140283.83164675|-2.446403366336357|-0.03350263685003666|-0.8063712235372095|-1.800884246826172|-0.4795162081718445|0.2634188234806061|0.1202292591333389|0.1494195461273193|0.005881071090698242|XArbitraryZVertical|-0.1481164313392255|0.3635857741428322|-0.8624460256880433|0.3194586947590582|-0.02318358048796654|0.7217803597450256|-0.6917338371276855|0|0|0|-1|-1|3
2021-04-22 21:47:39.557 +0100|140283.87156875|0.0463714599609375|0.832122802734375|-0.6706695556640625|140283.85160775|-2.438355802404994|-0.03739141706128272|-0.8384865666335551|-1.442840814590454|-0.4982756078243256|0.3914157450199127|0.07734633982181549|0.1466107964515686|-0.02540624141693115|XArbitraryZVertical|-0.1562082626215344|0.3762154886170042|-0.8547416134360525|0.3216796534415464|-0.02499366924166679|0.7436320781707764|-0.6681217551231384|0|0|0|-1|-1|3
2021-04-22 21:47:39.577 +0100|140283.89152975|0.0279388427734375|0.8554534912109375|-0.6666107177734375|140283.87156875|-2.426681893086469|-0.03903641773268671|-0.8647777557390245|-1.187982797622681|-0.5773004293441772|0.4694353640079498|0.07350775599479675|0.081196129322052|-0.02401840686798096|XArbitraryZVertical|-0.1631916666575908|0.3862782900221384|-0.8475514417296381|0.3252912579222563|-0.02532076276838779|0.7609511017799377|-0.6483151316642761|0|0|0|-1|-1|3
2021-04-22 21:47:39.597 +0100|140283.91149075|0.003509521484375|0.894287109375|-0.6441802978515625|140283.89152975|-2.41234694269034|-0.03995874695258547|-0.8867065160625598|-0.948210597038269|-0.6278114914894104|0.544200599193573|0.05535125732421875|0.07195913791656494|-0.03943568468093872|XArbitraryZVertical|-0.1697993427929363|0.3942542500143936|-0.8407082648052001|0.3300630135807039|-0.02524592913687229|0.7749945521354675|-0.6314635276794434|0|0|0|-1|-1|3
2021-04-22 21:47:39.616 +0100|140283.93145175|-0.013946533203125|0.8805084228515625|-0.637908935546875|140283.91149075|-2.39464347203733|-0.03895378900113432|-0.9030832822901798|-0.6915907859802246|-0.6536684036254883|0.6116766929626465|0.03529819846153259|0.1045454144477844|-0.03034162521362305|XArbitraryZVertical|-0.1754901934382453|0.3998025296735793|-0.8344903141301748|0.3361358909427434|-0.02411377429962158|0.7852397561073303|-0.6187222599983215|0|0|0|-1|-1|3
2021-04-22 21:47:39.636 +0100|140283.95141275|-0.0347900390625|0.9080657958984375|-0.6516265869140625|140283.93145175|-2.374913149318847|-0.03622042777908559|-0.9147050532928988|-0.4267203509807587|-0.6308907866477966|0.6475823521614075|0.01285863108932972|0.07474315166473389|-0.0310167670249939|XArbitraryZVertical|-0.1801992580612227|0.4033808642762179|-0.8289774115037825|0.342941054739498|-0.02209051139652729|0.7923827171325684|-0.6096242070198059|0|0|0|-1|-1|3
2021-04-22 21:47:39.656 +0100|140283.97137375|-0.0411224365234375|0.8895721435546875|-0.671875|140283.95141275|-2.354392305193273|-0.03226942028991957|-0.9213172613942744|-0.2043135017156601|-0.6100612282752991|0.62690269947052|-0.01224160194396973|0.1123529672622681|-0.04475963115692139|XArbitraryZVertical|-0.1838123331594474|0.4049500957585397|-0.824406790347303|0.3501172458132638|-0.01951224729418755|0.796398937702179|-0.604456901550293|0|0|0|-1|-1|3
2021-04-22 21:47:39.676 +0100|140283.99133475|-0.0774383544921875|0.8998260498046875|-0.669525146484375|140283.97137375|-2.33391738701974|-0.02796538735058498|-0.9238058310306791|-0.01416076254099607|-0.6030645370483398|0.624858558177948|-0.0201173722743988|0.09386742115020752|-0.06695836782455444|XArbitraryZVertical|-0.1866122044900357|0.4048453161111891|-0.8206665767806988|0.3574671407737596|-0.01685500331223011|0.7979015111923218|-0.6025522947311401|0|0|0|-1|-1|3
2021-04-22 21:47:39.696 +0100|140284.01129575|-0.0740509033203125|0.86175537109375|-0.6360015869140625|140283.99133475|-2.313056254789753|-0.02329289682262045|-0.9227411228761273|0.1453637778759003|-0.5888228416442871|0.6354424953460693|-0.05481934547424316|0.1008877754211426|-0.07256799936294556|XArbitraryZVertical|-0.1887264454160883|0.4032934676242271|-0.8175562577276237|0.3651556618193416|-0.01405918691307306|0.7972592711448669|-0.603473424911499|0|0|0|-1|-1|3
2021-04-22 21:47:39.716 +0100|140284.03125675|-0.0466461181640625|0.769927978515625|-0.61376953125|140284.01129575|-2.291869088259486|-0.01782263114624896|-0.9193532984045645|0.1578130573034286|-0.5548271536827087|0.6373188495635986|-0.06854015588760376|0.08769381046295166|-0.03783595561981201|XArbitraryZVertical|-0.1901426103563027|0.4009072566843039|-0.8148583397397119|0.3729948416713533|-0.01080590579658747|0.7952096462249756|-0.6062383055686951|0|0|0|-1|-1|3
2021-04-22 21:47:39.736 +0100|140284.05121775|-0.031036376953125|0.81524658203125|-0.6054534912109375|140284.03125675|-2.270739057387591|-0.01179088357280626|-0.917218553446998|0.08621053397655487|-0.524611234664917|0.6514221429824829|-0.04724416136741638|-0.02058333158493042|-0.01095438003540039|XArbitraryZVertical|-0.1915201040850667|0.3991562832420639|-0.8118860668871311|0.3805726798437358|-0.007169055286794901|0.7939134836196899|-0.6079885959625244|0|0|0|-1|-1|3
2021-04-22 21:47:39.756 +0100|140284.07117875|-0.0369415283203125|0.7955169677734375|-0.6021881103515625|140284.05121775|-2.249462814195376|-0.005344810623185429|-0.9158131805137347|0.04460581392049789|-0.5353361368179321|0.6300070285797119|-0.02982568740844727|0.01599282026290894|0.002218246459960938|XArbitraryZVertical|-0.1928797832533089|0.3977797466826763|-0.8086995176538827|0.3880386360698227|-0.003255754709243774|0.7930582165718079|-0.6091372966766357|0|0|0|-1|-1|3
2021-04-22 21:47:39.776 +0100|140284.09113975|-0.02886962890625|0.83184814453125|-0.5966644287109375|140284.07117875|-2.22926754607718|-0.0001206770676526044|-0.9156027002228153|-0.01504433341324329|-0.5351371169090271|0.6176482439041138|-0.03717359900474548|-0.0002821683883666992|0.0002270936965942383|XArbitraryZVertical|-0.1947422344320105|0.3967606199014067|-0.8052933916613146|0.3951699376175024|-7.353010005317628e-05|0.7929299473762512|-0.6093129515647888|0|0|0|-1|-1|3
2021-04-22 21:47:39.796 +0100|140284.11110075|-0.0069732666015625|0.82232666015625|-0.5884857177734375|140284.09113975|-2.209434638474861|0.005139310564695635|-0.9168294624696751|-0.09854622185230255|-0.5211506485939026|0.5919609069824219|-0.03822207450866699|0.03159421682357788|0.009606480598449707|XArbitraryZVertical|-0.1968066976184995|0.3963600664941313|-0.8016131505722129|0.4019730209540197|0.003126432653516531|0.7936768531799316|-0.6083316206932068|0|0|0|-1|-1|3
2021-04-22 21:47:39.828 +0100|140284.13106175|0.0202789306640625|0.8201141357421875|-0.5890960693359375|140284.11110075|-2.192490317609165|0.007125184202696944|-0.9195722365758162|-0.1998398154973984|-0.5481552481651306|0.5340023636817932|-0.01463434100151062|0.03497934341430664|0.01558351516723633|XArbitraryZVertical|-0.1999286554676827|0.39617669226955|-0.7978386288297146|0.4080762242372354|0.00431896885856986|0.7953423857688904|-0.6061451435089111|0|0|0|-1|-1|3
2021-04-22 21:47:39.836 +0100|140284.15102275|0.014068603515625|0.877288818359375|-0.580718994140625|140284.13106175|-2.176908995459694|0.007577258133644529|-0.923997454152238|-0.2510240375995636|-0.6096407771110535|0.4801288545131683|0.007884413003921509|0.005373001098632812|0.01196455955505371|XArbitraryZVertical|-0.2037519601716273|0.396454585141495|-0.7938128826314947|0.4137272615999673|0.004566277842968702|0.7980169653892517|-0.6026178002357483|0|0|0|-1|-1|3
2021-04-22 21:47:39.856 +0100|140284.17098375|-0.00732421875|0.9330902099609375|-0.5729522705078125|140284.15102275|-2.163184649793739|0.005283631321899848|-0.928824016141549|-0.2154073715209961|-0.6616657972335815|0.4094800651073456|0.01674854755401611|0.06997859477996826|0.01565271615982056|XArbitraryZVertical|-0.208391694376658|0.3964704999167452|-0.7897687239563554|0.4191058154900293|0.003163699293509126|0.800916314125061|-0.5987681150436401|0|0|0|-1|-1|3
2021-04-22 21:47:39.876 +0100|140284.19094475|-0.018463134765625|0.923828125|-0.5635528564453125|140284.17098375|-2.151236822731161|0.001793786857519911|-0.931598648813826|-0.03967119753360748|-0.5977736115455627|0.3579272031784058|-0.005144685506820679|0.1154088973999023|0.0196000337600708|XArbitraryZVertical|-0.212719499456487|0.3955691943525605|-0.7863349812863391|0.42420853073202|0.001070086262188852|0.802574634552002|-0.5965508818626404|0|0|0|-1|-1|3
2021-04-22 21:47:39.896 +0100|140284.21090575|-0.015380859375|0.88555908203125|-0.56756591796875|140284.19094475|-2.141019657118723|-0.001430872207514819|-0.9316331324516747|0.06999725848436356|-0.5259541869163513|0.2797796130180359|-0.01626729965209961|0.1333936452865601|0.03448057174682617|XArbitraryZVertical|-0.2160089445307491|0.393799886011557|-0.7838036015531549|0.4288518608027657|-0.0008535495726391673|0.8025951981544495|-0.5965235829353333|0|0|0|-1|-1|3
2021-04-22 21:47:39.916 +0100|140284.23086675|-0.0164337158203125|0.8944244384765625|-0.561614990234375|140284.21090575|-2.132856663149246|-0.004443003142177406|-0.9302563456867993|0.09178679436445236|-0.4554558098316193|0.1945564895868301|-0.01655605435371399|0.09098756313323975|0.03101730346679688|XArbitraryZVertical|-0.2184953148324262|0.3917249999818214|-0.7819892194398607|0.4327866547384084|-0.00265525677241385|0.8017731904983521|-0.5976226329803467|0|0|0|-1|-1|3
2021-04-22 21:47:39.936 +0100|140284.25082775|-0.0502166748046875|0.88946533203125|-0.54473876953125|140284.23086675|-2.126839968841395|-0.008240563781344688|-0.9292198641332653|0.1086384579539299|-0.4378994107246399|0.126536950469017|-0.006925016641616821|0.09122598171234131|0.03454965353012085|XArbitraryZVertical|-0.2209304729469762|0.3898336377182915|-0.7804691792638921|0.4359901649890274|-0.004931585863232613|0.801153302192688|-0.5984389185905457|0|0|0|-1|-1|3
2021-04-22 21:47:39.956 +0100|140284.270788625|-0.060272216796875|0.8896331787109375|-0.5354461669921875|140284.25082775|-2.123234711183676|-0.01319144274649376|-0.9283160229350734|0.1306671500205994|-0.3456481993198395|0.07786617428064346|-0.03518751263618469|0.08915793895721436|0.05426943302154541|XArbitraryZVertical|-0.2233664214311221|0.3879973501697327|-0.7793089866226658|0.4384553892111028|-0.007903860881924629|0.8006120920181274|-0.5991309881210327|0|0|0|-1|-1|3
2021-04-22 21:47:39.976 +0100|140284.290749625|-0.042938232421875|0.8246307373046875|-0.5409088134765625|140284.270788625|-2.121325779589499|-0.01736410229497631|-0.9273102649059631|0.1607439368963242|-0.2225460857152939|0.03050345554947853|-0.04845121502876282|0.08791470527648926|0.06124639511108398|XArbitraryZVertical|-0.2251432970152789|0.3864734036964498|-0.7786199246605089|0.4401135759768083|-0.01041773054748774|0.80000901222229|-0.5998976230621338|0|0|0|-1|-1|3
2021-04-22 21:47:39.996 +0100|140284.310710625|-0.0373687744140625|0.80517578125|-0.55010986328125|140284.290749625|-2.121439115106662|-0.02080147434305693|-0.925981734386817|0.1371190100908279|-0.1120863109827042|-0.02944483608007431|-0.0353502631187439|0.04507243633270264|0.06379503011703491|XArbitraryZVertical|-0.2261719002489443|0.3852091094791684|-0.7785189394232772|0.440872727794272|-0.01250183396041393|0.7992112040519714|-0.6009204387664795|0|0|0|-1|-1|3
2021-04-22 21:47:40.017 +0100|140284.330671625|-0.0524749755859375|0.8060150146484375|-0.5445556640625|140284.310710625|-2.123239511730084|-0.02389602170554632|-0.9257495818967719|0.04846540093421936|-0.05558782815933228|-0.08670750260353088|-0.02469724416732788|0.004119992256164551|0.05424958467483521|XArbitraryZVertical|-0.2269798749290909|0.3846401078918886|-0.7786109705201091|0.440791607095863|-0.01436577923595905|0.7990716695785522|-0.6010642647743225|0|0|0|-1|-1|3
2021-04-22 21:47:40.042 +0100|140284.350632625|-0.054168701171875|0.815765380859375|-0.538818359375|140284.330671625|-2.127612486691836|-0.02809551902672421|-0.9273792927101211|-0.03094072453677654|0.01393926423043013|-0.1423071175813675|-0.03035801462829113|0.008161246776580811|0.05204206705093384|XArbitraryZVertical|-0.2281241536209414|0.3848524276007743|-0.7787729968990103|0.4397278455615879|-0.01685320399701595|0.8000504374504089|-0.5996959805488586|0|0|0|-1|-1|3
2021-04-22 21:47:40.057 +0100|140284.370593625|-0.0481719970703125|0.8497467041015625|-0.54302978515625|140284.350632625|-2.134200399353689|-0.03257415933682655|-0.9303924811480373|-0.08226364850997925|0.115925021469593|-0.1801013648509979|-0.03812694549560547|0.007913649082183838|0.05742210149765015|XArbitraryZVertical|-0.2292422647811113|0.3858066768670935|-0.7791057496254675|0.4377162246098807|-0.01946024969220161|0.8018544912338257|-0.5972023606300354|0|0|0|-1|-1|3
2021-04-22 21:47:40.076 +0100|140284.390554625|-0.04620361328125|0.8505401611328125|-0.5486297607421875|140284.370593625|-2.141777202294712|-0.03583661141533002|-0.9334392654812921|-0.06392934918403625|0.205889955163002|-0.2132449448108673|-0.03052905015647411|0.03977298736572266|0.05268335342407227|XArbitraryZVertical|-0.2296938394133879|0.3871627637458172|-0.7797735520402123|0.4350851096335615|-0.02132085524499416|0.8036713004112244|-0.5946914553642273|0|0|0|-1|-1|3
2021-04-22 21:47:40.095 +0100|140284.410515625|-0.05621337890625|0.85205078125|-0.5405120849609375|140284.390554625|-2.149920287580421|-0.03782210506830629|-0.9351522020661961|-0.02452635206282139|0.2734637856483459|-0.2276513874530792|-0.02457863092422485|0.04629272222518921|0.04642635583877563|XArbitraryZVertical|-0.2292487030800609|0.3883416631431327|-0.7809657026378501|0.4321211131871796|-0.02244948595762253|0.8046894669532776|-0.5932715535163879|0|0|0|-1|-1|3
2021-04-22 21:47:40.115 +0100|140284.430476625|-0.03125|0.7612457275390625|-0.5486297607421875|140284.410515625|-2.15879086327438|-0.03887211737024306|-0.9360140813416484|-0.004550662823021412|0.3742962181568146|-0.2654004693031311|-0.03474009037017822|0.05843091011047363|0.05077505111694336|XArbitraryZVertical|-0.228113149926411|0.3894704482547072|-0.7825801593817182|0.4287721983804845|-0.02304545044898987|0.8052008152008057|-0.5925543308258057|0|0|0|-1|-1|3
2021-04-22 21:47:40.135 +0100|140284.450437625|-0.0122833251953125|0.7628936767578125|-0.5502777099609375|140284.430476625|-2.169651721122128|-0.03953582889136412|-0.9367007519121076|-0.02495543658733368|0.4704378843307495|-0.334197610616684|-0.01593607664108276|-0.02371746301651001|0.04361522197723389|XArbitraryZVertical|-0.226395635884518|0.3908348319710043|-0.7846821983947121|0.4245788146567518|-0.02341687120497227|0.8056078553199768|-0.5919862985610962|0|0|0|-1|-1|3
2021-04-22 21:47:40.155 +0100|140284.470398625|-0.0402374267578125|0.80657958984375|-0.5385284423828125|140284.450437625|-2.183123766483874|-0.04122352896759244|-0.93845850267709|-0.07173570990562439|0.4753466546535492|-0.4138380587100983|0.01404210925102234|-0.05025500059127808|0.03831398487091064|XArbitraryZVertical|-0.2247765233022087|0.3926962869312816|-0.7869755867199033|0.419445946238336|-0.02435754053294659|0.8066479563713074|-0.5905302762985229|0|0|0|-1|-1|3
2021-04-22 21:47:40.175 +0100|140284.490359625|-0.0471954345703125|0.8368682861328125|-0.5398406982421875|140284.470398625|-2.199098534174393|-0.04447571911871706|-0.9405886180191416|-0.05815650150179863|0.5276108980178833|-0.4812394678592682|-0.006559640169143677|-0.01681369543075562|0.0452568531036377|XArbitraryZVertical|-0.2233390574042573|0.3946577252788475|-0.789500135970473|0.4135874552228251|-0.02620146423578262|0.8079051375389099|-0.5887299180030823|0|0|0|-1|-1|3
2021-04-22 21:47:40.195 +0100|140284.510320625|-0.034088134765625|0.8546142578125|-0.535186767578125|140284.490359625|-2.2175353343292|-0.048084986326942|-0.9421919830019858|-0.02282292768359184|0.6301921606063843|-0.5541389584541321|-0.02390637993812561|0.02641665935516357|0.04934179782867432|XArbitraryZVertical|-0.2214333217262036|0.3966091292686272|-0.7925484478839526|0.4068607732146253|-0.02826387621462345|0.8088489770889282|-0.5873369574546814|0|0|0|-1|-1|3
2021-04-22 21:47:40.215 +0100|140284.530281625|-0.031982421875|0.8626861572265625|-0.5312042236328125|140284.510320625|-2.237914926313426|-0.05193281031405181|-0.9424468274123758|-0.003926667384803295|0.6599821448326111|-0.6096509099006653|-0.004170775413513184|0.04088473320007324|0.0464746356010437|XArbitraryZVertical|-0.2189610211481079|0.3981797001788308|-0.7961800626313612|0.3995078961805569|-0.03051293082535267|0.8089987635612488|-0.5870180130004883|0|0|0|-1|-1|3
2021-04-22 21:47:40.235 +0100|140284.550242625|-0.0072479248046875|0.836273193359375|-0.53936767578125|140284.530281625|-2.258803272849931|-0.05470626419294761|-0.9406554511700256|0.1204187348484993|0.7418400645256042|-0.6601866483688354|-0.003958940505981445|0.05501580238342285|0.05747729539871216|XArbitraryZVertical|-0.215569247879353|0.3991758190204875|-0.8003869266308861|0.3918793888233236|-0.03222006186842918|0.8079444766044617|-0.5883771181106567|0|0|0|-1|-1|3
2021-04-22 21:47:40.255 +0100|140284.570204625|-0.0078582763671875|0.8517303466796875|-0.5277252197265625|140284.550242625|-2.282100203775703|-0.05856198215500488|-0.9385546078440932|0.03660096973180771|0.7258010506629944|-0.7350995540618896|0.02167836204171181|0.0449182391166687|0.05243492126464844|XArbitraryZVertical|-0.2120788710838833|0.4000646216482895|-0.8049327771285809|0.3834765044222412|-0.03458770364522934|0.8067047595977783|-0.589941680431366|0|0|0|-1|-1|3
2021-04-22 21:47:40.275 +0100|140284.590165625|-0.030792236328125|0.892486572265625|-0.5110321044921875|140284.570204625|-2.308335331441148|-0.06593141776987733|-0.9380462346996398|0.0434882678091526|0.6815468072891235|-0.7940654754638672|0.03218600153923035|0.03659749031066895|0.05876815319061279|XArbitraryZVertical|-0.2097074871857081|0.401226600902962|-0.8092342022748287|0.3744064600100405|-0.03896128013730049|0.8064042329788208|-0.5900799632072449|0|0|0|-1|-1|3
2021-04-22 21:47:40.295 +0100|140284.610126625|-0.0438385009765625|0.9035491943359375|-0.5262298583984375|140284.590165625|-2.334942377092137|-0.07346238891365615|-0.9373065185394945|0.06647855788469315|0.7129537463188171|-0.8019123077392578|0.01598158478736877|0.08210968971252441|0.07035958766937256|XArbitraryZVertical|-0.2072917855108793|0.4023031377960637|-0.8135265108539812|0.3651810260992333|-0.04344778135418892|0.8059666156768799|-0.5903645753860474|0|0|0|-1|-1|3
2021-04-22 21:47:40.315 +0100|140284.630087625|-0.0108642578125|0.8770904541015625|-0.5378570556640625|140284.610126625|-2.361886984798817|-0.08031744689926042|-0.9363113970683392|0.05465530231595039|0.7690132856369019|-0.8122850656509399|-3.448128700256348e-05|0.1123775243759155|0.06697124242782593|XArbitraryZVertical|-0.2044967308321714|0.4034291539192027|-0.8178900529328107|0.3556431759902052|-0.04755803197622299|0.8053771257400513|-0.5908520221710205|0|0|0|-1|-1|3
2021-04-22 21:47:40.335 +0100|140284.650048625|-0.0217742919921875|0.874664306640625|-0.566314697265625|140284.630087625|-2.388426889068226|-0.08579249653480943|-0.935400607097068|0.05369891226291656|0.7672602534294128|-0.8313148617744446|0.03069787472486496|0.07625091075897217|0.05246371030807495|XArbitraryZVertical|-0.201235229362261|0.4047810211372602|-0.8221863643547763|0.3459285672842384|-0.05085508525371552|0.8048369288444519|-0.5913134217262268|0|0|0|-1|-1|3
2021-04-22 21:47:40.355 +0100|140284.670009625|-0.0961761474609375|0.8936767578125|-0.5724945068359375|140284.650048625|-2.41512033792061|-0.09199833868390773|-0.9340178695230306|0.04965158924460411|0.7195156216621399|-0.8484955430030823|0.04447844997048378|0.08332830667495728|0.02278780937194824|XArbitraryZVertical|-0.1981736058632372|0.4058081285836316|-0.8264193148320695|0.3362711478300278|-0.05462586134672165|0.8040154576301575|-0.5920939445495605|0|0|0|-1|-1|3
2021-04-22 21:47:40.376 +0100|140284.689970625|-0.1135101318359375|0.90655517578125|-0.5727081298828125|140284.670009625|-2.442619933116922|-0.09928367430497792|-0.9308717206798619|0.136309027671814|0.782980740070343|-0.8207031488418579|-0.0223853588104248|0.06510722637176514|0.02160763740539551|XArbitraryZVertical|-0.1951533164304133|0.4059777626323671|-0.8309451636008099|0.3265388107220962|-0.05918841809034348|0.8021407723426819|-0.5941944718360901|0|0|0|-1|-1|3
2021-04-22 21:47:40.395 +0100|140284.709931625|-0.12420654296875|0.850921630859375|-0.570343017578125|140284.689970625|-2.468662198753274|-0.1037743552134254|-0.9248211668996738|0.3122788071632385|0.8490779995918274|-0.7950825095176697|-0.04997768253087997|0.1216827630996704|0.02526706457138062|XArbitraryZVertical|-0.1908995202344286|0.4052010771680031|-0.8360203853980525|0.3169217003240802|-0.06235775351524353|0.7985131144523621|-0.5987389087677002|0|0|0|-1|-1|3
2021-04-22 21:47:40.415 +0100|140284.729892625|-0.1415252685546875|0.725738525390625|-0.6073760986328125|140284.709931625|-2.493384933414233|-0.1063169358960557|-0.9164025723078278|0.3167621493339539|0.8526090979576111|-0.8073267936706543|-0.05825772881507874|0.07694369554519653|0.03056442737579346|XArbitraryZVertical|-0.1858387195825019|0.4035382349210423|-0.8414709931230703|0.3074860934619855|-0.06459099054336548|0.7934170961380005|-0.6052417159080505|0|0|0|-1|-1|3
2021-04-22 21:47:40.435 +0100|140284.749853625|-0.15435791015625|0.6937408447265625|-0.6009063720703125|140284.729892625|-2.518996683403144|-0.1089126800010874|-0.9099860893692269|0.1121626421809196|0.9219530820846558|-0.8141989707946777|-0.071698859333992|-0.03447562456130981|-0.004214644432067871|XArbitraryZVertical|-0.1809455437133694|0.4027388525477378|-0.8464968096849652|0.297495291063673|-0.06671382486820221|0.7894952297210693|-0.6101202368736267|0|0|0|-1|-1|3
2021-04-22 21:47:40.455 +0100|140284.769814625|-0.1544342041015625|0.674652099609375|-0.64105224609375|140284.749853625|-2.544726340854961|-0.1102088187030327|-0.9077543020509785|-0.03750023990869522|0.9786210060119629|-0.7721519470214844|-0.08704137057065964|-0.1035079956054688|0.001568019390106201|XArbitraryZVertical|-0.1760319609150311|0.4038827317286056|-0.8506234424353368|0.2869343236035531|-0.06769818812608719|0.7881234884262085|-0.611782968044281|0|0|0|-1|-1|3
2021-04-22 21:47:40.475 +0100|140284.789775625|-0.12017822265625|0.6454925537109375|-0.632354736328125|140284.769814625|-2.571382915013915|-0.1109011944401|-0.9080448146299138|-0.1668537110090256|1.062263965606689|-0.809164822101593|-0.09112918376922607|-0.08836692571640015|-0.01539969444274902|XArbitraryZVertical|-0.1709624603624702|0.4062235949068307|-0.8542500056695618|0.275701542907632|-0.06809642165899277|0.7883022427558899|-0.6115084290504456|0|0|0|-1|-1|3
2021-04-22 21:47:40.495 +0100|140284.809736625|-0.075531005859375|0.7003326416015625|-0.6460418701171875|140284.789775625|-2.596927512672446|-0.1092964551488578|-0.9112558005708603|-0.2959434986114502|1.122294545173645|-0.7195422649383545|-0.06373101472854614|-0.156729519367218|-0.01376688480377197|XArbitraryZVertical|-0.1654222596118811|0.4099836840557814|-0.8571348519272465|0.2643273364968546|-0.0668385773897171|0.7902738451957703|-0.6090977191925049|0|0|0|-1|-1|3
2021-04-22 21:47:40.515 +0100|140284.829697625|-0.064666748046875|0.6938323974609375|-0.66619873046875|140284.809736625|-2.621097299054832|-0.1063899789495068|-0.9154826624707483|-0.2326003313064575|1.086859345436096|-0.7150024771690369|-0.02218620479106903|-0.09592747688293457|-0.04151451587677002|XArbitraryZVertical|-0.159644870525134|0.4141645569420735|-0.8595735525871916|0.2532089448648396|-0.06471267342567444|0.7928568124771118|-0.6059624552726746|0|0|0|-1|-1|3
2021-04-22 21:47:40.535 +0100|140284.849658625|-0.09637451171875|0.745361328125|-0.6541900634765625|140284.829697625|-2.645431374649989|-0.1048543669709922|-0.9178452792316804|-0.1480783075094223|0.9985042810440063|-0.7378296852111816|-0.0008063167333602905|-0.09432852268218994|-0.07018184661865234|XArbitraryZVertical|-0.154164888438805|0.4172948025908235|-0.8621894526739354|0.2423380794205525|-0.06358584016561508|0.7942944169044495|-0.6041964888572693|0|0|0|-1|-1|3
2021-04-22 21:47:40.555 +0100|140284.869619625|-0.0908966064453125|0.8100738525390625|-0.626800537109375|140284.849658625|-2.668548606548197|-0.1034115770309957|-0.917647134865494|0.03469953685998917|0.9803994297981262|-0.6701868176460266|-0.02633528411388397|-0.06617772579193115|-0.06473088264465332|XArbitraryZVertical|-0.1486887707705417|0.4191295408187299|-0.8650841116521985|0.2320598680141714|-0.06273029744625092|0.7941740155220032|-0.604444146156311|0|0|0|-1|-1|3
2021-04-22 21:47:40.575 +0100|140284.889580625|-0.061492919921875|0.7428131103515625|-0.6648712158203125|140284.869619625|-2.688361676864841|-0.09934366307396882|-0.9122161753603277|0.3849543929100037|0.9814006686210632|-0.6132906079292297|-0.03692790493369102|0.004639148712158203|-0.03425782918930054|XArbitraryZVertical|-0.1422763090903525|0.4186512188098481|-0.8688271030876911|0.2227739709700433|-0.06069783866405487|0.790861964225769|-0.608977198600769|0|0|0|-1|-1|3
2021-04-22 21:47:40.595 +0100|140284.909541625|-0.046112060546875|0.6297149658203125|-0.70880126953125|140284.889580625|-2.70711319931102|-0.0949161235354528|-0.8993960516512726|0.7549120783805847|0.9204636216163635|-0.6382161974906921|-0.01228617131710052|-0.006783068180084229|-0.03635746240615845|XArbitraryZVertical|-0.1353057185902429|0.4147901342945937|-0.8739765732913394|0.2140250488579581|-0.05895709991455078|0.7829513549804688|-0.6192830204963684|0|0|0|-1|-1|3
2021-04-22 21:47:40.615 +0100|140284.929502625|-0.038543701171875|0.5362396240234375|-0.7731781005859375|140284.909541625|-2.724464905450948|-0.09084697499535442|-0.8819620788640909|0.8342266082763672|0.8409395813941956|-0.6419930458068848|0.009601205587387085|-0.1219179034233093|-0.06800353527069092|XArbitraryZVertical|-0.1284594939758566|0.4086439834155293|-0.8798102895525036|0.2060150282772685|-0.05766636505723|0.7719875574111938|-0.6330165266990662|0|0|0|-1|-1|3
2021-04-22 21:47:40.635 +0100|140284.949463625|-0.03997802734375|0.4724884033203125|-0.8294677734375|140284.929502625|-2.743067172606732|-0.0884496476081908|-0.8649711474927131|0.7270472049713135|0.8318418264389038|-0.6892614960670471|0.01549014449119568|-0.2029564380645752|-0.111946165561676|XArbitraryZVertical|-0.1222296184170201|0.4024880754752602|-0.8854235341006859|0.1977087084352872|-0.0572991669178009|0.7610765695571899|-0.6461265683174133|0|0|0|-1|-1|3
2021-04-22 21:47:40.654 +0100|140284.969424625|-0.023529052734375|0.413970947265625|-0.82464599609375|140284.949463625|-2.7620126083198|-0.08605549045278002|-0.8510610308570135|0.5572456121444702|0.8512187004089355|-0.6793807148933411|0.01728898286819458|-0.2696200609207153|-0.1613695621490479|XArbitraryZVertical|-0.1162794626867647|0.3976252556389853|-0.8902875545988791|0.1891073909606476|-0.05665656924247742|0.7519802451133728|-0.656746506690979|0|0|0|-1|-1|3
2021-04-22 21:47:40.675 +0100|140284.989385625|0.0016326904296875|0.461456298828125|-0.818023681640625|140284.969424625|-2.78152761164315|-0.08357426667588128|-0.8425677645505092|0.136390283703804|0.8515444397926331|-0.6677185297012329|0.02807703614234924|-0.3181630373001099|-0.1668227314949036|XArbitraryZVertical|-0.1106663875399498|0.3951456920762071|-0.8939730816301572|0.1800697005241491|-0.05555801093578339|0.7463545799255371|-0.6632256507873535|0|0|0|-1|-1|3
2021-04-22 21:47:40.694 +0100|140285.009346625|0.01898193359375|0.606658935546875|-0.8527069091796875|140284.989385625|-2.800442090870617|-0.08061104692991689|-0.8432880108468441|-0.2699288725852966|0.8514348864555359|-0.5722182393074036|0.04651501774787903|-0.3102956414222717|-0.1628634929656982|XArbitraryZVertical|-0.1056472925064668|0.396753000193684|-0.895646179480033|0.1710081600701384|-0.05354918539524078|0.7468337416648865|-0.6628513932228088|0|0|0|-1|-1|3
2021-04-22 21:47:40.714 +0100|140285.029307625|0.038970947265625|0.678680419921875|-0.85650634765625|140285.009346625|-2.816879808821253|-0.07643867135502738|-0.8496301386217943|-0.3995120823383331|0.8055157661437988|-0.4746660888195038|0.06621335446834564|-0.1791832447052002|-0.174583911895752|XArbitraryZVertical|-0.1009292340138705|0.4008076102396945|-0.8959308927685304|0.162710099126762|-0.05042034387588501|0.7510362267494202|-0.6583331227302551|0|0|0|-1|-1|3
2021-04-22 21:47:40.734 +0100|140285.049268625|0.09515380859375|0.61004638671875|-0.8394927978515625|140285.029307625|-2.830779084055575|-0.07093591135374416|-0.8562497989732292|-0.3011414110660553|0.8159562945365906|-0.4050791561603546|0.07834985852241516|-0.07796186208724976|-0.1934958696365356|XArbitraryZVertical|-0.09609104378069143|0.4049110387035199|-0.8959383683052321|0.1552683579980311|-0.04644356295466423|0.755390465259552|-0.6536270976066589|0|0|0|-1|-1|3
2021-04-22 21:47:40.754 +0100|140285.069229625|0.100616455078125|0.5855865478515625|-0.7951202392578125|140285.049268625|-2.843214925966755|-0.06439260445834041|-0.8612980357894918|-0.3281244039535522|0.760169506072998|-0.3645891845226288|0.1264536827802658|-0.1269756555557251|-0.1897414326667786|XArbitraryZVertical|-0.09094418396689452|0.4082616959865873|-0.8961380595660899|0.1482839371838683|-0.04191978648304939|0.7586888074874878|-0.6501030921936035|0|0|0|-1|-1|3
2021-04-22 21:47:40.774 +0100|140285.089190625|0.08465576171875|0.6463470458984375|-0.7569427490234375|140285.069229625|-2.855099967046459|-0.05926422047273081|-0.8685583760706664|-0.4276016652584076|0.6665607690811157|-0.3564067184925079|0.1390730291604996|-0.1798878312110901|-0.1661810874938965|XArbitraryZVertical|-0.08664181150135546|0.4124273413125049|-0.895708316958389|0.141786891266619|-0.03825800120830536|0.7633985280990601|-0.6447937488555908|0|0|0|-1|-1|3
2021-04-22 21:47:40.794 +0100|140285.109151625|0.0697784423828125|0.691009521484375|-0.7579498291015625|140285.089190625|-2.865686489335904|-0.0548989183400879|-0.8735037327650795|-0.3261486291885376|0.5618127584457397|-0.3686046004295349|0.1282226294279099|-0.1318795084953308|-0.1300179958343506|XArbitraryZVertical|-0.082780513096522|0.4154019278669973|-0.8955872515284442|0.1360597938128294|-0.03523534163832664|0.7665835618972778|-0.641177237033844|0|0|0|-1|-1|3
2021-04-22 21:47:40.814 +0100|140285.129112625|0.0419769287109375|0.7803497314453125|-0.770721435546875|140285.109151625|-2.876391275970557|-0.05186143893871189|-0.873087858261528|-0.05879084765911102|0.4932138621807098|-0.3798772394657135|0.1090947985649109|-0.09431993961334229|-0.1048305630683899|XArbitraryZVertical|-0.07917195659252428|0.4158509109681003|-0.8965117637963255|0.1306394114216962|-0.03330414369702339|0.7663164138793945|-0.6415996551513672|0|0|0|-1|-1|3
2021-04-22 21:47:40.834 +0100|140285.149073625|0.0181732177734375|0.783233642578125|-0.82537841796875|140285.129112625|-2.885614266304666|-0.0480880888581544|-0.8655283479756759|0.3494686484336853|0.4620929658412933|-0.4139605462551117|0.07960742712020874|-0.002725660800933838|-0.123676061630249|XArbitraryZVertical|-0.0751612367986591|0.4130453679356451|-0.8988375081149036|0.1258396440463806|-0.0311605129390955|0.7614378929138184|-0.6474886536598206|0|0|0|-1|-1|3
2021-04-22 21:47:40.854 +0100|140285.169034625|-0.0138397216796875|0.70489501953125|-0.8141326904296875|140285.149073625|-2.896189078317277|-0.04491190906187837|-0.850574648214078|0.5298892259597778|0.4719440937042236|-0.5083393454551697|0.05066914856433868|0.04498589038848877|-0.1581768393516541|XArbitraryZVertical|-0.07078503025526195|0.4068738673821476|-0.90270976031534|0.1206576909240499|-0.02961175329983234|0.7516595125198364|-0.6588862538337708|0|0|0|-1|-1|3
2021-04-22 21:47:40.874 +0100|140285.188995625|-0.02044677734375|0.6909942626953125|-0.7332305908203125|140285.169034625|-2.906088737121242|-0.04137234525552412|-0.8384060805932213|0.3208103775978088|0.4767982661724091|-0.4315045475959778|0.02794589288532734|-0.02495098114013672|-0.1393274664878845|XArbitraryZVertical|-0.06657083032149297|0.4019078382041614|-0.9059054374828915|0.1156460005915173|-0.02765568532049656|0.743578314781189|-0.6680768132209778|0|0|0|-1|-1|3
2021-04-22 21:47:40.894 +0100|140285.208956625|-0.04766845703125|0.7042694091796875|-0.6588897705078125|140285.188995625|-2.915616391917558|-0.03735870035408471|-0.833331020808774|-0.0833384171128273|0.4646115005016327|-0.3656356334686279|0.004073105752468109|-0.04196423292160034|-0.07556867599487305|XArbitraryZVertical|-0.06259394127894832|0.4001369123887774|-0.9076020600866149|0.1105947791418472|-0.02511467412114143|0.7401753067970276|-0.6719449162483215|0|0|0|-1|-1|3
2021-04-22 21:47:40.914 +0100|140285.228917625|-0.0786895751953125|0.777618408203125|-0.6969146728515625|140285.208956625|-2.922738720305923|-0.03325373978878061|-0.8373486654502917|-0.5776596069335938|0.4255946278572083|-0.231408417224884|-0.007375149056315422|-0.07067608833312988|0.0282406210899353|XArbitraryZVertical|-0.05949185915291906|0.4024032316897759|-0.9073004805244387|0.1064813468564605|-0.02225710824131966|0.7428708672523499|-0.6690647006034851|0|0|0|-1|-1|3
2021-04-22 21:47:40.934 +0100|140285.248879625|-0.0447845458984375|0.762481689453125|-0.6287689208984375|140285.228917625|-2.928795726520049|-0.02855158230597967|-0.8500959619067002|-0.7566266059875488|0.4245742559432983|-0.179582491517067|-0.0680442750453949|0.01363980770111084|-0.07847201824188232|XArbitraryZVertical|-0.05671928482873684|0.4086096511769844|-0.9051497835970214|0.1025917400073724|-0.01883894577622414|0.7513437271118164|-0.6596421599388123|0|0|0|-1|-1|3
2021-04-22 21:47:40.954 +0100|140285.268839625|-0.0550079345703125|0.71636962890625|-0.6348419189453125|140285.248879625|-2.935199691382987|-0.02540267892130204|-0.8643610424334647|-0.9044076204299927|0.3179343640804291|-0.2597766518592834|-0.03082939237356186|0.03247064352035522|0.007726669311523438|XArbitraryZVertical|-0.05461572455384328|0.4154017629973147|-0.9026030118583305|0.09882584226112126|-0.01648777723312378|0.7606806755065918|-0.648917019367218|0|0|0|-1|-1|3
2021-04-22 21:47:40.974 +0100|140285.288800625|-0.1097564697265625|0.981903076171875|-0.6180267333984375|140285.268839625|-2.941068416249532|-0.02406301539417482|-0.885006208365049|-1.308651804924011|0.2613800168037415|0.06346975266933441|-0.03841229528188705|-0.06063210964202881|-0.05616927146911621|XArbitraryZVertical|-0.05367533173104928|0.4249331932132329|-0.8985637314517902|0.09557283629068405|-0.01523727178573608|0.7739189267158508|-0.6331014633178711|0|0|0|-1|-1|3
2021-04-22 21:47:40.994 +0100|140285.308761625|-0.0775909423828125|1.028823852539062|-0.547698974609375|140285.288800625|-2.941833093659596|-0.01853146494848192|-0.9121209284467423|-1.433592200279236|0.3628031313419342|-0.03448894992470741|-0.1020152941346169|0.1620613932609558|-0.007985234260559082|XArbitraryZVertical|-0.05219068266490134|0.4373713146800958|-0.8928749289362206|0.09357906699529572|-0.01134190522134304|0.7908036708831787|-0.6119649410247803|0|0|0|-1|-1|3
2021-04-22 21:47:41.014 +0100|140285.328722625|-0.0576171875|1.026779174804688|-0.5188140869140625|140285.308761625|-2.941755497285155|-0.01198786772909254|-0.9404568805112015|-1.288408398628235|0.3310596942901611|0.07978472113609314|-0.06936521828174591|0.2271451354026794|0.03203344345092773|XArbitraryZVertical|-0.05051270041458197|0.4502888998794051|-0.8867316999586902|0.09162641636854779|-0.007065708748996258|0.8078274726867676|-0.5893767476081848|0|0|0|-1|-1|3
2021-04-22 21:47:41.034 +0100|140285.348683625|-0.005096435546875|0.936859130859375|-0.4813690185546875|140285.328722625|-2.939670323702236|-0.003006185383414282|-0.9587886987464502|-0.5271378755569458|0.3727522194385529|0.04529207572340965|-0.06811203807592392|0.2111662626266479|0.04211413860321045|XArbitraryZVertical|-0.04781525837029695|0.4587581788562706|-0.8826853515520455|0.0901178153654569|-0.001727086608298123|0.8184962868690491|-0.5745092630386353|0|0|0|-1|-1|3
2021-04-22 21:47:41.054 +0100|140285.368644625|-0.030364990234375|0.9762725830078125|-0.4657440185546875|140285.348683625|-2.940796810482951|0.002241023861175935|-0.9613695266411031|0.1856602281332016|0.2195073366165161|-0.05677028372883797|-0.02264469861984253|0.1334688067436218|0.09627550840377808|XArbitraryZVertical|-0.04535614209933503|0.460157207706377|-0.8822651131445832|0.08835571658924816|0.001282755983993411|0.819976270198822|-0.5723963379859924|0|0|0|-1|-1|3
2021-04-22 21:47:41.075 +0100|140285.388605625|-0.0179901123046875|1.0238037109375|-0.4493865966796875|140285.368644625|-2.941835325537105|0.00389530125155614|-0.9538136628174325|0.669284999370575|0.08382753282785416|-0.004960618447512388|-0.01908380538225174|0.1313472986221313|0.1113170385360718|XArbitraryZVertical|-0.04404966035272252|0.4569172725151489|-0.8840789530099075|0.08769692621020569|0.002253725426271558|0.8156279325485229|-0.5785724520683289|0|0|0|-1|-1|3
2021-04-22 21:47:41.101 +0100|140285.408566625|0.0470428466796875|0.9372711181640625|-0.390380859375|140285.388605625|-2.94103749394393|0.005981838721139424|-0.9342845500531998|1.30591356754303|0.03391734138131142|0.04227444902062416|-0.03388965874910355|0.2462252974510193|0.1347727179527283|XArbitraryZVertical|-0.04242577748758471|0.448339507174725|-0.8885045869563446|0.08804326081422237|0.003555548610165715|0.80417400598526|-0.5943834781646729|0|0|0|-1|-1|3
2021-04-22 21:47:41.114 +0100|140285.428527625|0.052886962890625|0.9853057861328125|-0.3924560546875|140285.408566625|-2.939528015728534|0.006633693997209957|-0.9058981116779893|1.538248538970947|-0.1049196422100067|0.05164753645658493|0.03423761576414108|0.1676402688026428|0.2236847877502441|XArbitraryZVertical|-0.04117109278329407|0.4356858485066618|-0.8947168519033342|0.08924522349900445|0.004092820920050144|0.786979615688324|-0.6169655919075012|0|0|0|-1|-1|3
2021-04-22 21:47:41.133 +0100|140285.448488625|0.044586181640625|0.930145263671875|-0.3725433349609375|140285.428527625|-2.937706147629148|0.004233536331193991|-0.8744877845820486|1.599539399147034|-0.2735376358032227|0.04880514368414879|0.05684006959199905|0.2061730623245239|0.2451585531234741|XArbitraryZVertical|-0.04118479440135137|0.4214400055650209|-0.9013081855419178|0.09130092473188518|0.002715339884161949|0.7672150731086731|-0.6413842439651489|0|0|0|-1|-1|3
2021-04-22 21:47:41.153 +0100|140285.468449625|0.0443267822265625|0.850555419921875|-0.4275054931640625|140285.448488625|-2.937410864735093|-0.002638419292252712|-0.8401962314350164|1.748259544372559|-0.4256797432899475|0.03176934272050858|0.04476027935743332|0.1901007890701294|0.2832805514335632|XArbitraryZVertical|-0.04276368342996618|0.4056033139222995|-0.9082393801154774|0.09358733111956907|-0.001760659390129149|0.7447741031646729|-0.6673144102096558|0|0|0|-1|-1|3
2021-04-22 21:47:41.173 +0100|140285.488410625|0.029296875|0.740081787109375|-0.490386962890625|140285.468449625|-2.938624105807864|-0.01289844369802365|-0.8054716176635517|1.657909512519836|-0.5123413801193237|-0.1083328127861023|0.04607566446065903|0.1532315611839294|0.2706548571586609|XArbitraryZVertical|-0.04560902087561567|0.3893108906382193|-0.9149837768725696|0.09571733802109075|-0.008935424499213696|0.721157431602478|-0.6927136778831482|0|0|0|-1|-1|3
2021-04-22 21:47:41.193 +0100|140285.508371625|-0.0120697021484375|0.7358245849609375|-0.5403289794921875|140285.488410625|-2.941439144198184|-0.02528274260416168|-0.7783981984014982|1.070651054382324|-0.5140515565872192|-0.1347200274467468|0.05511010438203812|0.0658954381942749|0.2545355558395386|XArbitraryZVertical|-0.04954462904389956|0.3763502577894525|-0.9200312436006434|0.09720310555252597|-0.01800038479268551|0.7021397948265076|-0.7118116021156311|0|0|0|-1|-1|3
2021-04-22 21:47:41.213 +0100|140285.528332625|-0.047027587890625|0.7931671142578125|-0.6082611083984375|140285.508371625|-2.944577929649096|-0.03762174779972629|-0.7637178310755638|0.3568775355815887|-0.4942452609539032|-0.1605512797832489|0.02521385252475739|0.03682714700698853|0.1987172365188599|XArbitraryZVertical|-0.05401291082290299|0.3690572432345954|-0.9226221761595953|0.09822375430432365|-0.02716664224863052|0.6916114687919617|-0.7217587232589722|0|0|0|-1|-1|3
2021-04-22 21:47:41.233 +0100|140285.548293625|-0.058380126953125|0.8919525146484375|-0.6276397705078125|140285.528332625|-2.949431692584014|-0.04978368461715273|-0.7645102706783914|-0.4019986689090729|-0.3671143054962158|-0.1802410930395126|-0.003986291587352753|0.07786571979522705|0.1294875144958496|XArbitraryZVertical|-0.05875954392617318|0.3689629466429005|-0.9223698709885905|0.09822253269269481|-0.03591511398553848|0.6921836137771606|-0.7208273410797119|0|0|0|-1|-1|3
2021-04-22 21:47:41.253 +0100|140285.568254625|-0.0695953369140625|0.873992919921875|-0.5791168212890625|140285.548293625|-2.955941846239879|-0.05989854361426896|-0.7764331017555884|-0.7225993275642395|-0.2072628438472748|-0.2177860587835312|-0.01152228564023972|0.1760454177856445|0.09505677223205566|XArbitraryZVertical|-0.06266894200929629|0.3741704712100073|-0.92013686876996|0.09704251086784224|-0.04270712286233902|0.7007392048835754|-0.7121381163597107|0|0|0|-1|-1|3
2021-04-22 21:47:41.273 +0100|140285.588216625|-0.090606689453125|0.856353759765625|-0.5738067626953125|140285.568254625|-2.963944992696144|-0.06845033182305565|-0.7912855146888707|-0.7956972718238831|-0.06811400502920151|-0.2387810945510864|-0.01884638518095016|0.1791685223579407|0.1120208501815796|XArbitraryZVertical|-0.06561840563306864|0.3808562398906567|-0.9174033248983665|0.09494231859060903|-0.04807833954691887|0.7112575173377991|-0.7012854814529419|0|0|0|-1|-1|3
2021-04-22 21:47:41.293 +0100|140285.608177625|-0.07269287109375|0.832611083984375|-0.61138916015625|140285.588216625|-2.971833724807531|-0.07331599673999112|-0.8053742323225811|-0.5987547039985657|0.1419296562671661|-0.2374048680067062|-0.03909254819154739|0.1289460062980652|0.114685595035553|XArbitraryZVertical|-0.06679815867890748|0.3873601293917511|-0.9148657718556141|0.09225501019664241|-0.05075087398290634|0.7210899591445923|-0.6909802556037903|0|0|0|-1|-1|3
2021-04-22 21:47:41.313 +0100|140285.628138625|-0.078125|0.752288818359375|-0.6157379150390625|140285.608177625|-2.980652641824898|-0.07529374192654635|-0.8117492637090267|-0.1530386656522751|0.2761941850185394|-0.3259481489658356|-0.02943643182516098|0.1135727763175964|0.07670652866363525|XArbitraryZVertical|-0.06618287400267873|0.3904862575544898|-0.913941136919582|0.08861259068103414|-0.05177050456404686|0.7254921793937683|-0.6862806081771851|0|0|0|-1|-1|3
2021-04-22 21:47:41.333 +0100|140285.648099625|-0.1297454833984375|0.76092529296875|-0.598297119140625|140285.628138625|-2.990625481059799|-0.0763213223248233|-0.8139715528501331|-0.2517567574977875|0.3385193347930908|-0.3279549181461334|-0.01818840950727463|0.04139691591262817|0.06762790679931641|XArbitraryZVertical|-0.06476491731242262|0.3917864423570717|-0.9138978289105318|0.08426071390208185|-0.05235262215137482|0.7270198464393616|-0.6846177577972412|0|0|0|-1|-1|3
2021-04-22 21:47:41.353 +0100|140285.668060625|-0.109375|0.900054931640625|-0.4707794189453125|140285.648099625|-3.001346632403968|-0.07617452386037363|-0.8278005579548294|-0.8957233428955078|0.4923207461833954|-0.2743975222110748|-0.06874161213636398|0.0104718804359436|0.06972217559814453|XArbitraryZVertical|-0.06293579260798907|0.3984612173376123|-0.9115738212833516|0.0793793788867497|-0.05148203298449516|0.7364452481269836|-0.6745355129241943|0|0|0|-1|-1|3
2021-04-22 21:47:41.373 +0100|140285.688021625|-0.08001708984375|0.944915771484375|-0.48187255859375|140285.668060625|-3.01040902041024|-0.07260706106115392|-0.848470342691916|-0.8706549406051636|0.5827910304069519|-0.1792611330747604|-0.072308748960495|0.095447838306427|0.1640276908874512|XArbitraryZVertical|-0.05996898839879328|0.4082999489019685|-0.9078157249695764|0.07460314533820467|-0.04796066135168076|0.7502699494361877|-0.6593897342681885|0|0|0|-1|-1|3
2021-04-22 21:47:41.393 +0100|140285.707982625|-0.0956878662109375|0.842926025390625|-0.52734375|140285.688021625|-3.019021629949596|-0.0686130333780262|-0.8652304804406925|-0.7110171318054199|0.4930924773216248|-0.2014107257127762|-0.03940369561314583|0.1961978673934937|0.1613272428512573|XArbitraryZVertical|-0.05674391899650489|0.4163059911412092|-0.9047541061382346|0.06992495958177605|-0.04445822909474373|0.7612447142601013|-0.6469389200210571|0|0|0|-1|-1|3
2021-04-22 21:47:41.413 +0100|140285.727943625|-0.115234375|0.987060546875|-0.556365966796875|140285.707982625|-3.027749883515415|-0.06609132120618057|-0.880808836574088|-0.8767760396003723|0.4970037341117859|-0.1988972425460815|-0.05114669725298882|0.08966159820556641|0.1265159845352173|XArbitraryZVertical|-0.0540781228501825|0.4236821503321113|-0.9018200959039502|0.06549619894709732|-0.04203833639621735|0.7712540030479431|-0.6351379752159119|0|0|0|-1|-1|3
2021-04-22 21:47:41.433 +0100|140285.747904625|-0.10931396484375|1.157379150390625|-0.6811676025390625|140285.727943625|-3.031705682077845|-0.06008457944615594|-0.897869911563033|-0.85947585105896|0.5440787076950073|0.07524864375591278|-0.05728408694267273|0.1120565533638|0.07997637987136841|XArbitraryZVertical|-0.05084355448301371|0.4316696852065288|-0.8984285930884458|0.06246881718601217|-0.03742681816220284|0.7820010781288147|-0.6221524477005005|0|0|0|-1|-1|3
2021-04-22 21:47:41.453 +0100|140285.767865625|-0.088287353515625|1.01708984375|-0.7180023193359375|140285.767865625|-3.033014505890636|-0.03581562442932384|-0.89933058120534|0.7847254872322083|0.6032974720001221|-0.1169297695159912|-0.07284550368785858|0.3094655871391296|-0.09786999225616455|XArbitraryZVertical|-0.03968516381708711|0.4330790452735505|-0.8986993083293354|0.05663249737630482|-0.02227736264467239|0.7829106450080872|-0.6217352747917175|0|0|0|-1|-1|3
2021-04-22 21:47:41.473 +0100|140285.787826625|-0.099609375|0.9418487548828125|-0.486328125||||||||||||||||||||||||3
2021-04-22 21:47:41.493 +0100|140285.807787625|-0.1371002197265625|0.8242950439453125|-0.4390106201171875|140285.807787625|-3.033401115839728|-0.01859211003388183|-0.865971399174068|0.8023551106452942|0.3009841740131378|-0.1845202594995499|-0.1220181360840797|0.1160820126533508|0.2129276394844055|XArbitraryZVertical|-0.03111133102153247|0.4184946955693203|-0.906139221841439|0.05297229706738903|-0.01204514410346746|0.7617250084877014|-0.6477885246276855|0|0|0|-1|-1|3
2021-04-22 21:47:41.513 +0100|140285.827748625|-0.1573028564453125|0.708770751953125|-0.4634246826171875||||||||||||||||||||||||3
2021-04-22 21:47:41.534 +0100|140285.847709625|-0.1631317138671875|0.8355255126953125|-0.5370025634765625|140285.827748625|-3.039063758039848|-0.01845059760911643|-0.8549284717083943|0.2692913413047791|0.1760064214468002|-0.2220044285058975|-0.1438669562339783|-0.03789550065994263|0.1944291591644287|XArbitraryZVertical|-0.02962627001707779|0.4135720651936465|-0.9085898532900871|0.05044867165745027|-0.01210793387144804|0.7545239925384521|-0.6561608910560608|0|0|0|-1|-1|3
2021-04-22 21:47:41.553 +0100|140285.867670625|-0.114105224609375|0.8393402099609375|-0.4904327392578125|140285.847709625|-3.047952716424509|-0.02209163698807952|-0.8495768363848516|0.3369772136211395|0.1201030984520912|-0.3283356726169586|-0.1531687378883362|0.04494261741638184|0.1276227235794067|XArbitraryZVertical|-0.0293404940362527|0.4111802258534883|-0.9098589575486707|0.04718791897236957|-0.01458594389259815|0.7510010600090027|-0.6601399183273315|0|0|0|-1|-1|3
2021-04-22 21:47:41.573 +0100|140285.887631625|-0.0319671630859375|0.7919464111328125|-0.5983734130859375|140285.887631625|-3.068739645008056|-0.03475890369676449|-0.8302925930492404|0.5335079431533813|-0.01421061344444752|-0.3035117387771606|-0.02431383356451988|0.06375056505203247|0.0957452654838562|XArbitraryZVertical|-0.0305780538869391|0.4024161429150953|-0.9140571607376079|0.04032449922173981|-0.02344571985304356|0.7381287813186646|-0.674252450466156|0|0|0|-1|-1|3
2021-04-22 21:47:41.593 +0100|140285.907592625|0.0305633544921875|0.7489471435546875|-0.5880279541015625|140285.907592625|-3.076819686280067|-0.04160239216874041|-0.8193365929641607|0.6286351680755615|-0.06590725481510162|-0.2868016958236694|0.03822113946080208|0.03746432065963745|0.08506882190704346|XArbitraryZVertical|-0.03196323431756041|0.3973922783272298|-0.9163054913990029|0.03797526798403459|-0.02839401736855507|0.7306931018829346|-0.6821154356002808|0|0|0|-1|-1|3
2021-04-22 21:47:41.612 +0100|140285.927553625|0.10943603515625|0.76824951171875|-0.681396484375|140285.927553625|-3.084641658514239|-0.05192946010637058|-0.8062415466217017|0.986622154712677|-0.2120993584394455|-0.1092280820012093|0.1324425488710403|0.02074044942855835|0.04263091087341309|XArbitraryZVertical|-0.03503646549697022|0.3913196668218668|-0.9188685800042002|0.03636103036836191|-0.03593024238944054|0.7216905951499939|-0.6912827491760254|0|0|0|-1|-1|3
2021-04-22 21:47:41.633 +0100|140285.947514625|0.1400146484375|0.8372955322265625|-0.703887939453125|140285.947514625|-3.088387877736411|-0.0614050542949743|-0.7885845205356301|0.902534544467926|-0.3548091650009155|-0.197968065738678|0.182170644402504|0.1324552297592163|0.01231318712234497|XArbitraryZVertical|-0.03854561507714102|0.3830840529887796|-0.9221933844693582|0.03633518112152054|-0.04325416684150696|0.7093563079833984|-0.7035216689109802|0|0|0|-1|-1|3
2021-04-22 21:47:41.653 +0100|140285.967476625|0.119842529296875|0.6413726806640625|-0.8226165771484375||||||||||||||||||||||||3
2021-04-22 21:47:41.672 +0100|140285.987437625|0.0911865234375|0.4231414794921875|-0.813262939453125|140285.967476625|-3.093597385038811|-0.07280918984041727|-0.7749090594635853|0.4186576008796692|-0.4008746743202209|-0.2756452858448029|0.1807597279548645|0.008127212524414062|-0.09050953388214111|XArbitraryZVertical|-0.04274913060155599|0.376665175973379|-0.924664002709766|0.03594978405575915|-0.05197510123252869|0.6996511220932007|-0.7125917077064514|0|0|0|-1|-1|3
2021-04-22 21:47:41.692 +0100|140286.007398625|0.069366455078125|0.447235107421875|-0.8515472412109375|140285.987437625|-3.101204676136327|-0.08613927397784145|-0.7722302919168786|-0.1844084709882736|-0.3908631503582001|-0.27980637550354|0.1637881845235825|-0.2360195517539978|-0.09954798221588135|XArbitraryZVertical|-0.04747567155709709|0.3753609948109718|-0.9250040085774752|0.03490004953316187|-0.06163013726472855|0.6977346539497375|-0.7137003540992737|0|0|0|-1|-1|3
2021-04-22 21:47:41.712 +0100|140286.027359625|0.0865020751953125|0.60601806640625|-0.941314697265625|140286.007398625|-3.109919270085859|-0.09965288277810719|-0.781057389080598|-0.7144013047218323|-0.3390412330627441|-0.2554389834403992|0.1426142752170563|-0.2798981070518494|-0.1371807456016541|XArbitraryZVertical|-0.05207100011877364|0.379427851837142|-0.923144312563017|0.0335831000308875|-0.07065337151288986|0.7040307521820068|-0.706646203994751|0|0|0|-1|-1|3
2021-04-22 21:47:41.732 +0100|140286.047320625|0.1116485595703125|0.66717529296875|-1.020187377929688|140286.027359625|-3.117575473726529|-0.1109847746250894|-0.7963559825901215|-0.8252981901168823|-0.279196560382843|-0.1162025406956673|0.1568766534328461|-0.1497954130172729|-0.2208653092384338|XArbitraryZVertical|-0.05577014558053039|0.3865007679376563|-0.9200256427521403|0.03255583591044785|-0.07745421677827835|0.7148125171661377|-0.695013701915741|0|0|0|-1|-1|3
2021-04-22 21:47:41.752 +0100|140286.067281625|0.1241302490234375|0.6113739013671875|-1.064697265625|140286.047320625|-3.122172709170219|-0.1195088423638769|-0.811697523604462|-0.7100933194160461|-0.2327608019113541|-0.01753908209502697|0.1853609085083008|-0.06195926666259766|-0.3168707489967346|XArbitraryZVertical|-0.05869175571968964|0.3935427341797508|-0.916855753942911|0.03248096405026582|-0.08205845206975937|0.7254565954208374|-0.6833587884902954|0|0|0|-1|-1|3
2021-04-22 21:47:41.772 +0100|140286.087242625|0.1125640869140625|0.5317230224609375|-1.03759765625|140286.067281625|-3.123323227245344|-0.1245069046657533|-0.8253462162540414|-0.6268002390861511|-0.1891242563724518|0.1107112988829613|0.2093120664358139|-0.1001091599464417|-0.3908525705337524|XArbitraryZVertical|-0.06064460681818908|0.3997452468258259|-0.9140115269854797|0.03330171443213223|-0.08423533290624619|0.7347826361656189|-0.6730519533157349|0|0|0|-1|-1|3
2021-04-22 21:47:41.792 +0100|140286.107203625|0.0764923095703125|0.548553466796875|-1.018402099609375|140286.087242625|-3.12141567452428|-0.1265609962495626|-0.836321934691719|-0.464552640914917|-0.157648041844368|0.1652482151985168|0.2013857662677765|-0.1946526169776917|-0.3744400143623352|XArbitraryZVertical|-0.06187502129614147|0.4046641570203884|-0.9117027131761379|0.03487915614823564|-0.08459456264972687|0.7421830892562866|-0.6648368239402771|0|0|0|-1|-1|3
2021-04-22 21:47:41.812 +0100|140286.127164625|0.056488037109375|0.57122802734375|-1.001876831054688|140286.107203625|-3.116068034286161|-0.1254648582875625|-0.8449958887108233|-0.3292000591754913|-0.1269237995147705|0.2968124449253082|0.1690102219581604|-0.2151777744293213|-0.367942214012146|XArbitraryZVertical|-0.06239664825703948|0.408470351026539|-0.9098714344140564|0.03732071432742997|-0.08305704593658447|0.7479683756828308|-0.6585172414779663|0|0|0|-1|-1|3
2021-04-22 21:47:41.832 +0100|140286.147125625|0.064910888671875|0.4667816162109375|-0.9427490234375|140286.127164625|-3.106450557027679|-0.120325400000056|-0.8493984988574798|-0.01479769125580788|-0.0855691060423851|0.3860194683074951|0.139944851398468|-0.1703479290008545|-0.3521076440811157|XArbitraryZVertical|-0.06200310430373396|0.4102751570741496|-0.9089386158364609|0.04075136181142504|-0.07927548885345459|0.7508832812309265|-0.6556597948074341|0|0|0|-1|-1|3
2021-04-22 21:47:41.852 +0100|140286.167086625|0.0727386474609375|0.3788909912109375|-0.8872222900390625|140286.147125625|-3.093384419310967|-0.1118980968302814|-0.8482122666503584|0.1483535617589951|-0.06318438798189163|0.4461485147476196|0.1361487507820129|-0.2565085291862488|-0.3075178861618042|XArbitraryZVertical|-0.0608534557299866|0.4095145928477892|-0.909161992239009|0.04493684961657637|-0.07384670525789261|0.7500993609428406|-0.6571893095970154|0|0|0|-1|-1|3
2021-04-22 21:47:41.872 +0100|140286.187047625|0.1048583984375|0.3857879638671875|-0.826873779296875|140286.167086625|-3.07891280033486|-0.1021579019029158|-0.846556174548772|0.1017718464136124|-0.04261860623955727|0.4882137775421143|0.1366151720285416|-0.3600723743438721|-0.234534740447998|XArbitraryZVertical|-0.05938201661351959|0.4085556108154622|-0.9094539662476784|0.04949348954248541|-0.06756873428821564|0.7490031123161316|-0.6591121554374695|0|0|0|-1|-1|3
2021-04-22 21:47:41.892 +0100|140286.207008625|0.11785888671875|0.4370880126953125|-0.8368377685546875|140286.187047625|-3.063270135210118|-0.09142784078127024|-0.8446012350059254|0.209418997168541|-0.05352094769477844|0.5108373165130615|0.1587864458560944|-0.3758502006530762|-0.1730493307113647|XArbitraryZVertical|-0.05768116467555456|0.4074859174693264|-0.909763755375206|0.05438987639040203|-0.06062624976038933|0.7477063536643982|-0.6612561941146851|0|0|0|-1|-1|3
2021-04-22 21:47:41.912 +0100|140286.226969625|0.09356689453125|0.4531402587890625|-0.8505401611328125|140286.207008625|-3.047530993836922|-0.0813383646386361|-0.8412562077124199|0.2329120934009552|-0.1080312803387642|0.5022881031036377|0.1764845550060272|-0.3136883974075317|-0.1651147603988647|XArbitraryZVertical|-0.05625421404408389|0.405800234441247|-0.9102888328550791|0.05946363934721919|-0.05415444821119308|0.745481014251709|-0.6643232703208923|0|0|0|-1|-1|3
2021-04-22 21:47:41.932 +0100|140286.246930625|0.0879058837890625|0.4461517333984375|-0.800994873046875|140286.226969625|-3.031193761998408|-0.07033208381250157|-0.8332228818963692|0.2221183329820633|-0.08801538497209549|0.4695708453655243|0.1454648822546005|-0.2905334830284119|-0.1872014999389648|XArbitraryZVertical|-0.05441461714084032|0.402024015254852|-0.9117232360152374|0.06462700524480212|-0.04725892469286919|0.7401025891304016|-0.6708315014839172|0|0|0|-1|-1|3
2021-04-22 21:47:41.952 +0100|140286.2668926667|0.082794189453125|0.4708251953125|-0.7111968994140625|140286.246930625|-3.014213682963628|-0.05714172160761284|-0.823082825442508|0.04949456453323364|-0.03640054911375046|0.4768486320972443|0.1269835829734802|-0.2882692813873291|-0.1427865028381348|XArbitraryZVertical|-0.05157831680323782|0.3973821470106393|-0.9135465603135853|0.06971276245079151|-0.03883317485451698|0.7332454919815063|-0.67885422706604|0|0|0|-1|-1|3
2021-04-22 21:47:41.972 +0100|140286.2868536667|0.0839080810546875|0.5493621826171875|-0.6707305908203125|140286.2668926667|-2.997226822020796|-0.04348640489835288|-0.8149293287558873|-0.008714215829968452|-0.03922483325004578|0.4888790249824524|0.1142918318510056|-0.2759259939193726|-0.04770040512084961|XArbitraryZVertical|-0.04848276267846186|0.3937177704358952|-0.9148999620536775|0.07479337753937647|-0.02981879189610481|0.7276771068572998|-0.6852715015411377|0|0|0|-1|-1|3
2021-04-22 21:47:41.992 +0100|140286.3068146667|0.07513427734375|0.6475830078125|-0.7079925537109375|140286.2868536667|-2.980212567669021|-0.02999996422717797|-0.8080552210018643|0.09088166803121567|-0.08126991242170334|0.4738894104957581|0.1015807315707207|-0.1961663365364075|0.01585054397583008|XArbitraryZVertical|-0.04543015495441843|0.39069000061848|-0.9159150460404737|0.07998193772941209|-0.02072403766214848|0.7229448556900024|-0.6905948519706726|0|0|0|-1|-1|3
2021-04-22 21:47:42.012 +0100|140286.3267766667|0.047027587890625|0.649810791015625|-0.7545623779296875|140286.3068146667|-2.965909530901541|-0.02150082529502523|-0.8040888280381761|0.2522837221622467|-0.07645374536514282|0.4660058319568634|0.10115846991539|-0.09614545106887817|0.02304399013519287|XArbitraryZVertical|-0.04418115571856964|0.3889014068398784|-0.9162928430680652|0.0849191099524977|-0.01491543091833591|0.7201988101005554|-0.6936074495315552|0|0|0|-1|-1|3
2021-04-22 21:47:42.032 +0100|140286.3467376667|0.0213775634765625|0.789947509765625|-0.7367095947265625|140286.3267766667|-2.952493578563827|-0.01330679701597166|-0.7974345834893084|0.4002413749694824|-0.04852145165205002|0.5034031867980957|0.06024457514286041|-0.08766782283782959|-0.06985878944396973|XArbitraryZVertical|-0.04275618762519059|0.3859150310667883|-0.9171796090366185|0.08957293869161925|-0.009295119903981686|0.7155663967132568|-0.6984829902648926|0|0|0|-1|-1|3
2021-04-22 21:47:42.052 +0100|140286.3666986667|-0.0157928466796875|0.8025970458984375|-0.687896728515625|140286.3467376667|-2.938493928252251|-0.00392862851067915|-0.7878069080573766|0.563260555267334|-0.03709744662046432|0.4582663476467133|0.02834533154964447|0.05403929948806763|-0.0334809422492981|XArbitraryZVertical|-0.04071173826063848|0.3816339943772129|-0.9185826670867243|0.09436127521478298|-0.002771253464743495|0.7088079452514648|-0.7053961157798767|0|0|0|-1|-1|3
2021-04-22 21:47:42.072 +0100|140286.3866596667|-0.02777099609375|0.8552398681640625|-0.682220458984375|140286.3666986667|-2.926138200795979|0.003690738695642377|-0.7764743857613797|0.5053886771202087|-0.04936401918530464|0.4061814546585083|-0.006523571908473969|0.107763409614563|0.02180898189544678|XArbitraryZVertical|-0.03900390896811862|0.376545874391707|-0.9202859001670115|0.09882251427781315|0.002632925054058433|0.7007686495780945|-0.7133837938308716|0|0|0|-1|-1|3
2021-04-22 21:47:42.094 +0100|140286.4066206667|-0.0792236328125|0.876739501953125|-0.6348114013671875|140286.3866596667|-2.914822192973382|0.01068415372378371|-0.7675078516534691|0.4182904660701752|-0.06777876615524292|0.3518390357494354|-0.03021027147769928|0.1294010877609253|0.03042316436767578|XArbitraryZVertical|-0.03743868629552737|0.3725549543577397|-0.921524760924341|0.1029243956435364|0.007688634097576141|0.6943439245223999|-0.7196022868156433|0|0|0|-1|-1|3
2021-04-22 21:47:42.111 +0100|140286.4265816667|-0.12249755859375|0.775238037109375|-0.61669921875|140286.4066206667|-2.90716297558392|0.01416051429123859|-0.759131305136904|0.402707576751709|-0.1023740246891975|0.2095034867525101|-0.0700862929224968|0.1997845768928528|0.07761001586914062|XArbitraryZVertical|-0.0367984970586455|0.3687344264674881|-0.9227361041820822|0.1060150310582204|0.01027217973023653|0.6882915496826172|-0.7253615856170654|0|0|0|-1|-1|3
2021-04-22 21:47:42.132 +0100|140286.4465426667|-0.1189727783203125|0.7477264404296875|-0.58209228515625|140286.4265816667|-2.903782727434877|0.01499813642691917|-0.752121532602766|0.2552841305732727|-0.03813235089182854|0.0857849046587944|-0.1276507377624512|0.1144477128982544|0.1054940223693848|XArbitraryZVertical|-0.03663920469383984|0.3654833227833099|-0.9238519306865841|0.1075975849826306|0.01095184590667486|0.6831895112991333|-0.7301590442657471|0|0|0|-1|-1|3
2021-04-22 21:47:42.152 +0100|140286.4665036667|-0.0691680908203125|0.746826171875|-0.5662841796875|140286.4665036667|-2.903924734162647|0.01639184814699556|-0.7525844377197485|-0.1009678244590759|0.1228482276201248|-0.05767682567238808|-0.09330855309963226|0.06016999483108521|0.1601697206497192|XArbitraryZVertical|-0.03599566249412487|0.3657744146187416|-0.9238006770545352|0.1072654523781294|0.0119642810896039|0.6835274696350098|-0.729826807975769|0|0|0|-1|-1|3
2021-04-22 21:47:42.172 +0100|140286.4864646667|-0.038665771484375|0.7377471923828125|-0.527740478515625||||||||||||||||||||||||3
2021-04-22 21:47:42.191 +0100|140286.5064256667|-0.01239013671875|0.7548980712890625|-0.4863433837890625|140286.4864646667|-2.906892765327778|0.01612467600146933|-0.759881796210533|-0.2842115163803101|0.1258949339389801|-0.09140007942914963|-0.05558775365352631|0.05252707004547119|0.1802669167518616|XArbitraryZVertical|-0.03598402292640516|0.3691795102211348|-0.9226196416329268|0.1057584238617243|0.01168855372816324|0.6888357400894165|-0.7248232960700989|0|0|0|-1|-1|3
2021-04-22 21:47:42.218 +0100|140286.5263866667|0.02996826171875|0.8009490966796875|-0.48974609375|140286.5064256667|-2.912232779413284|0.01371451247454542|-0.7703601732938261|-0.4313851892948151|0.1669669598340988|-0.1577156335115433|-0.03179910778999329|0.04731893539428711|0.2277083992958069|XArbitraryZVertical|-0.03667981286087003|0.3739763909993602|-0.92091684280729|0.1034826865245308|0.009842048399150372|0.6963937878608704|-0.7175924777984619|0|0|0|-1|-1|3
2021-04-22 21:47:42.250 +0100|140286.5463476667|0.042633056640625|0.859832763671875|-0.506134033203125|140286.5263866667|-2.920296607400088|0.009188835217137856|-0.7813439910905334|-0.3900681138038635|0.1261791437864304|-0.2290531098842621|0.01287057995796204|0.08542269468307495|0.2191838622093201|XArbitraryZVertical|-0.03782724133732968|0.3789462062061705|-0.919182410412845|0.1003624697417532|0.006523684598505497|0.70423424243927|-0.7099377512931824|0|0|0|-1|-1|3
2021-04-22 21:47:42.253 +0100|140286.5663086667|0.02813720703125|0.916046142578125|-0.523223876953125|140286.5463476667|-2.930074917319772|0.002824548513239364|-0.7908881081984415|-0.2806855738162994|0.08284334093332291|-0.327153205871582|0.04153215885162354|0.1341445446014404|0.201623797416687|XArbitraryZVertical|-0.0393682811788759|0.3832028441642454|-0.9177261597859694|0.09687410237157433|0.001986260060220957|0.710978090763092|-0.7032114267349243|0|0|0|-1|-1|3
2021-04-22 21:47:42.273 +0100|140286.5862696667|0.0186767578125|0.9517974853515625|-0.524261474609375|140286.5663086667|-2.942103738318726|-0.004862503093976285|-0.7976808537167644|-0.1183972060680389|0.089646115899086|-0.4184697270393372|0.0334559753537178|0.1912128925323486|0.17548668384552|XArbitraryZVertical|-0.0409007466102729|0.3861955060210387|-0.9168350930110181|0.09270262412206311|-0.003395806066691875|0.7157384157180786|-0.6983603239059448|0|0|0|-1|-1|3
2021-04-22 21:47:42.291 +0100|140286.6062306667|0.0009002685546875|0.947998046875|-0.5223541259765625|140286.5862696667|-2.955000953317775|-0.01251263713757713|-0.8016170130230847|0.07059891521930695|0.1062658876180649|-0.443202406167984|0.02986718714237213|0.2206350564956665|0.1749523878097534|XArbitraryZVertical|-0.04208247727345954|0.3879218438992709|-0.9164963284835196|0.08820589377015796|-0.008702886290848255|0.718481719493866|-0.6954914331436157|0|0|0|-1|-1|3
2021-04-22 21:47:42.313 +0100|140286.6261916667|-0.0383148193359375|0.9354248046875|-0.541015625|140286.6062306667|-2.967692070499328|-0.01961582448078873|-0.8029944405586265|0.2019620835781097|0.0781153216958046|-0.4645054638385773|0.01966625452041626|0.2344176173210144|0.1737150549888611|XArbitraryZVertical|-0.04292918181682637|0.3885178752443865|-0.9166225980155426|0.08374944262377178|-0.01362340524792671|0.7194390892982483|-0.6944218873977661|0|0|0|-1|-1|3
2021-04-22 21:47:42.334 +0100|140286.6461526667|-0.042144775390625|0.904296875|-0.5759735107421875|140286.6261916667|-2.979506903735456|-0.0255854514787017|-0.8029899630697956|0.2161916196346283|0.1025917455554008|-0.4551489055156708|-0.01038343086838722|0.220611572265625|0.1604257822036743|XArbitraryZVertical|-0.04337034739108238|0.3885270468728264|-0.916976970281569|0.07949325262699779|-0.01776866242289543|0.71943598985672|-0.6943314671516418|0|0|0|-1|-1|3
2021-04-22 21:47:42.351 +0100|140286.6661136667|-0.0496063232421875|0.90191650390625|-0.5746917724609375|140286.6461526667|-2.99131355412389|-0.03084019857788543|-0.8040553210960486|0.1314469575881958|0.1447653472423553|-0.4327951371669769|-0.02171240374445915|0.1874166131019592|0.1252239942550659|XArbitraryZVertical|-0.04351988514608864|0.3890694176611488|-0.9171108679270692|0.07509177978478426|-0.02139328978955746|0.720175564289093|-0.6934620141983032|0|0|0|-1|-1|3
2021-04-22 21:47:42.374 +0100|140286.6860746667|-0.0672454833984375|0.885498046875|-0.6229248046875|140286.6661136667|-3.002678909289035|-0.03566899453690525|-0.8073174089786844|0.02796600013971329|0.1470925807952881|-0.4273374378681183|-0.02081309258937836|0.1825785040855408|0.1170390844345093|XArbitraryZVertical|-0.04361612279650816|0.390638002911281|-0.9167807417206746|0.0708010213905241|-0.02465770393610001|0.722434937953949|-0.6909991502761841|0|0|0|-1|-1|3
2021-04-22 21:47:42.391 +0100|140286.7060366667|-0.0702362060546875|0.8917999267578125|-0.63623046875|140286.6860746667|-3.014432413061994|-0.04041180999700204|-0.8126032589623885|-0.0542755238711834|0.1864186227321625|-0.4168646335601807|-0.036733727902174|0.1609131097793579|0.07332479953765869|XArbitraryZVertical|-0.04362790410607062|0.3931564199255684|-0.9160383342248684|0.06632174074599065|-0.02778002806007862|0.7260796427726746|-0.6870492696762085|0|0|0|-1|-1|3
2021-04-22 21:47:42.411 +0100|140286.7259976667|-0.074371337890625|0.8670806884765625|-0.61798095703125|140286.7060366667|-3.026399054963552|-0.04501748848047077|-0.8134689855006543|-0.05641316249966621|0.2387785017490387|-0.3890964090824127|-0.03687864542007446|0.1617982387542725|0.06059849262237549|XArbitraryZVertical|-0.04340404410807269|0.3936663432454834|-0.9161498833973128|0.0617445084335733|-0.03091575019061565|0.7266746759414673|-0.6862857937812805|0|0|0|-1|-1|3
2021-04-22 21:47:42.431 +0100|140286.7459586667|-0.0643310546875|0.8087005615234375|-0.609344482421875|140286.7259976667|-3.038195043643157|-0.04873763036891959|-0.8139597582440383|-0.02341138571500778|0.2614233791828156|-0.4479176998138428|-0.03965320438146591|0.1705248951911926|0.07091045379638672|XArbitraryZVertical|-0.04279541841330765|0.3940350705710674|-0.9163230058132276|0.05707311328405694|-0.03345123678445816|0.7270117402076721|-0.685809850692749|0|0|0|-1|-1|3
2021-04-22 21:47:42.465 +0100|140286.7659196667|-0.05206298828125|0.7712860107421875|-0.605621337890625|140286.7459586667|-3.05048285137134|-0.05226462107052209|-0.8149884193392946|-0.1154504269361496|0.2838864922523499|-0.4224666059017181|-0.02732492238283157|0.08610928058624268|0.0747712254524231|XArbitraryZVertical|-0.04200634843279636|0.3946710985550276|-0.9163797254647426|0.05214056945652051|-0.0358307808637619|0.7277176380157471|-0.6849403977394104|0|0|0|-1|-1|3
2021-04-22 21:47:42.476 +0100|140286.7858806667|-0.031524658203125|0.7666473388671875|-0.60430908203125|140286.7659196667|-3.063971539610729|-0.05619762176836559|-0.8173919490043251|-0.1468773484230042|0.3039959669113159|-0.4825683832168579|-0.01859563961625099|0.04956603050231934|0.0781562328338623|XArbitraryZVertical|-0.04117564209155479|0.3959566096645997|-0.9161538090423759|0.04674808855502072|-0.03842601180076599|0.7293640971183777|-0.6830458641052246|0|0|0|-1|-1|3
2021-04-22 21:47:42.492 +0100|140286.8058416667|-0.01190185546875|0.76434326171875|-0.6177215576171875|140286.7858806667|-3.079358343283121|-0.06149358463483657|-0.8221818670112366|-0.125881627202034|0.3124626874923706|-0.5085920691490173|0.006122540682554245|0.03560101985931396|0.07577580213546753|XArbitraryZVertical|-0.04059388464196059|0.3983506138321663|-0.9154263907035035|0.04078539029566105|-0.04182765632867813|0.732632577419281|-0.6793378591537476|0|0|0|-1|-1|3
2021-04-22 21:47:42.513 +0100|140286.8258026667|0.0146026611328125|0.76025390625|-0.625457763671875|140286.8058416667|-3.095742020687562|-0.06769587740658017|-0.8262905772909486|-0.07746228575706482|0.3214734792709351|-0.5426473021507263|0.02889947593212128|0.02611219882965088|0.06486499309539795|XArbitraryZVertical|-0.04018424460970565|0.4004459954179997|-0.9147861192167454|0.03456608808663701|-0.04583627358078957|0.7354229092597961|-0.676056444644928|0|0|0|-1|-1|3
2021-04-22 21:47:42.533 +0100|140286.8457636667|0.00848388671875|0.7281341552734375|-0.6505584716796875|140286.8258026667|-3.112689509991252|-0.07468023173780464|-0.8286669251378673|-0.0660741925239563|0.2666232883930206|-0.5629055500030518|0.06092492118477821|0.02979880571365356|0.05010360479354858|XArbitraryZVertical|-0.03998271769921986|0.4017633831977635|-0.9144341570398351|0.02824638522765232|-0.05042639747262001|0.7370310425758362|-0.6739751100540161|0|0|0|-1|-1|3
2021-04-22 21:47:42.551 +0100|140286.8657246667|0.0063934326171875|0.69049072265625|-0.6563873291015625|140286.8457636667|-3.129816817989999|-0.08261725270914252|-0.8307608303448329|-0.06967189162969589|0.2244115024805069|-0.5602812767028809|0.066969133913517|-0.006679415702819824|0.02610898017883301|XArbitraryZVertical|-0.04015840779953034|0.4029642365847314|-0.9140685431239954|0.02204716523943908|-0.0556466355919838|0.7384446263313293|-0.6720142364501953|0|0|0|-1|-1|3
2021-04-22 21:47:42.570 +0100|140286.8856856667|0.02752685546875|0.6666107177734375|-0.6735992431640625|140286.8657246667|3.136539021345439|-0.09059872086760856|-0.8330537964840198|-0.1122860535979271|0.2095441371202469|-0.5736645460128784|0.06554004549980164|-0.03822243213653564|0.01655483245849609|XArbitraryZVertical|-0.04039067984013933|0.4042750296560904|-0.9136049360536883|0.01601279119736213|-0.06085510551929474|0.7399888634681702|-0.6698606014251709|0|0|0|-1|-1|3
2021-04-22 21:47:42.591 +0100|140286.9056466667|0.02691650390625|0.6915740966796875|-0.7132415771484375|140286.8856856667|3.120691509853758|-0.09806378238135706|-0.8362832979719064|-0.1829496324062347|0.155482605099678|-0.5200059413909912|0.08724179863929749|-0.07336503267288208|0.00111156702041626|XArbitraryZVertical|-0.04054874155767831|0.4060207890908996|-0.9129050489347182|0.01036241011819137|-0.06561959534883499|0.7421572208404541|-0.6670058369636536|0|0|0|-1|-1|3
2021-04-22 21:47:42.610 +0100|140286.9256076667|0.3124847412109375|0.5948028564453125|-0.77197265625|140286.9056466667|3.107230409892768|-0.1049684411434915|-0.8399284485091392|-0.1701275408267975|0.05824558436870575|-0.4439301788806915|0.1037992909550667|-0.06019341945648193|-0.0389784574508667|XArbitraryZVertical|-0.040899221913639|0.4079291758765021|-0.9120791978699518|0.00572051300976629|-0.06993953138589859|0.7445953488349915|-0.6638420820236206|0|0|0|-1|-1|3
2021-04-22 21:47:42.630 +0100|140286.9455686667|-0.0096893310546875|0.6748046875|-0.7352294921875|140286.9256076667|3.096733558730669|-0.1113470052290401|-0.8429433259297608|-0.2417337596416473|-0.7741930484771729|0.1449119597673416|-0.1461848616600037|0.007560670375823975|-0.0468752384185791|XArbitraryZVertical|-0.04160134896802389|0.4095058854107804|-0.9113556042702068|0.002325465379629068|-0.07392266392707825|0.7466044425964355|-0.6611484885215759|0|0|0|-1|-1|3
2021-04-22 21:47:42.650 +0100|140286.9655296667|-0.0178680419921875|0.6688232421875|-0.758331298828125|140286.9455686667|3.0880755202125|-0.1169650620789966|-0.8458088480110217|-0.1925605833530426|-0.1639510989189148|-0.274715393781662|-0.05153514444828033|-0.007114231586456299|-0.1191765069961548|XArbitraryZVertical|-0.0423188674314168|0.4109884488986095|-0.9106577464768296|-0.0003769504748073246|-0.07738585025072098|0.7485077381134033|-0.6585952043533325|0|0|0|-1|-1|3
2021-04-22 21:47:42.670 +0100|140286.9854906667|-0.02093505859375|0.592315673828125|-0.7823486328125|140286.9655296667|3.081314462465135|-0.1237534767082853|-0.8481804659095865|-0.1344295144081116|-0.0989776998758316|-0.174431324005127|0.04847867786884308|-0.06408941745758057|-0.09456384181976318|XArbitraryZVertical|-0.04395732546792327|0.4122160651984136|-0.9100230485113054|-0.00197851275025684|-0.08163550496101379|0.7500783205032349|-0.6562913656234741|0|0|0|-1|-1|3
2021-04-22 21:47:42.690 +0100|140287.0054516667|-0.02301025390625|0.552276611328125|-0.8107452392578125|140286.9854906667|3.075902437441564|-0.1303180808967893|-0.8505876774621357|-0.1670467555522919|-0.1394326537847519|-0.1565246731042862|0.06581017374992371|-0.1392876505851746|-0.1221441626548767|XArbitraryZVertical|-0.0457601993862659|0.4134385819721789|-0.9093765376786532|-0.002999985048719805|-0.08570712059736252|0.7516681551933289|-0.6539490818977356|0|0|0|-1|-1|3
2021-04-22 21:47:42.710 +0100|140287.0254126667|-0.0323333740234375|0.582916259765625|-0.8473663330078125|140287.0054516667|3.069221979061221|-0.1393131781708407|-0.8538193381605439|-0.2559539079666138|-0.1665196716785431|-0.1440300047397614|0.07019151002168655|-0.1980862617492676|-0.1506953835487366|XArbitraryZVertical|-0.04836884310734035|0.4150772131823534|-0.9084905959631885|-0.004050865022365796|-0.09124812483787537|0.7537956237792969|-0.6507427096366882|0|0|0|-1|-1|3
2021-04-22 21:47:42.730 +0100|140287.0453736667|-0.2669830322265625|0.6616668701171875|-0.8559417724609375|140287.0254126667|3.061385688619472|-0.1502048960444798|-0.857787933519798|-0.3159154951572418|-0.1890200823545456|-0.1315200626850128|0.06989774107933044|-0.1850326061248779|-0.1901826858520508|XArbitraryZVertical|-0.05155489558103673|0.4170951871701788|-0.9073847745619352|-0.005180593320022291|-0.09788185358047485|0.7563974857330322|-0.6467474102973938|0|0|0|-1|-1|3
2021-04-22 21:47:42.750 +0100|140287.0653346667|-0.1386260986328125|0.6505889892578125|-0.91790771484375|140287.0453736667|3.057812382082955|-0.1545690853189677|-0.8611085457854584|-0.3066233396530151|0.3326092958450317|-0.5491081476211548|0.104039840400219|-0.1699885725975037|-0.2431654930114746|XArbitraryZVertical|-0.05267309111859384|0.4187018094597005|-0.9065767859309506|-0.005746078762990142|-0.1003161892294884|0.758565366268158|-0.6438286900520325|0|0|0|-1|-1|3
2021-04-22 21:47:42.770 +0100|140287.0852966667|-0.0325164794921875|0.5365142822265625|-0.86468505859375|140287.0653346667|3.053494283544723|-0.1614221125564679|-0.8665546045453544|-0.1644772589206696|0.2732698619365692|-0.2160704731941223|0.298427402973175|-0.2379485368728638|-0.2310636043548584|XArbitraryZVertical|-0.05467465808501648|0.4212969877800358|-0.9052532121643215|-0.00601906401718537|-0.1040604487061501|0.7621027231216431|-0.6390390396118164|0|0|0|-1|-1|3
2021-04-22 21:47:42.790 +0100|140287.1052576667|-0.0160369873046875|0.5195770263671875|-0.855133056640625|140287.0852966667|3.048307084956925|-0.1673630299853985|-0.869711942572113|-0.1648537218570709|-0.1081816405057907|-0.1165909171104431|0.09735289216041565|-0.2171008586883545|-0.2486257553100586|XArbitraryZVertical|-0.0561485475295313|0.422883516561767|-0.9044160246759199|-0.006964558242328792|-0.1074536889791489|0.764143168926239|-0.6360337734222412|0|0|0|-1|-1|3
2021-04-22 21:47:42.810 +0100|140287.1252186667|0.0044708251953125|0.5112152099609375|-0.8307952880859375|140287.1052576667|3.047690849138755|-0.1680906878715979|-0.8669517277827454|-0.1389651894569397|-0.07193063199520111|-0.07238386571407318|0.09142374992370605|-0.2423102259635925|-0.2224723696708679|XArbitraryZVertical|-0.05645452273026052|0.421659379988218|-0.9049664184615812|-0.007221526573859349|-0.1082689464092255|0.7623597979545593|-0.6380324959754944|0|0|0|-1|-1|3
2021-04-22 21:47:42.830 +0100|140287.1451796667|0.0197906494140625|0.5329132080078125|-0.808380126953125|140287.1252186667|3.048713287439733|-0.1667854327962069|-0.8641832407772696|-0.1333730965852737|-0.05172054842114449|-0.02828209847211838|0.1072524711489677|-0.2494878172874451|-0.2000195980072021|XArbitraryZVertical|-0.05618589695331482|0.4203773186622889|-0.9055798081340121|-0.007165464715633498|-0.1077860221266747|0.7605652213096619|-0.6402521133422852|0|0|0|-1|-1|3
2021-04-22 21:47:42.850 +0100|140287.1651406667|0.07000732421875|0.5706939697265625|-0.8152618408203125|140287.1451796667|3.056064298852955|-0.1576428591760518|-0.8607973843002514|-0.1389333605766296|-0.05780810862779617|0.01457544323056936|0.1209174618124962|-0.2367108464241028|-0.1691928505897522|XArbitraryZVertical|-0.05371147689609932|0.4186166442439742|-0.9065541395529828|-0.005908775732854274|-0.1023317500948906|0.7583625912666321|-0.6437503695487976|0|0|0|-1|-1|3
2021-04-22 21:47:42.870 +0100|140287.1851016667|0.236114501953125|0.540740966796875|-0.7666015625|140287.1651406667|3.05965217067675|-0.1548737022238529|-0.8580773147787183|-0.1297987699508667|-0.1899867057800293|0.1937020570039749|0.1140659004449844|-0.1838485598564148|-0.1569122076034546|XArbitraryZVertical|-0.05330138263192973|0.4172834147967316|-0.907198387546895|-0.004980650178790007|-0.1008665412664413|0.7565867304801941|-0.6460670232772827|0|0|0|-1|-1|3
2021-04-22 21:47:42.890 +0100|140287.2050626667|0.0459747314453125|0.623992919921875|-0.7896881103515625|140287.1851016667|3.061719061785394|-0.1523513444690308|-0.8572953077020644|-0.1876028925180435|-0.7598999738693237|0.4923249781131744|-0.132881373167038|-0.04686242341995239|-0.1851737499237061|XArbitraryZVertical|-0.05261493036049359|0.416868907289806|-0.9074309572077441|-0.004602806021607621|-0.09932636469602585|0.7560751438140869|-0.6469039916992188|0|0|0|-1|-1|3
2021-04-22 21:47:42.910 +0100|140287.2250236667|0.0625762939453125|0.60736083984375|-0.7642059326171875|140287.2050626667|3.065458104324402|-0.1502674469988695|-0.8589333592256113|-0.03304695338010788|0.007750931195914745|0.1129571422934532|0.1756433844566345|-0.1414546370506287|-0.1638700366020203|XArbitraryZVertical|-0.05239483833168637|0.4175077837250905|-0.907155617901753|-0.003271768222374008|-0.09779252111911774|0.7571462392807007|-0.6458840370178223|0|0|0|-1|-1|3
2021-04-22 21:47:42.930 +0100|140287.2449846667|0.0579071044921875|0.6605682373046875|-0.7682647705078125|140287.2250236667|3.071502625227278|-0.1447705744890843|-0.8578445704423749|-0.08852966874837875|0.001635993830859661|0.1730938851833344|0.1537625789642334|-0.1515766978263855|-0.1243341565132141|XArbitraryZVertical|-0.05119661267935342|0.4168516484467795|-0.9075299641341551|-0.001720842055217184|-0.09435959160327911|0.7564345002174377|-0.6472272276878357|0|0|0|-1|-1|3
2021-04-22 21:47:42.950 +0100|140287.26494575|0.044219970703125|0.7027130126953125|-0.7691650390625|140287.2449846667|3.079483810426318|-0.1372443006328142|-0.8551174410874118|-0.04531941562891006|-0.02218869887292385|0.1795651018619537|0.1516273021697998|-0.1095678806304932|-0.1158027648925781|XArbitraryZVertical|-0.04952137835177971|0.4154124361971148|-0.9082842817758603|0.0002302585544133289|-0.08976767212152481|0.754647970199585|-0.6499602794647217|0|0|0|-1|-1|3
2021-04-22 21:47:42.970 +0100|140287.28490675|0.03515625|0.737335205078125|-0.77398681640625|140287.26494575|3.08363059169503|-0.1355387344054469|-0.8517485712026476|0.1125292405486107|-0.01260643266141415|0.2089663147926331|0.1327342092990875|-0.05808258056640625|-0.1148748397827148|XArbitraryZVertical|-0.04969952057743911|0.4137826620976465|-0.9090167354718256|0.001635369553601045|-0.08900201320648193|0.7524333000183105|-0.65262770652771|0|0|0|-1|-1|3
2021-04-22 21:47:42.990 +0100|140287.30486775|-0.0113983154296875|0.7990264892578125|-0.7824859619140625|140287.30486775|3.10275473168465|-0.1201371115351477|-0.8349579626922905|0.4875651299953461|-0.08112525194883347|0.1865442842245102|0.08360234647989273|0.0381196141242981|-0.1129265427589417|XArbitraryZVertical|-0.04700727015928082|0.4057151619895114|-0.9127661247888855|0.006617957319381858|-0.08044327795505524|0.7412682771682739|-0.6663710474967957|0|0|0|-1|-1|3
2021-04-22 21:47:43.010 +0100|140287.32482875|-0.0804595947265625|0.890594482421875|-0.8031463623046875||||||||||||||||||||||||3
2021-04-22 21:47:43.030 +0100|140287.34478975|-0.15252685546875|0.8839874267578125|-0.815704345703125|140287.32482875|3.11403056129572|-0.1114997558936348|-0.8212021899752692|0.698835015296936|-0.08298680186271667|0.2039011567831039|0.01630335301160812|0.1429882049560547|-0.1245712637901306|XArbitraryZVertical|-0.04559254436799473|0.3992065381838297|-0.9156762602770455|0.009623950199252643|-0.07581213116645813|0.7319654822349548|-0.6771109104156494|0|0|0|-1|-1|3
2021-04-22 21:47:43.050 +0100|140287.36475075|-0.1436004638671875|0.811431884765625|-0.8024139404296875|140287.34478975|3.122930393024191|-0.1058611280789205|-0.8058739072500132|0.8902976512908936|-0.008619094267487526|0.2251579761505127|-0.06612700223922729|0.1735981702804565|-0.1309151649475098|XArbitraryZVertical|-0.04501290713738942|0.392009613620059|-0.9187787486879585|0.01217293127572776|-0.07316999137401581|0.721436083316803|-0.6886045932769775|0|0|0|-1|-1|3
2021-04-22 21:47:43.070 +0100|140287.38471175|-0.1136016845703125|0.7386932373046875|-0.7817230224609375|140287.36475075|3.131071650454901|-0.099315351543179|-0.7881586387489069|0.8878471255302429|0.0575450100004673|0.1706279814243317|-0.08352453261613846|0.1252939701080322|-0.1075274348258972|XArbitraryZVertical|-0.04381464907934581|0.3837207437633378|-0.9222997305744203|0.01420710016064122|-0.06991735845804214|0.70905601978302|-0.7016773223876953|0|0|0|-1|-1|3
2021-04-22 21:47:43.094 +0100|140287.40467275|-0.100921630859375|0.743896484375|-0.7464141845703125|140287.38471175|3.137438000428006|-0.09356555735227216|-0.7728282764618895|0.6735817790031433|0.07961676269769669|0.1395630985498428|-0.04990074783563614|0.04960870742797852|-0.0701369047164917|XArbitraryZVertical|-0.04253538733787445|0.3765461549867993|-0.9252877385939817|0.01570246754688901|-0.06688953936100006|0.6981629133224487|-0.7128074765205383|0|0|0|-1|-1|3
2021-04-22 21:47:43.117 +0100|140287.42463375|-0.09368896484375|0.7425689697265625|-0.7145843505859375|140287.40467275|-3.140378687987769|-0.08782367573062828|-0.7618347227259075|0.4794024229049683|0.1327547580003738|0.1435072422027588|-0.03954660892486572|0.04867136478424072|-0.03725987672805786|XArbitraryZVertical|-0.0409767454596608|0.3713890404563503|-0.9274190559565291|0.01688288490451499|-0.06346499174833298|0.6902501583099365|-0.7207821607589722|0|0|0|-1|-1|3
2021-04-22 21:47:43.129 +0100|140287.44459475|-0.085906982421875|0.76617431640625|-0.6811676025390625|140287.42463375|-3.135368068817915|-0.08124430394846195|-0.7524769722085068|0.5179632306098938|0.1809815615415573|0.1509970128536224|-0.03652069717645645|0.06027895212173462|0.002690434455871582|XArbitraryZVertical|-0.03891277901893878|0.3670022067742809|-0.9292351293744296|0.01781360717602913|-0.05924297496676445|0.6834490299224854|-0.7275903224945068|0|0|0|-1|-1|3
2021-04-22 21:47:43.149 +0100|140287.46455675|-0.075958251953125|0.7984771728515625|-0.6498870849609375|140287.44459475|-3.130157403953706|-0.07369522344458786|-0.741482774615571|0.6290611624717712|0.2273366004228592|0.1319938600063324|-0.03383558988571167|0.08390980958938599|0.0491405725479126|XArbitraryZVertical|-0.03640592786787945|0.3618583428726198|-0.9313348622178325|0.01867240700927147|-0.05429868772625923|0.675382137298584|-0.7354663014411926|0|0|0|-1|-1|3
2021-04-22 21:47:43.169 +0100|140287.48451775|-0.0665130615234375|0.8249359130859375|-0.6341552734375|140287.46455675|-3.125289151680304|-0.06551095592406612|-0.7280343394851391|0.7273069024085999|0.2685537934303284|0.1259001046419144|-0.02797487005591393|0.1213999390602112|0.08347445726394653|XArbitraryZVertical|-0.03350334302915221|0.3555787496948053|-0.9338468251415373|0.01927292350732069|-0.04886789619922638|0.6654036045074463|-0.7448825836181641|0|0|0|-1|-1|3
2021-04-22 21:47:43.189 +0100|140287.50447875|-0.0579071044921875|0.8123931884765625|-0.6150970458984375|140287.48451775|-3.121025589242704|-0.05692197174060978|-0.7135054235694611|0.7573236227035522|0.301793247461319|0.1012898311018944|-0.02677931264042854|0.1656558513641357|0.1173349618911743|XArbitraryZVertical|-0.03025378597114447|0.3487991398248003|-0.9365046461655541|0.0195696211852042|-0.04301388934254646|0.6544881463050842|-0.7548477649688721|0|0|0|-1|-1|3
2021-04-22 21:47:43.209 +0100|140287.52443975|-0.0770263671875|0.78204345703125|-0.60906982421875|140287.50447875|-3.117853747364881|-0.04858142002296999|-0.6986697466269127|0.7455565333366394|0.3306784331798553|0.0568387433886528|-0.02165329456329346|0.1794924736022949|0.142373263835907|XArbitraryZVertical|-0.02688101198528397|0.341876987928819|-0.9391585409863661|0.01946164235504192|-0.03718408942222595|0.6431996822357178|-0.7647950649261475|0|0|0|-1|-1|3
2021-04-22 21:47:43.229 +0100|140287.54440075|-0.084259033203125|0.7578277587890625|-0.611968994140625|140287.52443975|-3.117189436075157|-0.04198895379196486|-0.6866849054241904|0.7134194374084473|0.3765043616294861|-0.003478036262094975|-0.0399702675640583|0.1550543904304504|0.1613873839378357|XArbitraryZVertical|-0.02387270136239596|0.3362958744843632|-0.9412710033630367|0.01855310137773656|-0.0324627012014389|0.633976936340332|-0.7726703286170959|0|0|0|-1|-1|3
2021-04-22 21:47:43.249 +0100|140287.56436175|-0.0735626220703125|0.79266357421875|-0.5822601318359375|140287.54440075|-3.118463937288708|-0.03544966143708173|-0.6763082038445719|0.716032862663269|0.4136376976966858|-0.0796843022108078|-0.05805183947086334|0.1299253106117249|0.1775916814804077|XArbitraryZVertical|-0.020554799973058|0.3314786307728708|-0.943089452829035|0.01678694291168541|-0.02764100395143032|0.6259180903434753|-0.7793988585472107|0|0|0|-1|-1|3
2021-04-22 21:47:43.269 +0100|140287.58432275|-0.08465576171875|0.769775390625|-0.597625732421875|140287.56436175|-3.120954375215887|-0.02967455736153231|-0.6660143425810209|0.7653965950012207|0.4305476546287537|-0.09641454368829727|-0.04792862758040428|0.165665864944458|0.194162130355835|XArbitraryZVertical|-0.01739366659447552|0.3266883850842546|-0.9448592730625747|0.01460066659058106|-0.02332939766347408|0.617857038974762|-0.7859443426132202|0|0|0|-1|-1|3
2021-04-22 21:47:43.289 +0100|140287.60428375|-0.104339599609375|0.7128143310546875|-0.6224822998046875|140287.58432275|-3.124382965282032|-0.02319493509387607|-0.6552862278375595|0.804914116859436|0.4859528243541718|-0.1585318893194199|-0.06554906815290451|0.1784396767616272|0.1963005065917969|XArbitraryZVertical|-0.01374879332314484|0.3216843171780703|-0.9466727936047233|0.01187843745602118|-0.01838900335133076|0.6093862056732178|-0.7926603555679321|0|0|0|-1|-1|3
2021-04-22 21:47:43.309 +0100|140287.62424475|-0.0955657958984375|0.7064208984375|-0.6317138671875|140287.60428375|-3.128664679437869|-0.0166849134087595|-0.6449565753927003|0.7258707880973816|0.5112460851669312|-0.1515744626522064|-0.0868864580988884|0.1168073415756226|0.176730215549469|XArbitraryZVertical|-0.009960638237910366|0.3168492313722889|-0.948383145906969|0.008774322254875701|-0.01333272829651833|0.6011637449264526|-0.799014687538147|0|0|0|-1|-1|3
2021-04-22 21:47:43.329 +0100|140287.64420575|-0.0897674560546875|0.6435699462890625|-0.6607818603515625|140287.62424475|-3.133461569081885|-0.01059167264130349|-0.6366549222898957|0.603327214717865|0.5156818628311157|-0.1482072621583939|-0.08918499201536179|0.1132539510726929|0.1713071465492249|XArbitraryZVertical|-0.006302114822809574|0.3129510091547078|-0.9497324762579329|0.005518688065961802|-0.008516488596796989|0.5945090055465698|-0.8040438890457153|0|0|0|-1|-1|3
2021-04-22 21:47:43.349 +0100|140287.66416675|-0.0576171875|0.64434814453125|-0.7219085693359375|140287.64420575|-3.138282825780831|-0.004404076904038467|-0.6322954924613905|0.3488881587982178|0.51996248960495|-0.1503158658742905|-0.08813686668872833|0.06679236888885498|0.1571743488311768|XArbitraryZVertical|-0.002607424901857634|0.3109028864495751|-0.950435454777479|0.002257521063657444|-0.003552638459950686|0.5909980535507202|-0.8066651821136475|0|0|0|-1|-1|3
2021-04-22 21:47:43.369 +0100|140287.68412775|-0.029632568359375|0.737701416015625|-0.726837158203125|140287.66416675|3.139649539346455|0.0009952129345381549|-0.6325010858601626|0.2819075286388397|0.4424757063388824|-0.1655282825231552|-0.07038220763206482|0.03826045989990234|0.1052109003067017|XArbitraryZVertical|0.00077508826802278|0.3110045487722729|-0.9504076232492477|-0.001078134079101577|0.0008026903960853815|0.5911638736724854|-0.8065511584281921|0|0|0|-1|-1|3
2021-04-22 21:47:43.389 +0100|140287.70408875|-0.03912353515625|0.6971893310546875|-0.7569122314453125|140287.68412775|3.13417127227205|0.004608583109127208|-0.6308484927349282|0.4025932252407074|0.4227146804332733|-0.1627663969993591|-0.0315987803041935|0.133725643157959|0.09830504655838013|XArbitraryZVertical|0.003341715851649265|0.3102086683719518|-0.950653313948712|-0.004242438684046937|0.003721544053405523|0.5898301601409912|-0.8075188398361206|0|0|0|-1|-1|3
2021-04-22 21:47:43.409 +0100|140287.72404975|0.0008544921875|0.6678619384765625|-0.7466888427734375|140287.70408875|3.128653682783628|0.00721680163716938|-0.6242972393865565|0.7114572525024414|0.3504697978496552|-0.1517629325389862|-0.04157572239637375|0.1316128373146057|0.06388545036315918|XArbitraryZVertical|0.005420727678315545|0.3070734745087385|-0.9516426881341551|-0.007264900453141595|0.005855475086718798|0.5845271944999695|-0.8113529682159424|0|0|0|-1|-1|3
2021-04-22 21:47:43.429 +0100|140287.74401075|0.0349578857421875|0.58160400390625|-0.7899627685546875|140287.72404975|3.122824040742195|0.008543477307445075|-0.6107848949993583|0.9852851629257202|0.3084533512592316|-0.1828129887580872|-0.02114303037524223|0.1018579602241516|0.07301300764083862|XArbitraryZVertical|0.006895377845671803|0.3006132231304527|-0.9536664389499818|-0.01023418871557609|0.006998715922236443|0.5735106468200684|-0.8191682696342468|0|0|0|-1|-1|3
2021-04-22 21:47:43.449 +0100|140287.76397175|0.020843505859375|0.518218994140625|-0.8186492919921875|140287.74401075|3.116904575173648|0.008834407180103494|-0.5934898052491893|0.9802860617637634|0.2029814124107361|-0.1715472042560577|0.02678040787577629|0.04466938972473145|0.05360114574432373|XArbitraryZVertical|0.007833187399484562|0.292331651665924|-0.9561952767595094|-0.01309563620702274|0.007323575671762228|0.559257447719574|-0.8289616703987122|0|0|0|-1|-1|3
