loggingTime(txt)|accelerometerTimestamp_sinceReboot(s)|accelerometerAccelerationX(G)|accelerometerAccelerationY(G)|accelerometerAccelerationZ(G)|motionTimestamp_sinceReboot(s)|motionYaw(rad)|motionRoll(rad)|motionPitch(rad)|motionRotationRateX(rad/s)|motionRotationRateY(rad/s)|motionRotationRateZ(rad/s)|motionUserAccelerationX(G)|motionUserAccelerationY(G)|motionUserAccelerationZ(G)|motionAttitudeReferenceFrame(txt)|motionQuaternionX(R)|motionQuaternionY(R)|motionQuaternionZ(R)|motionQuaternionW(R)|motionGravityX(G)|motionGravityY(G)|motionGravityZ(G)|motionMagneticFieldX(µT)|motionMagneticFieldY(µT)|motionMagneticFieldZ(µT)|motionHeading(°)|motionMagneticFieldCalibrationAccuracy(Z)|label
2021-04-08 20:10:25.013 +0100|19604.449266625|-0.0052337646484375|-0.18304443359375|-0.973236083984375|19604.429305625|1.101421138069918|0.02553509637937282|0.2596142284747924|-0.01225639879703522|-0.1962184607982635|-0.141418531537056|0.004636034369468689|0.04406210780143738|0.009249329566955566|XArbitraryZVertical|0.1036713561022249|0.07851907516802668|0.520256319609101|0.8440500996806135|0.02467671036720276|-0.2567077279090881|-0.9661740064620972|0|0|0|-1|-1|3
2021-04-08 20:10:25.024 +0100|19604.469226625|0.0461578369140625|-0.2694549560546875|-0.9581298828125|19604.449266625|1.098916112070063|0.02361592235144463|0.2642846028243763|0.4462742805480957|-0.1291466951370239|-0.05728998407721519|-0.0728115513920784|0.1146284639835358|-0.01460397243499756|XArbitraryZVertical|0.106243939935405|0.07878445414376635|0.5189629676325719|0.8445015715483236|0.0227938499301672|-0.261218786239624|-0.9650104641914368|0|0|0|-1|-1|3
2021-04-08 20:10:25.025 +0100|19604.489187625|-0.00537109375|-0.317535400390625|-0.94970703125|19604.469226625|1.098838497407537|0.01911042942591057|0.2745707276582728|0.4593866765499115|-0.2686738669872284|0.02831315621733665|0.04293221980333328|0.01519894599914551|0.005868494510650635|XArbitraryZVertical|0.1117653950706748|0.07953321723275358|0.5183703713174571|0.844082565151396|0.01839346624910831|-0.2711337804794312|-0.9623659253120422|0|0|0|-1|-1|3
2021-04-08 20:10:25.027 +0100|19604.509148625|-0.0194091796875|-0.340576171875|-0.967559814453125|19604.489187625|1.098764715141385|0.0137720604300366|0.2801285520759469|0.156082957983017|-0.2798639833927155|-0.02487860433757305|-0.01476008538156748|-0.02605593204498291|0.01087057590484619|XArbitraryZVertical|0.1155000372791531|0.07871058844074863|0.5178546712270492|0.8439733213360507|0.01323480624705553|-0.276479184627533|-0.9609287977218628|0|0|0|-1|-1|3
2021-04-08 20:10:25.047 +0100|19604.529108625|-0.0407562255859375|-0.2928924560546875|-0.9698638916015625|19604.509148625|1.097966424499233|0.008431321402882717|0.2792398521305814|-0.07405756413936615|-0.2799842059612274|-0.04594988748431206|-0.02238626033067703|-0.06311923265457153|-0.005276143550872803|XArbitraryZVertical|0.1165375049503757|0.0761805396879338|0.5172381312591949|0.8444408718844522|0.008104640059173107|-0.2756250202655792|-0.9612310528755188|0|0|0|-1|-1|3
2021-04-08 20:10:25.067 +0100|19604.549069625|-0.0341796875|-0.2734222412109375|-0.969573974609375|19604.529108625|1.097133435109804|0.003130946109810023|0.2734158237900168|-0.1934277415275574|-0.1841594576835632|-0.06409463286399841|-0.03681226074695587|-0.03384071588516235|-0.003703534603118896|XArbitraryZVertical|0.1154772707401843|0.07238973018062157|0.516780920151006|0.8451995867119043|0.003014639718458056|-0.2700219452381134|-0.9628494381904602|0|0|0|-1|-1|3
2021-04-08 20:10:25.087 +0100|19604.569029625|-0.019378662109375|-0.2633056640625|-0.967498779296875|19604.549069625|1.094771585220744|0.002195257591966638|0.2686691450556392|-0.1951602697372437|-0.1068508177995682|-0.1335780024528503|-0.04212445020675659|-0.01251992583274841|-0.005817711353302002|XArbitraryZVertical|0.1137958051146315|0.07063400487146029|0.5158930077829408|0.8461181101845402|0.002116501098498702|-0.2654485702514648|-0.9641227126121521|0|0|0|-1|-1|3
2021-04-08 20:10:25.107 +0100|19604.588990625|-0.0234527587890625|-0.25189208984375|-0.963531494140625|19604.569029625|1.091738807175245|0.001348914628578395|0.2659878718086862|-0.1326509416103363|-0.08714235574007034|-0.1389068216085434|-0.02814109623432159|-0.003768682479858398|-0.001903653144836426|XArbitraryZVertical|0.1129848923971982|0.06941329260293599|0.5146531308297547|0.8470822385701229|0.00130147731397301|-0.2628625333309174|-0.9648324251174927|0|0|0|-1|-1|3
2021-04-08 20:10:25.127 +0100|19604.608951625|-0.0376739501953125|-0.2603302001953125|-0.9639434814453125|19604.588990625|1.089385080520142|0.0001130092643877433|0.2659193982842673|-0.0237970408052206|-0.07100440561771393|-0.0904473215341568|-0.02069254964590073|0.008845329284667969|0.001823127269744873|XArbitraryZVertical|0.1133548714504936|0.06873884264128183|0.5135882471680395|0.8477339167284009|0.0001090371370082721|-0.2627964615821838|-0.9648512601852417|0|0|0|-1|-1|3
2021-04-08 20:10:25.147 +0100|19604.62891054167|-0.0233306884765625|-0.235809326171875|-0.9753570556640625|19604.608951625|1.087814851926439|-0.0006995812838952018|0.2668245541981511|-0.04387369751930237|0.01207477226853371|-0.0787077471613884|-0.03702905774116516|0.004881501197814941|0.00640636682510376|XArbitraryZVertical|0.1140010195613407|0.06853736857813156|0.5128451636060263|0.8481133745116423|-0.0006748251616954803|-0.2636696994304657|-0.9646127820014954|0|0|0|-1|-1|3
2021-04-08 20:10:25.167 +0100|19604.64887154167|-0.0086822509765625|-0.2538299560546875|-0.988067626953125|19604.62891054167|1.086548690368652|-0.0003634804767533043|0.2658271804734127|-0.07614296674728394|0.05329667031764984|-0.0740782842040062|-0.02595485001802444|0.02612084150314331|-0.005080223083496094|XArbitraryZVertical|0.1135351904070549|0.06835224211814057|0.5123615981766859|0.8484829919935531|-0.0003507134097162634|-0.2627074718475342|-0.9648754596710205|0|0|0|-1|-1|3
2021-04-08 20:10:25.187 +0100|19604.66883154167|0.0126953125|-0.2575836181640625|-0.970672607421875|19604.64887154167|1.08470925890499|0.001053906346728965|0.264314891175858|-0.1071619391441345|0.1077191606163979|-0.1293302774429321|-0.01346789300441742|0.0127595067024231|-0.02699285745620728|XArbitraryZVertical|0.1125934422124666|0.06846260385756577|0.511712632242466|0.848991074120684|0.001017305767163634|-0.2612480223178864|-0.9652711749076843|0|0|0|-1|-1|3
2021-04-08 20:10:25.207 +0100|19604.68879254167|0.0005340576171875|-0.305511474609375|-0.9423828125|19604.66883154167|1.08172438755582|0.004120013451362199|0.2597505526663389|-0.3548553884029388|0.143963560461998|-0.1516091972589493|0.003007314633578062|-0.0009721219539642334|-0.004883050918579102|XArbitraryZVertical|0.1099728497158577|0.06843268321571802|0.510766663791026|0.8499062012820159|0.003981792367994785|-0.2568394839763641|-0.9664458632469177|0|0|0|-1|-1|3
2021-04-08 20:10:25.227 +0100|19604.70875354167|0.0274658203125|-0.29034423828125|-0.9343109130859375|19604.68879254167|1.080954651674751|0.00704832575880124|0.2497617456630071|-0.7374383211135864|0.2073824256658554|0.1064914017915726|0.00322655588388443|-0.04104927182197571|0.02694571018218994|XArbitraryZVertical|0.1050027565484071|0.0670878690925595|0.5109115148494858|0.8505546943120316|0.006829569116234779|-0.2471731007099152|-0.9689472913742065|0|0|0|-1|-1|3
2021-04-08 20:10:25.247 +0100|19604.72871354167|-0.0325469970703125|-0.2218475341796875|-0.8863067626953125|19604.70875354167|1.084175658716609|0.009726990836945877|0.2319313325867464|-1.017149448394775|0.203492671251297|0.04691542312502861|0.008478529751300812|-0.09069818258285522|0.03108513355255127|XArbitraryZVertical|0.09662404422779054|0.06383317537911481|0.5129364036751144|0.8505794458599651|0.009466394782066345|-0.2298575639724731|-0.9731782674789429|0|0|0|-1|-1|3
2021-04-08 20:10:25.267 +0100|19604.74867454167|-0.02142333984375|-0.2147369384765625|-0.8657989501953125|19604.72871354167|1.080742418366|0.01349062606445096|0.2111285359068071|-1.223839163780212|0.09546703100204468|-0.5484749674797058|-0.005469128489494324|-0.04838542640209198|0.05781453847885132|XArbitraryZVertical|0.08690233186229177|0.05995793228932119|0.5121883391894368|0.8523591897640276|0.0131906671449542|-0.2095635086297989|-0.9777060747146606|0|0|0|-1|-1|3
2021-04-08 20:10:25.287 +0100|19604.76863554167|-0.127410888671875|-0.1080780029296875|-0.8406829833984375|19604.74867454167|1.067779440701451|0.01825353206736905|0.1852831114443327|-1.42211377620697|0.09516731649637222|-0.6930167078971863|-0.01165290921926498|-0.02129492163658142|0.06598746776580811|XArbitraryZVertical|0.07500717364928496|0.05489740990986493|0.5074090824049611|0.8566775124565376|0.01794011145830154|-0.1842247992753983|-0.9827203750610352|0|0|0|-1|-1|3
2021-04-08 20:10:25.306 +0100|19604.78859554167|-0.2991180419921875|-0.211334228515625|-0.746307373046875|19604.76863554167|1.048581014421032|0.02396546872651557|0.1564399783678411|-1.278424501419067|0.1008659452199936|-1.162674069404602|-0.1022985279560089|0.03310765326023102|0.1361555457115173|XArbitraryZVertical|0.06165948363586715|0.04945535819748885|0.4998430092780802|0.8625017399588036|0.02367054112255573|-0.1558026522397995|-0.9875045418739319|0|0|0|-1|-1|3
2021-04-08 20:10:25.327 +0100|19604.80855654167|-0.3597564697265625|-0.4270782470703125|-0.6021575927734375|19604.78859554167|1.024355265856346|0.03429619610636876|0.1385857003974802|-0.5654759407043457|0.5032644867897034|-1.157566428184509|-0.3153932690620422|0.04030410945415497|0.2009199261665344|XArbitraryZVertical|0.0519606454293522|0.04883767527270495|0.4898634936682613|0.8688780157716898|0.03396071866154671|-0.1381425112485886|-0.989829957485199|0|0|0|-1|-1|3
2021-04-08 20:10:25.347 +0100|19604.82851654167|-0.393798828125|-0.4021759033203125|-0.47784423828125|19604.80855654167|0.9980062241456316|0.05050500264196835|0.1184429893428171|-1.591731071472168|0.6987453699111938|-1.60698664188385|-0.3913158476352692|-0.2794920802116394|0.3714425563812256|XArbitraryZVertical|0.03989094107470388|0.05044686514635717|0.4788714177944588|0.8755261674100671|0.05012983828783035|-0.1181662455201149|-0.9917276501655579|0|0|0|-1|-1|3
2021-04-08 20:10:25.367 +0100|19604.84847754167|-0.2996368408203125|-0.2051544189453125|-0.361785888671875|19604.82851654167|0.9635818253595085|0.06914670001870235|0.06693464912246747|-3.355345726013184|0.8373866081237793|-2.08025050163269|-0.4736300110816956|-0.3630764782428741|0.4837491512298584|XArbitraryZVertical|0.01362637942179578|0.04610997642581665|0.4638556864428863|0.8846051253945207|0.06893689930438995|-0.06688468158245087|-0.9953764081001282|0|0|0|-1|-1|3
2021-04-08 20:10:25.386 +0100|19604.86843854167|-0.23333740234375|0.018524169921875|-0.381988525390625|19604.84847754167|0.9256298710708947|0.08760622578903433|-0.01987421358110771|-4.96091890335083|0.8835305571556091|-2.416291475296021|-0.4065530300140381|-0.2761127352714539|0.6100430488586426|XArbitraryZVertical|-0.02843253667441877|0.03474824682342573|0.4456290296377499|0.8940911759347581|0.0874769315123558|0.01987290568649769|-0.9959682822227478|0|0|0|-1|-1|3
2021-04-08 20:10:25.407 +0100|19604.88839854167|-0.064483642578125|0.36553955078125|-0.4793548583984375|19604.86843854167|0.8848092580482461|0.1004528026641955|-0.1344024947817541|-6.012913227081299|0.7739766836166382|-2.698291063308716|-0.3494096994400024|-0.1897222846746445|0.5981839895248413|XArbitraryZVertical|-0.08205426162104987|0.01655747567798029|0.4235620743371658|0.9019912729989|0.09937954694032669|0.1339982151985168|-0.9859858751296997|0|0|0|-1|-1|3
2021-04-08 20:10:25.426 +0100|19604.90835954167|0.1740570068359375|0.7291107177734375|-0.8523406982421875|19604.88839854167|0.8425523676476979|0.1085988965642722|-0.2678586468117326|-6.73930549621582|0.8988731503486633|-2.8007493019104|-0.2311986684799194|0.02372509241104126|0.5431471467018127|XArbitraryZVertical|-0.1436697133373825|-0.005438986819408414|0.3980527265648849|0.9060261892932607|0.1045205146074295|0.2646670639514923|-0.9586588740348816|0|0|0|-1|-1|3
2021-04-08 20:10:25.447 +0100|19604.92831954167|0.261260986328125|0.907379150390625|-1.081878662109375|19604.90835954167|0.7974724487957474|0.1137394477540128|-0.4103121504841129|-6.973177909851074|1.148252248764038|-3.047794580459595|0.019339419901371|0.2421576976776123|0.145111083984375|XArbitraryZVertical|-0.2090403168357451|-0.02768548266931276|0.3688266076266895|0.9052638952401252|0.1040739268064499|0.3988955914974213|-0.9110713005065918|0|0|0|-1|-1|3
2021-04-08 20:10:25.466 +0100|19604.94828054167|0.1733245849609375|1.019546508789062|-1.031967163085938|19604.92831954167|0.7454071075697548|0.1162868868503488|-0.5559157460437484|-6.960628509521484|1.544677972793579|-3.087856292724609|0.1600830107927322|0.3495073914527893|-0.1929701566696167|XArbitraryZVertical|-0.2754705068966141|-0.04770309114125542|0.3347162444477258|0.8998919315721239|0.09855365008115768|0.5277213454246521|-0.8436808586120605|0|0|0|-1|-1|3
2021-04-08 20:10:25.486 +0100|19604.96824154167|0.175567626953125|1.345413208007812|-0.9576568603515625|19604.94828054167|0.6977627518742459|0.1236295480048733|-0.7001635188183097|-6.831098079681396|1.952954292297363|-2.383938074111938|0.09379178285598755|0.3441988229751587|-0.3102519512176514|XArbitraryZVertical|-0.341533555770845|-0.06248829482200927|0.3005876690886127|0.88831143044477|0.09430341422557831|0.6443427205085754|-0.7589001059532166|0|0|0|-1|-1|3
2021-04-08 20:10:25.506 +0100|19604.98820154167|0.186431884765625|1.393096923828125|-1.092361450195312|19604.96824154167|0.6661813056862291|0.1429111856707474|-0.8299165317592165|-5.52777099609375|2.113479614257812|-1.637391090393066|0.07269518077373505|0.5170238614082336|-0.2796809673309326|XArbitraryZVertical|-0.4013832923145714|-0.06973559602874138|0.2712523476060088|0.872038227527151|0.09612810611724854|0.7378750443458557|-0.6680567860603333|0|0|0|-1|-1|3
2021-04-08 20:10:25.526 +0100|19605.00816254167|0.249298095703125|1.43145751953125|-1.071151733398438|19604.98820154167|0.6424872676726353|0.1683464763152508|-0.9141105593633209|-2.411924362182617|2.30589747428894|-1.292841196060181|0.09412114322185516|0.6057469248771667|-0.503969132900238|XArbitraryZVertical|-0.4410705466692232|-0.06726338785252821|0.2471297170927284|0.8601507657191285|0.102289967238903|0.7920199036598206|-0.6018648147583008|0|0|0|-1|-1|3
2021-04-08 20:10:25.546 +0100|19605.02812254167|0.1862030029296875|0.889312744140625|-1.099029541015625|19605.00816254167|0.6053971754905771|0.1878811212730095|-0.932366722841939|1.076313376426697|2.593690633773804|-1.102523446083069|0.1085411235690117|0.6359330415725708|-0.4979401826858521|XArbitraryZVertical|-0.4521314045221273|-0.05341471419996531|0.2248677394388006|0.8614863974901978|0.1113074347376823|0.8030325770378113|-0.585448145866394|0|0|0|-1|-1|3
2021-04-08 20:10:25.566 +0100|19605.04808354167|0.0573272705078125|0.081573486328125|-0.699737548828125|19605.02812254167|0.5472726132318815|0.194231612182771|-0.8828347228531278|4.164245128631592|2.660598516464233|-1.760825634002686|0.1117120012640953|0.3482932448387146|-0.4340275526046753|XArbitraryZVertical|-0.4330793712092527|-0.0304985495390104|0.203296630429274|0.8776005883922888|0.122556060552597|0.7725419402122498|-0.6230241656303406|0|0|0|-1|-1|3
2021-04-08 20:10:25.586 +0100|19605.06804454167|0.238433837890625|0.3159027099609375|-0.6765289306640625|19605.04808354167|0.4524862635688611|0.1757094013583375|-0.8036698887170064|4.146317481994629|2.342157602310181|-2.731948852539062|-0.05989629775285721|-0.5439733862876892|-0.1412166357040405|XArbitraryZVertical|-0.3977850503732454|-0.008699374786542339|0.1722117244757782|0.9011296694172135|0.1213279664516449|0.7199081182479858|-0.6833827495574951|0|0|0|-1|-1|3
2021-04-08 20:10:25.606 +0100|19605.08800454167|0.3702545166015625|0.699859619140625|-0.7836456298828125|19605.06804454167|0.3715936974473224|0.155540888577447|-0.7475429021944187|2.542487621307373|1.289363741874695|-1.900999188423157|0.06368326395750046|-0.4836862087249756|0.05449569225311279|XArbitraryZVertical|-0.3711213906515288|0.00383686374147609|0.1435761784556442|0.9174095790483024|0.113608330488205|0.6798388957977295|-0.7245084047317505|0|0|0|-1|-1|3
2021-04-08 20:10:25.626 +0100|19605.10796554167|0.2827606201171875|0.6730194091796875|-0.8618316650390625|19605.08800454167|0.3224673488875375|0.1398757898973587|-0.7014025930192048|2.899251699447632|0.5204784274101257|-1.145375370979309|0.259564995765686|-0.001581668853759766|0.0126878023147583|XArbitraryZVertical|-0.3488070745956477|0.009757859349431559|0.1266992656987457|0.928539714259274|0.1065083220601082|0.6452898383140564|-0.7564768195152283|0|0|0|-1|-1|3
2021-04-08 20:10:25.646 +0100|19605.12792654167|0.2839813232421875|0.6267852783203125|-0.82794189453125|19605.10796554167|0.2859192564369348|0.1256093989604628|-0.6343402916091389|4.131990432739258|0.373740941286087|-0.891528308391571|0.2130261361598969|0.1325286626815796|-0.03161656856536865|XArbitraryZVertical|-0.3165849589080491|0.01467776576986559|0.1157250596262488|0.9413641214267613|0.1009078696370125|0.5926463007926941|-0.7991170287132263|0|0|0|-1|-1|3
2021-04-08 20:10:25.666 +0100|19605.14788654167|0.508941650390625|0.5325164794921875|-0.842681884765625|19605.12792654167|0.25372013600482|0.1165116555188895|-0.5525537464821765|3.962995290756226|0.5436388254165649|-0.612163245677948|0.1416207402944565|0.05051672458648682|-0.02216756343841553|XArbitraryZVertical|-0.2772115667875933|0.0211117629700979|0.1057614845885903|0.9547369949283472|0.09894897788763046|0.5248626470565796|-0.8454160690307617|0|0|0|-1|-1|3
2021-04-08 20:10:25.686 +0100|19605.16784754167|0.43212890625|0.251312255859375|-0.9456939697265625|19605.14788654167|0.2356025355982147|0.1167349020091506|-0.4804948203770251|3.412947416305542|0.3157660365104675|-0.2348584681749344|0.3819322288036346|0.1468527913093567|0.05163007974624634|XArbitraryZVertical|-0.2425505183217933|0.0283486559515406|0.1001750255257267|0.9645365428561576|0.1032816395163536|0.4622180163860321|-0.8807312250137329|0|0|0|-1|-1|3
2021-04-08 20:10:25.706 +0100|19605.18780754167|0.3821563720703125|0.12628173828125|-0.8830413818359375|19605.18780754167|0.2150894944676294|0.121288862793886|-0.3889803447031093|0.8256354928016663|0.4329312145709991|-0.06513059139251709|0.2770997881889343|-0.2151663601398468|0.006816864013671875|XArbitraryZVertical|-0.1981793161298621|0.03841444552693754|0.09347457607708766|0.9749419989741224|0.1119531691074371|0.3792451322078705|-0.9184985756874084|0|0|0|-1|-1|3
2021-04-08 20:10:25.726 +0100|19605.20776854167|0.2999420166015625|0.0200653076171875|-0.8487548828125||||||||||||||||||||||||3
2021-04-08 20:10:25.746 +0100|19605.22772954167|0.1252593994140625|0.1880950927734375|-0.7982635498046875|19605.20776854167|0.2128832148306127|0.1274389804730432|-0.3888903006010071|-0.7202427983283997|0.2704459130764008|-0.1935182213783264|0.2244821786880493|-0.3568219542503357|0.06249552965164185|XArbitraryZVertical|-0.1983762370606598|0.04163640748275166|0.09179302277944203|0.9749294556396757|0.1176042258739471|0.3791618049144745|-0.9178265333175659|0|0|0|-1|-1|3
2021-04-08 20:10:25.766 +0100|19605.24768954167|0.0739898681640625|0.3768157958984375|-0.776092529296875|19605.22772954167|0.2103531137561715|0.1315450374474313|-0.4163228700517104|-1.868128657341003|0.2796479761600494|-0.3594193160533905|0.04342865198850632|-0.2649033069610596|0.1002082228660583|XArbitraryZVertical|-0.2118260071189829|0.04230194624509642|0.08898655066654917|0.9723281182203796|0.1199620738625526|0.4044001698493958|-0.9066805839538574|0|0|0|-1|-1|3
2021-04-08 20:10:25.786 +0100|19605.26765054167|0.1176910400390625|0.5980682373046875|-0.749542236328125|19605.24768954167|0.2085968074189864|0.1381045612642257|-0.4583351456740574|-2.125208139419556|0.4465579986572266|-0.3198250234127045|-0.05198574066162109|-0.1106370687484741|0.104637086391449|XArbitraryZVertical|-0.2323895067286369|0.04323454446258802|0.08555717236734524|0.9678873900158496|0.1234575212001801|0.4424557089805603|-0.888251781463623|0|0|0|-1|-1|3
2021-04-08 20:10:25.806 +0100|19605.28761054167|0.0828399658203125|0.7008819580078125|-0.7079315185546875|19605.26765054167|0.2105661426094096|0.1484574005916129|-0.4958322166829527|-1.528894662857056|0.464019238948822|-0.04506509751081467|-0.02397553622722626|0.06746533513069153|0.1144664883613586|XArbitraryZVertical|-0.2509087473024383|0.04577897447412406|0.08349807242357533|0.9633158046039989|0.1301000118255615|0.4757637977600098|-0.8698982000350952|0|0|0|-1|-1|3
2021-04-08 20:10:25.826 +0100|19605.30757154167|0.1314544677734375|0.841827392578125|-0.73699951171875|19605.28761054167|0.2153261017424235|0.1596875093437609|-0.5170043912681421|-0.6144543290138245|0.4951850473880768|0.04392549395561218|-0.04870481789112091|0.173111617565155|0.127729594707489|XArbitraryZVertical|-0.2616287094818456|0.04928085075067697|0.08328295609122696|0.9603051141732991|0.1382277309894562|0.4942782521247864|-0.8582436442375183|0|0|0|-1|-1|3
2021-04-08 20:10:25.846 +0100|19605.32753254167|0.0580902099609375|0.8757171630859375|-0.7378997802734375|19605.30757154167|0.2167303949184029|0.16905383062651|-0.5208396217245447|0.2534166276454926|0.3780398666858673|0.08405187726020813|-0.01347897946834564|0.3200040757656097|0.1314345598220825|XArbitraryZVertical|-0.2638850320273459|0.05335253848750982|0.08252230138600548|0.959535573283249|0.1459401100873947|0.4976086020469666|-0.8550363779067993|0|0|0|-1|-1|3
2021-04-08 20:10:25.866 +0100|19605.34749254167|0.038055419921875|0.8121337890625|-0.7229461669921875|19605.32753254167|0.214799676974544|0.1761793575540913|-0.5073482579486648|1.076189637184143|0.4423813223838806|-0.06472650170326233|-0.08377990126609802|0.3967538774013519|0.1224239468574524|XArbitraryZVertical|-0.2576773252393513|0.05787241448501375|0.08140924324432297|0.9610545638702636|0.1531917303800583|0.4858612418174744|-0.8605063557624817|0|0|0|-1|-1|3
2021-04-08 20:10:25.886 +0100|19605.36745354167|0.0171966552734375|0.703033447265625|-0.75592041015625|19605.34749254167|0.2068206009752068|0.1813559454322745|-0.4821730685030318|1.425730109214783|0.4573269188404083|-0.1358803957700729|-0.1131543964147568|0.3659310340881348|0.1557918787002563|XArbitraryZVertical|-0.2455838783665112|0.06292032101032398|0.07832394387556958|0.9641551452272047|0.1598000973463058|0.4637055993080139|-0.8714591860771179|0|0|0|-1|-1|3
2021-04-08 20:10:25.907 +0100|19605.38741454167|0.1100006103515625|0.628509521484375|-0.72454833984375|19605.36745354167|0.1971543591116919|0.1871538183370302|-0.4552307373916513|1.331791996955872|0.5783022046089172|-0.2520559132099152|-0.1530615240335464|0.2965527176856995|0.1206964254379272|XArbitraryZVertical|-0.2325360216809323|0.06847711653203283|0.07447672682555591|0.9673113530191875|0.1671144217252731|0.4396695792675018|-0.8824757933616638|0|0|0|-1|-1|3
2021-04-08 20:10:25.926 +0100|19605.40737454167|0.1903228759765625|0.624847412109375|-0.767425537109375|19605.38741454167|0.1853328856775381|0.1939660506275755|-0.4344058148926863|0.8850328326225281|0.5782387256622314|-0.3674489855766296|-0.0922691822052002|0.2201360166072845|0.1640204191207886|XArbitraryZVertical|-0.2223157841421003|0.07430297201457585|0.06915760893746666|0.9696763362101178|0.1748493164777756|0.4208714663982391|-0.8901095390319824|0|0|0|-1|-1|3
2021-04-08 20:10:25.946 +0100|19605.42733554167|0.1985626220703125|0.72137451171875|-0.8188629150390625|19605.40737454167|0.1739224469238306|0.1990219660714216|-0.4225821692737257|0.5096882581710815|0.404218316078186|-0.4255430400371552|-0.001638695597648621|0.2077583074569702|0.1447168588638306|XArbitraryZVertical|-0.2163328865016577|0.07864575996718122|0.06374352137977729|0.9710570672185861|0.180318683385849|0.4101168513298035|-0.8940298557281494|0|0|0|-1|-1|3
2021-04-08 20:10:25.965 +0100|19605.44729554167|0.0644683837890625|0.699981689453125|-0.90692138671875|19605.42733554167|0.1632693227113255|0.2011098107676122|-0.4156693143241721|0.4488938450813293|0.2346320599317551|-0.3804526031017303|0.02571825683116913|0.2885967195034027|0.08970671892166138|XArbitraryZVertical|-0.2126253013037442|0.08115718876354082|0.05874141264790767|0.9719843165070428|0.1827468574047089|0.4038023352622986|-0.8964079618453979|0|0|0|-1|-1|3
2021-04-08 20:10:25.986 +0100|19605.46725654167|0.010498046875|0.5555267333984375|-0.9384613037109375|19605.44729554167|0.1517047153260498|0.200460338330012|-0.4055499635624703|0.7489643096923828|0.2161466926336288|-0.5015706419944763|-0.07731753587722778|0.335258960723877|0.00976872444152832|XArbitraryZVertical|-0.2072286330074572|0.08254593686990755|0.05376104243223284|0.9733203345536389|0.1829689294099808|0.3945241868495941|-0.9004849195480347|0|0|0|-1|-1|3
2021-04-08 20:10:26.005 +0100|19605.48721754167|0.0258331298828125|0.4735260009765625|-0.947021484375|19605.46725654167|0.1358059461858226|0.2003299326954995|-0.3932501496966097|0.6738208532333374|0.37542924284935|-0.670384407043457|-0.1767236590385437|0.1992212235927582|-0.03883439302444458|XArbitraryZVertical|-0.2005875522951519|0.08465581242278096|0.04671932449516335|0.9748925467822575|0.1838032752275467|0.3831925094127655|-0.9051960706710815|0|0|0|-1|-1|3
2021-04-08 20:10:26.025 +0100|19605.50717754167|0.031890869140625|0.5022735595703125|-0.92218017578125|19605.48721754167|0.1192269614046831|0.2010898711525|-0.3883605059457791|0.06835406273603439|0.324692964553833|-0.7158222198486328|-0.1566806435585022|0.1135475039482117|-0.03643208742141724|XArbitraryZVertical|-0.1975144818884128|0.08687593971767761|0.03882893919177028|0.9756705417557626|0.1848631501197815|0.3786715269088745|-0.9068812131881714|0|0|0|-1|-1|3
2021-04-08 20:10:26.046 +0100|19605.52713854167|0.1224822998046875|0.54693603515625|-0.891571044921875|19605.50717754167|0.106270475902785|0.2028202355193382|-0.4015974574059712|-0.4729600250720978|0.3141936957836151|-0.5783724188804626|-0.1632051020860672|0.09608078002929688|-0.006891250610351562|XArbitraryZVertical|-0.2034159525262724|0.08852376461313421|0.03161243909644897|0.9745698403381162|0.1854061335325241|0.3908891975879669|-0.9015709757804871|0|0|0|-1|-1|3
2021-04-08 20:10:26.065 +0100|19605.54709854167|0.1741943359375|0.5248565673828125|-0.896881103515625|19605.52713854167|0.09712132748354789|0.204556385709995|-0.4180937246142519|-0.3698640763759613|0.2599086463451385|-0.4658463299274445|-0.09026896953582764|0.1379576921463013|-0.01519173383712769|XArbitraryZVertical|-0.211047901925328|0.08973834302207462|0.02607305918401965|0.972998586518265|0.185635894536972|0.4060191214084625|-0.8948116302490234|0|0|0|-1|-1|3
2021-04-08 20:10:26.085 +0100|19605.56705954167|0.1600494384765625|0.5157928466796875|-0.9151153564453125|19605.54709854167|0.08739679658679453|0.2013985830645372|-0.4264832588274637|0.06755031645298004|0.1069166958332062|-0.3966194987297058|-0.007225781679153442|0.1157177686691284|-0.003895044326782227|XArbitraryZVertical|-0.2146481997884107|0.08896032643772421|0.02122414919867718|0.972400068623743|0.1821215003728867|0.4136716425418854|-0.8920243978500366|0|0|0|-1|-1|3
2021-04-08 20:10:26.105 +0100|19605.58702054167|0.1407318115234375|0.5233306884765625|-0.878692626953125|19605.56705954167|0.07805160884743947|0.1992898336207228|-0.4237450115124671|0.3636096715927124|0.08136569708585739|-0.3721393644809723|-0.01948393881320953|0.1106439232826233|-0.01725280284881592|XArbitraryZVertical|-0.2128829337588531|0.08901756392331042|0.01705042131618994|0.9728649470518415|0.1804636269807816|0.4111771285533905|-0.8935134410858154|0|0|0|-1|-1|3
2021-04-08 20:10:26.125 +0100|19605.60698054167|0.163116455078125|0.5032196044921875|-0.92071533203125|19605.58702054167|0.0685286945915595|0.1967359078670302|-0.4167673704581753|0.4518679976463318|0.06073620915412903|-0.3556638062000275|-0.0379452258348465|0.1012215316295624|0.00642859935760498|XArbitraryZVertical|-0.2090494890546716|0.0889754579650279|0.01304899242190435|0.9737615991965075|0.178737536072731|0.4048066437244415|-0.8967633843421936|0|0|0|-1|-1|3
2021-04-08 20:10:26.145 +0100|19605.62694225|0.2733154296875|0.4172821044921875|-0.94903564453125|19605.60698054167|0.05829124934051536|0.1934861761862692|-0.4089714541717983|0.4526315033435822|0.04291502758860588|-0.484119325876236|-0.01263652741909027|0.1499120593070984|-0.03139907121658325|XArbitraryZVertical|-0.2047844564872966|0.0886497240140471|0.008794884581792915|0.9747447426884701|0.1764238178730011|0.3976658284664154|-0.9004091024398804|0|0|0|-1|-1|3
2021-04-08 20:10:26.165 +0100|19605.64690325|0.3397216796875|0.397674560546875|-0.9957733154296875|19605.62694225|0.04451127752209402|0.1879701528834909|-0.4076429989834898|0.1484292596578598|-0.05593101680278778|-0.6091713905334473|0.0733957439661026|0.04024568200111389|-0.01980483531951904|XArbitraryZVertical|-0.2035151796118363|0.08739681849095678|0.002705852094482617|0.9751595299493396|0.1715530455112457|0.39644655585289|-0.9018867611885071|0|0|0|-1|-1|3
2021-04-08 20:10:26.185 +0100|19605.66686325|0.271575927734375|0.3719482421875|-1.041534423828125|19605.64690325|0.03294552052715542|0.1817021425796773|-0.4135538296242354|-0.2897503077983856|-0.1236915811896324|-0.4827148616313934|0.1616317629814148|-0.001871228218078613|-0.08304899930953979|XArbitraryZVertical|-0.2058946914204297|0.08541355211622315|-0.002569503138269577|0.9748360959834554|0.1654703319072723|0.4018661081790924|-0.9006237983703613|0|0|0|-1|-1|3
2021-04-08 20:10:26.205 +0100|19605.68682425|0.2181396484375|0.3622894287109375|-0.9952392578125|19605.66686325|0.02543433713836008|0.1757317526599099|-0.4223667145793622|-0.4240936040878296|-0.1332314014434814|-0.3902021646499634|0.1404612213373184|-0.0381847620010376|-0.1489688754081726|XArbitraryZVertical|-0.2098827188586368|0.08314097942676056|-0.006006676606443435|0.9741667399282745|0.159464955329895|0.409920334815979|-0.898073673248291|0|0|0|-1|-1|3
2021-04-08 20:10:26.225 +0100|19605.70678425|0.233612060546875|0.399200439453125|-0.9542388916015625|19605.68682425|0.01873436841217389|0.1710526890719111|-0.4324658730917951|-0.4818590879440308|-0.06546108424663544|-0.3747290372848511|0.06977038085460663|-0.0534331202507019|-0.1137682795524597|XArbitraryZVertical|-0.2145397298044515|0.08142682251315227|-0.00921119163002203|0.9732715968105056|0.1545484960079193|0.4191109240055084|-0.8946847319602966|0|0|0|-1|-1|3
2021-04-08 20:10:26.245 +0100|19605.72674525|0.2068634033203125|0.467193603515625|-0.9579315185546875|19605.70678425|0.013366893858179|0.1670060413536913|-0.4429038120151247|-0.4563762843608856|-0.1319287866353989|-0.2677152156829834|0.07867462933063507|-0.04865065217018127|-0.07162946462631226|XArbitraryZVertical|-0.2194199043777885|0.07990451406977797|-0.01182194436372653|0.972281074747163|0.1501913517713547|0.4285649061203003|-0.8909403681755066|0|0|0|-1|-1|3
2021-04-08 20:10:26.265 +0100|19605.74670625|0.14385986328125|0.49249267578125|-0.9902496337890625|19605.72674525|0.01078284112950378|0.1620624630547773|-0.4506802004173829|-0.2144813984632492|-0.2296221107244492|-0.1029682531952858|0.079075887799263|0.01992833614349365|-0.06365472078323364|XArbitraryZVertical|-0.2231268381670966|0.07769436892883516|-0.01284752711638144|0.971603327672368|0.1452429592609406|0.435577929019928|-0.8883559703826904|0|0|0|-1|-1|3
2021-04-08 20:10:26.285 +0100|19605.76666625|0.07464599609375|0.4060821533203125|-1.016143798828125|19605.74670625|0.009237939426730971|0.157253287330702|-0.4506991181762823|0.2412360608577728|-0.1711582690477371|-0.02675923891365528|0.01850125193595886|0.05653241276741028|-0.08851784467697144|XArbitraryZVertical|-0.2231080060716975|0.07552999022416372|-0.01306235187988128|0.9717754098407971|0.1409677416086197|0.4355949461460114|-0.8890360593795776|0|0|0|-1|-1|3
2021-04-08 20:10:26.305 +0100|19605.78662725|0.1194915771484375|0.277252197265625|-0.9782562255859375|19605.76666625|0.008111753908902071|0.1556970469936071|-0.4426400365027825|0.511431872844696|0.09684254974126816|0.03172244504094124|-0.05253900587558746|0.008686065673828125|-0.1297365427017212|XArbitraryZVertical|-0.2191587111496504|0.07498472827888013|-0.01312677246278066|0.9727150205095851|0.1401238441467285|0.4283265471458435|-0.8926935195922852|0|0|0|-1|-1|3
2021-04-08 20:10:26.326 +0100|19605.80658825|0.2356414794921875|0.2393035888671875|-0.9329071044921875|19605.78662725|0.007340521233673796|0.1605155153294163|-0.4342726512255914|0.2553634941577911|0.3921544551849365|0.02803201414644718|-0.04744254052639008|-0.1147652566432953|-0.09659624099731445|XArbitraryZVertical|-0.2150265036540038|0.07750038447594372|-0.01369905085592064|0.9734318993470222|0.1449913680553436|0.4207506775856018|-0.8955146074295044|0|0|0|-1|-1|3
2021-04-08 20:10:26.344 +0100|19605.82654825|0.27288818359375|0.27252197265625|-0.9183349609375|19605.80658825|0.007945664036584383|0.1695269002169687|-0.4343721673669466|-0.2799611985683441|0.4502264261245728|0.0374104268848896|0.05373835563659668|-0.181536465883255|-0.04684823751449585|XArbitraryZVertical|-0.2150357657213814|0.08181941890001709|-0.01437748102059953|0.9730665967460838|0.1530481427907944|0.4208409488201141|-0.8941304087638855|0|0|0|-1|-1|3
2021-04-08 20:10:26.365 +0100|19605.84650925|0.223602294921875|0.3093719482421875|-0.9310760498046875|19605.82654825|0.0110214873963799|0.1793565398027416|-0.4429732436514949|-0.5555295348167419|0.3986435234546661|0.08300436288118362|0.1129761934280396|-0.1686932146549225|-0.02688974142074585|XArbitraryZVertical|-0.2192755275867676|0.08616331688169152|-0.0143193393611833|0.9717455173698224|0.1611778736114502|0.4286276400089264|-0.8889882564544678|0|0|0|-1|-1|3
2021-04-08 20:10:26.385 +0100|19605.86646925|0.20501708984375|0.2971649169921875|-0.920928955078125|19605.84650925|0.01429851010334157|0.1877779906018934|-0.4516823782630958|-0.3734739720821381|0.4440540671348572|0.1041884794831276|0.06852473318576813|-0.1315014660358429|-0.04421710968017578|XArbitraryZVertical|-0.2235875162114137|0.08977421794227779|-0.01405583206504141|0.9704390369309919|0.1679553985595703|0.4364798069000244|-0.8838984370231628|0|0|0|-1|-1|3
2021-04-08 20:10:26.404 +0100|19605.88643025|0.2344512939453125|0.2556610107421875|-0.902984619140625|19605.86646925|0.01681940992968723|0.1967685760419395|-0.452611797713166|-0.02549265883862972|0.5141991972923279|0.1296029388904572|0.02762897312641144|-0.1308116018772125|-0.04417741298675537|XArbitraryZVertical|-0.2240911494257815|0.09383987136201499|-0.01388345501705541|0.9699405608238177|0.1758158802986145|0.437315821647644|-0.8819544911384583|0|0|0|-1|-1|3
2021-04-08 20:10:26.425 +0100|19605.90639125|0.24822998046875|0.24365234375|-0.8953857421875|19605.88643025|0.01928743709122102|0.2072790926854327|-0.4460727707248947|0.2003589868545532|0.4685606062412262|0.1682446897029877|0.04090158641338348|-0.16851606965065|-0.02174901962280273|XArbitraryZVertical|-0.2209676630175169|0.09876525758558109|-0.01352789817689803|0.9701730745768309|0.18566033244133|0.431425929069519|-0.8828374147415161|0|0|0|-1|-1|3
2021-04-08 20:10:26.444 +0100|19605.92635125|0.2433929443359375|0.2393951416015625|-0.8968505859375|19605.90639125|0.02292817106308246|0.2184634866349613|-0.4367615313173979|0.255175918340683|0.3986156582832336|0.2195172905921936|0.05347743630409241|-0.1736624240875244|-0.008263289928436279|XArbitraryZVertical|-0.216563799541263|0.1039496733209653|-0.01249150809666228|0.9706383320364909|0.1963846534490585|0.4230072200298309|-0.8845891952514648|0|0|0|-1|-1|3
2021-04-08 20:10:26.464 +0100|19605.94631225|0.232696533203125|0.2666015625|-0.9050445556640625|19605.92635125|0.02692779090962658|0.2282465488265092|-0.4289667516069243|0.1584005653858185|0.3468902409076691|0.2170697599649429|0.03524304926395416|-0.183264434337616|-0.01314550638198853|XArbitraryZVertical|-0.2129369730093551|0.108409356216653|-0.01116598671285888|0.970968996045917|0.2057689428329468|0.4159314036369324|-0.8858104944229126|0|0|0|-1|-1|3
2021-04-08 20:10:26.484 +0100|19605.96627325|0.2350006103515625|0.2578582763671875|-0.89544677734375|19605.94631225|0.030589396429643|0.2360946860913132|-0.423604679879328|0.06056882441043854|0.3124331533908844|0.1679877042770386|0.02520014345645905|-0.1459420621395111|-0.01792681217193604|XArbitraryZVertical|-0.2104958138386218|0.1119352945316451|-0.009907414113679737|0.9711148265006746|0.2132331132888794|0.4110491871833801|-0.8863239884376526|0|0|0|-1|-1|3
2021-04-08 20:10:26.504 +0100|19605.98623325|0.2329864501953125|0.28857421875|-0.876953125|19605.96627325|0.03312107831983425|0.2434115577579634|-0.4202623475761367|-0.0646967738866806|0.2915129661560059|0.07135489583015442|0.01041056215763092|-0.1467227935791016|-0.01062923669815063|XArbitraryZVertical|-0.2089830829179762|0.1152901419156026|-0.009244558725784151|0.9710555683572071|0.2200423628091812|0.4079999923706055|-0.8860685229301453|0|0|0|-1|-1|3
2021-04-08 20:10:26.524 +0100|19606.00619425|0.205596923828125|0.3447723388671875|-0.8727569580078125|19605.98623325|0.03526331175266927|0.2498150831988268|-0.4204248232559828|-0.2931572794914246|0.2030860036611557|0.03274083882570267|0.01252426207065582|-0.1323600113391876|0.009256899356842041|XArbitraryZVertical|-0.2091578843445545|0.1181712487431903|-0.008884096275213575|0.9706749268385005|0.2256953716278076|0.408148318529129|-0.8845770955085754|0|0|0|-1|-1|3
2021-04-08 20:10:26.544 +0100|19606.02615425|0.18304443359375|0.3694305419921875|-0.9031219482421875|19606.00619425|0.0385109471913023|0.2550405038553098|-0.4234261570503106|-0.3674547672271729|0.1392573267221451|0.07268860936164856|-0.01793842017650604|-0.0796019434928894|0.009012401103973389|XArbitraryZVertical|-0.2107841338787619|0.1202992007705437|-0.008047413837393361|0.9700688504444235|0.2300044745206833|0.4108864367008209|-0.882196307182312|0|0|0|-1|-1|3
2021-04-08 20:10:26.564 +0100|19606.04611525|0.17327880859375|0.3567047119140625|-0.934356689453125|19606.02615425|0.04204985798556241|0.2594538521941733|-0.4251983305275814|-0.1551856100559235|0.1204435974359512|0.086533322930336|-0.04561397433280945|-0.0503484308719635|-0.01499426364898682|XArbitraryZVertical|-0.2118404212493365|0.1220242066584504|-0.006912413964868401|0.9696319860543294|0.2337084859609604|0.4125014543533325|-0.8804674744606018|0|0|0|-1|-1|3
2021-04-08 20:10:26.584 +0100|19606.06607625|0.157745361328125|0.33837890625|-0.935699462890625|19606.04611525|0.04448911992799814|0.2630956965796261|-0.4229372122190804|0.01165645755827427|0.1296313405036926|0.1118374317884445|-0.06319053471088409|-0.04607507586479187|-0.0428612232208252|XArbitraryZVertical|-0.210883588431973|0.1235867614393797|-0.005965641766511541|0.9696488964069954|0.2371554225683212|0.4104406237602234|-0.8805088400840759|0|0|0|-1|-1|3
2021-04-08 20:10:26.604 +0100|19606.08603625|0.1225433349609375|0.317108154296875|-0.915130615234375|19606.06607625|0.0466916970894419|0.2675247796768439|-0.4188631877277545|0.04544293135404587|0.172883152961731|0.08304519951343536|-0.07891112565994263|-0.06548890471458435|-0.05340802669525146|XArbitraryZVertical|-0.2090357792384491|0.1256042956237563|-0.005089628942482459|0.9697947931393643|0.2414929568767548|0.4067221879959106|-0.8810552358627319|0|0|0|-1|-1|3
2021-04-08 20:10:26.624 +0100|19606.10599725|0.0793304443359375|0.303924560546875|-0.8910675048828125|19606.08603625|0.04763134674693372|0.2714057292904064|-0.417011830503819|-0.05142910405993462|0.2096575647592545|-0.002227708697319031|-0.1119337677955627|-0.08309927582740784|-0.04522037506103516|XArbitraryZVertical|-0.2081890411308227|0.1274350390508685|-0.004912725456984726|0.9697390006938014|0.2451118975877762|0.4050301611423492|-0.8808352947235107|0|0|0|-1|-1|3
2021-04-08 20:10:26.644 +0100|19606.12595825|0.0400390625|0.3219146728515625|-0.8628082275390625|19606.10599725|0.04675348913595589|0.2740014693481699|-0.4190959462671903|-0.1885690242052078|0.2013052105903625|-0.09888198971748352|-0.1555248200893402|-0.09901148080825806|-0.01388299465179443|XArbitraryZVertical|-0.2091348424967751|0.1287317643530876|-0.005752684706028438|0.9693595140070085|0.2471685409545898|0.4069347977638245|-0.8793814778327942|0|0|0|-1|-1|3
2021-04-08 20:10:26.664 +0100|19606.14591825|-0.0212249755859375|0.38055419921875|-0.8475341796875|19606.12595825|0.04329068378796771|0.2754651073456161|-0.4233519889536419|-0.1828920096158981|0.2347087562084198|-0.2777647376060486|-0.1982694864273071|-0.09929442405700684|0.01021802425384521|XArbitraryZVertical|-0.2109656319647507|0.1296973383846886|-0.007879095687799646|0.9688189998582212|0.2479820549488068|0.4108188152313232|-0.8773441910743713|0|0|0|-1|-1|3
2021-04-08 20:10:26.684 +0100|19606.16587925|-0.099456787109375|0.3611907958984375|-0.8314056396484375|19606.14591825|0.03442294781601062|0.2748909701578339|-0.4268959380972819|-0.07845113426446915|0.2687600255012512|-0.5522119998931885|-0.251217246055603|-0.04572972655296326|0.02839314937591553|XArbitraryZVertical|-0.2121066087212488|0.1302726035054001|-0.01235787969748403|0.9684458415588219|0.2470815479755402|0.4140473008155823|-0.8760796785354614|0|0|0|-1|-1|3
2021-04-08 20:10:26.704 +0100|19606.18583925|-0.1287078857421875|0.3320465087890625|-0.825897216796875|19606.16587925|0.01884792027720361|0.2719737852961642|-0.4300437898655872|-0.02533984370529652|0.3446299731731415|-0.8324174880981445|-0.326144278049469|-0.04973742365837097|0.0382416844367981|XArbitraryZVertical|-0.2126377320220748|0.1304481701627591|-0.01980291173869782|0.9681821151909991|0.2441734820604324|0.4169106185436249|-0.8755369186401367|0|0|0|-1|-1|3
2021-04-08 20:10:26.724 +0100|19606.20580025|-0.0971221923828125|0.352203369140625|-0.83404541015625|19606.18583925|-0.001624535149374596|0.2695629683402591|-0.4361130715180922|-0.1574498564004898|0.398471474647522|-1.057090759277344|-0.3698328137397766|-0.07814982533454895|0.05092954635620117|XArbitraryZVertical|-0.214263969995184|0.1313658520647928|-0.02985525657186834|0.9674413035875506|0.2413836866617203|0.422419548034668|-0.8736679553985596|0|0|0|-1|-1|3
2021-04-08 20:10:26.744 +0100|19606.22576125|-0.0493011474609375|0.429656982421875|-0.845611572265625|19606.20580025|-0.02514645526668919|0.2667531245611012|-0.4464959798089556|-0.2747673094272614|0.3168659210205078|-1.270619034767151|-0.3455628752708435|-0.09737992286682129|0.04091781377792358|XArbitraryZVertical|-0.2177840136348121|0.1324299752278142|-0.04159151244556064|0.9660758668797774|0.2377588748931885|0.4318076968193054|-0.8700648546218872|0|0|0|-1|-1|3
2021-04-08 20:10:26.764 +0100|19606.24572125|-0.0530548095703125|0.450439453125|-0.8688507080078125|19606.22576125|-0.05314069908172472|0.260065405065357|-0.4592541272025236|-0.2706903219223022|0.2433398365974426|-1.496180415153503|-0.2922981381416321|-0.02704951167106628|0.03163111209869385|XArbitraryZVertical|-0.2222586450890732|0.1322144418775961|-0.05515501210793102|0.9644058252435619|0.2304994016885757|0.4432796537876129|-0.8662408590316772|0|0|0|-1|-1|3
2021-04-08 20:10:26.784 +0100|19606.26568225|-0.1215362548828125|0.44305419921875|-0.8954315185546875|19606.24572125|-0.08684377470866898|0.249426683752165|-0.4716026549942655|-0.1792643219232559|0.2221805602312088|-1.735881447792053|-0.2645354270935059|-0.006010502576828003|0.008110165596008301|XArbitraryZVertical|-0.226339103956463|0.1308964675286847|-0.07091216218082105|0.9626049339946519|0.2199027836322784|0.4543145895004272|-0.8632734417915344|0|0|0|-1|-1|3
2021-04-08 20:10:26.804 +0100|19606.28564325|-0.2027130126953125|0.5075225830078125|-0.8923797607421875|19606.26568225|-0.1261841197363891|0.2366970686400566|-0.484416586072476|-0.2543430328369141|0.3423963189125061|-1.985748767852783|-0.3072460889816284|-0.02407145500183105|-0.03404480218887329|XArbitraryZVertical|-0.2304682259580947|0.1294145486528696|-0.08904462646541368|0.9603163436545393|0.2075138986110687|0.4656921625137329|-0.8602725267410278|0|0|0|-1|-1|3
2021-04-08 20:10:26.824 +0100|19606.30560325|-0.237762451171875|0.5676116943359375|-0.8694915771484375|19606.28564325|-0.1717440900284933|0.2244816921649991|-0.5005918854291218|-0.3999021053314209|0.5976741313934326|-2.275913000106812|-0.3823916614055634|0.007452160120010376|-0.04403531551361084|XArbitraryZVertical|-0.2359182104858983|0.1292251896019924|-0.11021157289469|0.9568160490659008|0.1952876299619675|0.4799448847770691|-0.8552868962287903|0|0|0|-1|-1|3
2021-04-08 20:10:26.844 +0100|19606.32556425|-0.271453857421875|0.5887298583984375|-0.8808441162109375|19606.30560325|-0.2229985523016267|0.2138509531534991|-0.5183751797459795|-0.306199312210083|0.8278999924659729|-2.48482871055603|-0.4168274700641632|0.05847117304801941|-0.0198284387588501|XArbitraryZVertical|-0.2417710819763011|0.1308713022795472|-0.1341200751402238|0.9520669114734621|0.1843437552452087|0.4954694211483002|-0.8488388657569885|0|0|0|-1|-1|3
2021-04-08 20:10:26.864 +0100|19606.34552425|-0.35198974609375|0.606109619140625|-0.9562225341796875|19606.32556425|-0.280464600503481|0.2025547151682872|-0.5321566245414094|0.03181571885943413|0.8959707021713257|-2.683541059494019|-0.4298086166381836|0.08101719617843628|-0.02696514129638672|XArbitraryZVertical|-0.2453999961065913|0.1331538109802475|-0.1604878017697539|0.9467273789109182|0.173353299498558|0.507392942905426|-0.8440977931022644|0|0|0|-1|-1|3
2021-04-08 20:10:26.884 +0100|19606.36548525|-0.3944854736328125|0.6337432861328125|-1.01324462890625|19606.34552425|-0.3459069246896978|0.186974700046124|-0.5381542732894418|0.4686753451824188|0.8931263089179993|-2.979896545410156|-0.4904704093933105|0.08989614248275757|-0.09162694215774536|XArbitraryZVertical|-0.2452451972941226|0.1341991180890948|-0.1896219755221938|0.9412168358374352|0.1596131771802902|0.51255202293396|-0.8436907529830933|0|0|0|-1|-1|3
2021-04-08 20:10:26.904 +0100|19606.38544625|-0.1940460205078125|0.6643218994140625|-0.9820556640625|19606.36548525|-0.4200263227870173|0.1675430455757642|-0.5356813718012635|0.9191425442695618|1.007484912872314|-3.22995400428772|-0.5393977165222168|0.1155501008033752|-0.1654865145683289|XArbitraryZVertical|-0.2411054876239979|0.1338960050721475|-0.2219921973572941|0.9352324401553301|0.1434006989002228|0.5104270577430725|-0.8478800058364868|0|0|0|-1|-1|3
2021-04-08 20:10:26.923 +0100|19606.40540625|0.137176513671875|0.6873779296875|-0.8864593505859375|19606.38544625|-0.5003698149828488|0.1491406263961091|-0.5224665610318028|1.483390808105469|1.18239152431488|-3.423032283782959|-0.4008152484893799|0.1599932610988617|-0.1370930671691895|XArbitraryZVertical|-0.231716438323373|0.1334988764097036|-0.2571609572745796|0.928630179549801|0.1287653297185898|0.4990191459655762|-0.8569710850715637|0|0|0|-1|-1|3
2021-04-08 20:10:26.944 +0100|19606.42536725|0.3250885009765625|0.700347900390625|-0.828399658203125|19606.40540625|-0.5862551359371574|0.129905548773984|-0.5005168676318801|1.628554821014404|1.053543925285339|-3.720941543579102|-0.05553062260150909|0.2028759717941284|-0.04044264554977417|XArbitraryZVertical|-0.218420125303762|0.1316110354954385|-0.2947451406199876|0.9209216451020656|0.1136503592133522|0.4798790812492371|-0.8699423670768738|0|0|0|-1|-1|3
2021-04-08 20:10:26.963 +0100|19606.44532725|0.3250274658203125|0.824249267578125|-0.7618560791015625|19606.42536725|-0.6754936782354637|0.1060571489531352|-0.4815474422032701|1.09714138507843|0.7781143188476562|-3.815184354782104|0.2094320058822632|0.2256309688091278|0.03680187463760376|XArbitraryZVertical|-0.2076092663701675|0.1274701805285328|-0.3332760407555252|0.9108111789486041|0.09382013976573944|0.4631511867046356|-0.8812994956970215|0|0|0|-1|-1|3
2021-04-08 20:10:26.983 +0100|19606.46528825|0.321990966796875|1.043350219726562|-0.782928466796875|19606.44532725|-0.7595673969906818|0.08176926237187226|-0.4732213301721238|0.5064833164215088|0.6645659208297729|-3.525591135025024|0.2524768710136414|0.3203369081020355|0.1213989853858948|XArbitraryZVertical|-0.2027939571813413|0.123730559758038|-0.3689878033327221|0.8985618620321009|0.07270213216543198|0.4557559788227081|-0.8871307373046875|0|0|0|-1|-1|3
2021-04-08 20:10:27.003 +0100|19606.48524925|0.2769927978515625|1.200607299804688|-0.7298736572265625|19606.46528825|-0.8361910944652849|0.06001602279527685|-0.467852947175926|0.5940384864807129|0.6617927551269531|-3.294736623764038|0.2738112509250641|0.5367001295089722|0.1023727655410767|XArbitraryZVertical|-0.199886935908908|0.120745066761155|-0.401140166836134|0.8857497482587029|0.05353446677327156|0.4509710073471069|-0.8909316658973694|0|0|0|-1|-1|3
2021-04-08 20:10:27.024 +0100|19606.50520925|0.286376953125|1.302017211914062|-0.698822021484375|19606.48524925|-0.9089102187951722|0.04245495908978742|-0.4557951453269081|0.9419797658920288|0.8552257418632507|-3.146112203598022|0.2459929585456848|0.7338197231292725|0.141624391078949|XArbitraryZVertical|-0.1938757342280042|0.1177330730139479|-0.4318349568194043|0.8729661584741328|0.03810933977365494|0.4401764273643494|-0.8971022367477417|0|0|0|-1|-1|3
2021-04-08 20:10:27.043 +0100|19606.52517025|0.166046142578125|1.244842529296875|-0.6865997314453125|19606.50520925|-0.9761147644362744|0.03090065696424751|-0.4370425658760438|1.070651412010193|0.8720981478691101|-2.822076320648193|0.2670510709285736|0.8547381162643433|0.1979027986526489|XArbitraryZVertical|-0.1843803928594179|0.1149626802026342|-0.4606633977399726|0.8605678188744541|0.0279917698353529|0.4232618510723114|-0.9055749177932739|0|0|0|-1|-1|3
2021-04-08 20:10:27.063 +0100|19606.54513125|0.1372833251953125|1.128082275390625|-0.624176025390625|19606.52517025|-1.033993617266458|0.02437670815131471|-0.4196558515610773|0.7506018877029419|0.9008196592330933|-2.392606496810913|0.1728231906890869|0.86741042137146|0.2342164516448975|XArbitraryZVertical|-0.175163919909087|0.1133077623188021|-0.4856016677158967|0.848922866778711|0.02225931733846664|0.4074462056159973|-0.9129579067230225|0|0|0|-1|-1|3
2021-04-08 20:10:27.083 +0100|19606.56509125|0.2537078857421875|1.0213623046875|-0.5535125732421875|19606.54513125|-1.081263651028917|0.02405001998508555|-0.4125634025623514|0.03212040290236473|0.9496209621429443|-1.911444067955017|0.1033961325883865|0.7585716843605042|0.2826981544494629|XArbitraryZVertical|-0.1695405655424048|0.1155008533454505|-0.5058415030931822|0.8378782806392739|0.02203000336885452|0.4009589552879333|-0.9158310890197754|0|0|0|-1|-1|3
2021-04-08 20:10:27.103 +0100|19606.58505225|0.3624725341796875|0.9812774658203125|-0.5327301025390625|19606.56509125|-1.116949380800859|0.02729901365570839|-0.4192752544748644|-0.5772972702980042|0.7666837573051453|-1.378343939781189|0.1972965151071548|0.6316128969192505|0.3395880460739136|XArbitraryZVertical|-0.169396177421705|0.1215852645996595|-0.5206525593811724|0.8279148761800734|0.02493139170110226|0.4070985913276672|-0.9130439162254333|0|0|0|-1|-1|3
2021-04-08 20:10:27.123 +0100|19606.60501325|0.4415435791015625|1.019393920898438|-0.5853729248046875|19606.58505225|-1.140278919979332|0.02948808486460442|-0.4330175165383464|-0.6445162296295166|0.4055126309394836|-0.7845152020454407|0.3134157657623291|0.5661823153495789|0.3763031959533691|XArbitraryZVertical|-0.1730503442428021|0.1280587186823839|-0.5297570807115959|0.8203730968186841|0.02676256559789181|0.4196117222309113|-0.9073091149330139|0|0|0|-1|-1|3
2021-04-08 20:10:27.143 +0100|19606.62497375|0.3762664794921875|0.9556884765625|-0.646240234375|19606.60501325|-1.151792590536307|0.02852390822860889|-0.4430494179370473|-0.2686161994934082|-0.008939326740801334|-0.3205640614032745|0.4058426022529602|0.5845328569412231|0.3371478319168091|XArbitraryZVertical|-0.1766823536401831|0.1313118248055948|-0.5338530122119411|0.8164200158655139|0.02576639130711555|0.4286964535713196|-0.9030811190605164|0|0|0|-1|-1|3
2021-04-08 20:10:27.163 +0100|19606.64493475|0.2940673828125|0.8455810546875|-0.6838226318359375|19606.62497375|-1.154943600279606|0.02448271968121606|-0.4447788165317436|0.04043852165341377|-0.225148007273674|0.04583569243550301|0.3794507086277008|0.5523009300231934|0.27490234375|XArbitraryZVertical|-0.1782641236433122|0.1304003049076207|-0.5346857034998896|0.8156769397560983|0.0220984872430563|0.4302582144737244|-0.902435302734375|0|0|0|-1|-1|3
2021-04-08 20:10:27.183 +0100|19606.66489475|0.274505615234375|0.7248992919921875|-0.6604766845703125|19606.64493475|-1.149102524523461|0.02194240473347745|-0.4454704935880069|-0.1774251312017441|-0.2669020891189575|0.478582501411438|0.2867790758609772|0.4456127882003784|0.2250210046768188|XArbitraryZVertical|-0.1796037429104677|0.1290235614898063|-0.5320354697515086|0.8173334200102493|0.01979941502213478|0.4308825135231018|-0.9021908044815063|0|0|0|-1|-1|3
2021-04-08 20:10:27.203 +0100|19606.68485575|0.254608154296875|0.6134185791015625|-0.6230010986328125|19606.66489475|-1.133994966953719|0.02254460824598753|-0.4533095339449061|-0.6559444665908813|-0.3495931029319763|0.8653402328491211|0.2586941123008728|0.3148338794708252|0.2254495620727539|XArbitraryZVertical|-0.1836430371914726|0.129954331623212|-0.5254680502116212|0.8205307234401378|0.02026594616472721|0.4379432201385498|-0.8987742066383362|0|0|0|-1|-1|3
2021-04-08 20:10:27.223 +0100|19606.70481675|0.215362548828125|0.6036224365234375|-0.6198272705078125|19606.68485575|-1.110124550800406|0.02455064108209653|-0.4704753634056336|-1.080206751823425|-0.524572491645813|1.233462810516357|0.2386921495199203|0.1838359236717224|0.2596145272254944|XArbitraryZVertical|-0.1917764974073876|0.1329647199917508|-0.5148750315835293|0.8248915497942949|0.02188108675181866|0.4533100426197052|-0.8910843133926392|0|0|0|-1|-1|3
2021-04-08 20:10:27.243 +0100|19606.72477675|0.172454833984375|0.6687469482421875|-0.6902923583984375|19606.70481675|-1.078522569906637|0.02623707560417224|-0.4929924211591873|-1.176505208015442|-0.7765828967094421|1.495168566703796|0.2045193761587143|0.1197839975357056|0.2690909504890442|XArbitraryZVertical|-0.2028294291244954|0.1362039501869549|-0.5006846120661325|0.8304358153297197|0.02311012893915176|0.4732640981674194|-0.8806174397468567|0|0|0|-1|-1|3
2021-04-08 20:10:27.263 +0100|19606.74473775|0.1363372802734375|0.65234375|-0.774383544921875|19606.72477675|-1.04160975883261|0.02633099721082218|-0.5120990321478279|-0.7488450407981873|-0.9764289855957031|1.688534140586853|0.1604895144701004|0.1662114560604095|0.2012344598770142|XArbitraryZVertical|-0.2133270987633502|0.1370535520022448|-0.4842068353004331|0.8374078061001362|0.0229505505412817|0.4900080859661102|-0.8714157342910767|0|0|0|-1|-1|3
2021-04-08 20:10:27.283 +0100|19606.76469875|0.1127777099609375|0.552581787109375|-0.8827362060546875|19606.74473775|-1.001390819616102|0.02568209349091829|-0.5192754196543836|-0.07842002063989639|-1.062030553817749|1.785401940345764|0.1221749037504196|0.1754255294799805|0.1152987480163574|XArbitraryZVertical|-0.2192405178288803|0.1341164992290898|-0.4668000223793956|0.8461940263908515|0.02229420281946659|0.4962511956691742|-0.8678927421569824|0|0|0|-1|-1|3
2021-04-08 20:10:27.303 +0100|19606.78465875|0.046966552734375|0.46923828125|-0.925628662109375|19606.76469875|-0.9594953163560618|0.0247075439734692|-0.5163529845375655|0.1925231069326401|-1.11068868637085|1.875602841377258|0.09907446801662445|0.08020183444023132|0.01631760597229004|XArbitraryZVertical|-0.2209653019386043|0.1284299944384914|-0.44902199569927|0.8561889634341637|0.02148412540555|0.4937118887901306|-0.8693601489067078|0|0|0|-1|-1|3
2021-04-08 20:10:27.323 +0100|19606.80461975|0.0252532958984375|0.4300079345703125|-0.9448089599609375|19606.78465875|-0.9156354681079791|0.02458674710308742|-0.5142098694873743|-0.1426068842411041|-1.056930422782898|1.945024609565735|0.04405403137207031|-0.001627743244171143|-0.05411148071289062|XArbitraryZVertical|-0.2228234873347075|0.1230465101698667|-0.43023510277518|0.866087321505486|0.02140507288277149|0.491847038269043|-0.8704184889793396|0|0|0|-1|-1|3
2021-04-08 20:10:27.343 +0100|19606.82457975|-0.013519287109375|0.4565277099609375|-0.9228668212890625|19606.80461975|-0.8699753224186001|0.02611901163105499|-0.5216234910795364|-0.6825159788131714|-1.062869548797607|2.01790452003479|0.005126997828483582|-0.06780716776847839|-0.07493460178375244|XArbitraryZVertical|-0.2285143579747446|0.1200972515071733|-0.4101670347294035|0.8747120215681107|0.02264290675520897|0.4982883930206299|-0.866715669631958|0|0|0|-1|-1|3
2021-04-08 20:10:27.363 +0100|19606.84454075|-0.0988311767578125|0.4997100830078125|-0.9555206298828125|19606.82457975|-0.8221216001984076|0.02827141729352652|-0.5377739455128935|-0.9786551594734192|-1.145725607872009|2.065004348754883|-0.02449241280555725|-0.06173992156982422|-0.06280243396759033|XArbitraryZVertical|-0.2380589659124064|0.1186338857877442|-0.3886277098401449|0.882169215559394|0.0242777019739151|0.5122253894805908|-0.8585078716278076|0|0|0|-1|-1|3
2021-04-08 20:10:27.383 +0100|19606.86450175|-0.1844940185546875|0.531463623046875|-0.994171142578125|19606.84454075|-0.7731792729325662|0.0304940219532561|-0.5553315557936225|-0.8635988831520081|-1.147880911827087|2.063044309616089|-0.09841836988925934|-0.03863835334777832|-0.0991097092628479|XArbitraryZVertical|-0.2483244871018976|0.116917157083899|-0.3664194532582443|0.8890456681348321|0.02590753883123398|0.5272250771522522|-0.8493306636810303|0|0|0|-1|-1|3
2021-04-08 20:10:27.403 +0100|19606.88446175|-0.20513916015625|0.537261962890625|-1.016586303710938|19606.86450175|-0.7240751492413886|0.0352238984512351|-0.5681505052684853|-0.5427114963531494|-0.9903361797332764|2.051670074462891|-0.1971960514783859|-0.01239311695098877|-0.1446551084518433|XArbitraryZVertical|-0.2560738100769938|0.1150600482358617|-0.344548470990537|0.895809117967696|0.02968400157988071|0.5380740165710449|-0.8423748016357422|0|0|0|-1|-1|3
2021-04-08 20:10:27.423 +0100|19606.90442275|-0.2133331298828125|0.5012054443359375|-1.0380859375|19606.88446175|-0.6754475147779949|0.04317671311239606|-0.5736970887552537|-0.1702566295862198|-0.8587990999221802|2.027748823165894|-0.2411184012889862|-0.004578292369842529|-0.1755613088607788|XArbitraryZVertical|-0.2600260496268716|0.1132596366201077|-0.3234902835376363|0.902725232820464|0.03625286370515823|0.5427409410476685|-0.8391174077987671|0|0|0|-1|-1|3
2021-04-08 20:10:27.443 +0100|19606.92438375|-0.2029571533203125|0.4180145263671875|-1.033905029296875|19606.90442275|-0.6271527424306871|0.05313043476672211|-0.5714990328540911|0.1725959032773972|-0.7645077705383301|2.038394927978516|-0.2570393681526184|-0.02639716863632202|-0.1991122364997864|XArbitraryZVertical|-0.2601755664368107|0.1111599857967399|-0.3029723140579932|0.910032962375928|0.04466651380062103|0.5408934950828552|-0.839904248714447|0|0|0|-1|-1|3
2021-04-08 20:10:27.462 +0100|19606.94434375|-0.16766357421875|0.371002197265625|-1.022293090820312|19606.92438375|-0.5793513777257017|0.0644981033890801|-0.5639075871163746|0.3149242401123047|-0.6811251044273376|2.03311562538147|-0.2641615271568298|-0.0954207181930542|-0.1924574971199036|XArbitraryZVertical|-0.2576556304122103|0.1091134344005355|-0.2828172445697815|0.9174543066863858|0.05447426810860634|0.5344928503036499|-0.8434156775474548|0|0|0|-1|-1|3
2021-04-08 20:10:27.482 +0100|19606.96430475|-0.1585235595703125|0.3704833984375|-1.020339965820312|19606.94434375|-0.5327452678734393|0.07587060962631981|-0.5550483639076783|0.287030816078186|-0.6620662808418274|1.970862150192261|-0.2397889196872711|-0.1494203805923462|-0.180478036403656|XArbitraryZVertical|-0.2545212333985401|0.1072562960457941|-0.2630037781189463|0.9244155696480278|0.06441868841648102|0.5269843935966492|-0.8474300503730774|0|0|0|-1|-1|3
2021-04-08 20:10:27.503 +0100|19606.98426575|-0.1503753662109375|0.3803863525390625|-1.0128173828125|19606.96430475|-0.4886230525359388|0.08607513996803026|-0.5468551206097035|0.2161636501550674|-0.6199711561203003|1.835973501205444|-0.2289653420448303|-0.1525866389274597|-0.1735187768936157|XArbitraryZVertical|-0.2517512596554473|0.1054531821293833|-0.2439597337209605|0.9305830325770077|0.07343154400587082|0.5200035572052002|-0.8510018587112427|0|0|0|-1|-1|3
2021-04-08 20:10:27.522 +0100|19607.00422575|-0.1187591552734375|0.3928680419921875|-0.9920501708984375|19606.98426575|-0.4490240624683376|0.09514892771050831|-0.5399242757319527|0.1813491433858871|-0.5188475251197815|1.614698052406311|-0.2402593195438385|-0.135499894618988|-0.1616196036338806|XArbitraryZVertical|-0.2495033984160274|0.1039910408802894|-0.2266891865049832|0.9357061965074588|0.08149068057537079|0.5140710473060608|-0.8538678288459778|0|0|0|-1|-1|3
2021-04-08 20:10:27.542 +0100|19607.02418675|-0.0924835205078125|0.3611907958984375|-0.9627227783203125|19607.00422575|-0.4145386461559977|0.1031907566230227|-0.5333085219683338|0.1954307556152344|-0.4504187405109406|1.403695940971375|-0.2141006588935852|-0.1139143705368042|-0.1371334791183472|XArbitraryZVertical|-0.2472843609951469|0.1028391628484046|-0.2115499992905643|0.9399582200758406|0.08870302140712738|0.508385181427002|-0.856549084186554|0|0|0|-1|-1|3
2021-04-08 20:10:27.562 +0100|19607.04414675|-0.0498809814453125|0.33135986328125|-0.9522552490234375|19607.02418675|-0.3852198439031498|0.1098162266668652|-0.5267344090599012|0.1790476143360138|-0.3753191232681274|1.189093947410583|-0.1988519281148911|-0.1312829852104187|-0.1107548475265503|XArbitraryZVertical|-0.2449908630510526|0.1017664776464449|-0.1985652358040421|0.9435015263804043|0.09474031627178192|0.5027130842208862|-0.8592461347579956|0|0|0|-1|-1|3
2021-04-08 20:10:27.582 +0100|19607.06410775|-0.06207275390625|0.316741943359375|-0.948760986328125|19607.04414675|-0.3600532982630534|0.1152218199110624|-0.5212497988359333|0.1112603768706322|-0.355777233839035|1.042529702186584|-0.154540091753006|-0.1616599559783936|-0.09509527683258057|XArbitraryZVertical|-0.2431376360663822|0.1007987619929712|-0.1873193168393664|0.9463800953960853|0.09969913214445114|0.4979643523693085|-0.8614473938941956|0|0|0|-1|-1|3
2021-04-08 20:10:27.602 +0100|19607.08406875|-0.0726470947265625|0.31964111328125|-0.922821044921875|19607.06410775|-0.3383735531293851|0.1192672923605709|-0.5175978881263584|0.03514598682522774|-0.3001860380172729|0.8696498870849609|-0.1584382653236389|-0.1759152412414551|-0.08975380659103394|XArbitraryZVertical|-0.242116220579901|0.09980631619875693|-0.1775186440796419|0.9486335583269555|0.1033989563584328|0.494794100522995|-0.8628368973731995|0|0|0|-1|-1|3
2021-04-08 20:10:27.622 +0100|19607.10402875|-0.0347137451171875|0.3403167724609375|-0.8938751220703125|19607.08406875|-0.3207393327895078|0.1230694060208712|-0.515421222710053|-0.002047853311523795|-0.1901012808084488|0.6925581097602844|-0.1797028779983521|-0.1771048009395599|-0.06947875022888184|XArbitraryZVertical|-0.2416252954657338|0.09932299491215353|-0.1695896890218858|0.9502587050427256|0.1068107634782791|0.4929013848304749|-0.8635042905807495|0|0|0|-1|-1|3
2021-04-08 20:10:27.642 +0100|19607.12398975|-0.0089569091796875|0.3586883544921875|-0.8714447021484375|19607.10402875|-0.3062142345812874|0.1270199302164352|-0.5140236437532515|0.0005001425743103027|-0.1433455944061279|0.5844820737838745|-0.1564517915248871|-0.1592256724834442|-0.038707435131073|XArbitraryZVertical|-0.2413501782640964|0.099353066065303|-0.1631470143124344|0.951452760043666|0.1103083789348602|0.4916848838329315|-0.8637581467628479|0|0|0|-1|-1|3
2021-04-08 20:10:27.662 +0100|19607.14395075|0.0025787353515625|0.3541259765625|-0.8749542236328125|19607.12398975|-0.294264835531981|0.1299131719792248|-0.5113501157868321|0.1542503982782364|-0.1505197286605835|0.4721631109714508|-0.1254288852214813|-0.1327565014362335|-0.009577333927154541|XArbitraryZVertical|-0.2404318171916918|0.09911959226590153|-0.1577758973961743|0.9526146494392864|0.1129768565297127|0.4893551170825958|-0.8647357225418091|0|0|0|-1|-1|3
2021-04-08 20:10:27.682 +0100|19607.16391075|0.0120697021484375|0.33721923828125|-0.8653411865234375|19607.14395075|-0.2863896011515683|0.1311981335891098|-0.5057530593721807|0.2952393293380737|-0.0976160392165184|0.2876575589179993|-0.1168866902589798|-0.1295920014381409|-0.00976794958114624|XArbitraryZVertical|-0.2380396030199736|0.09844449050583154|-0.1541028545935062|0.9538858274954963|0.1144444420933723|0.4844663739204407|-0.8672916889190674|0|0|0|-1|-1|3
2021-04-08 20:10:27.702 +0100|19607.18387175|0.0196380615234375|0.3357086181640625|-0.859954833984375|19607.16391075|-0.2827972042983403|0.1315752423590743|-0.4995447387429321|0.248403862118721|-0.04815464094281197|0.1075447723269463|-0.1053990945219994|-0.1359313428401947|0.001256227493286133|XArbitraryZVertical|-0.2352099507401145|0.09782410594590288|-0.152347014450889|0.9549331080939906|0.1151638850569725|0.4790259599685669|-0.8702134490013123|0|0|0|-1|-1|3
2021-04-08 20:10:27.722 +0100|19607.20383275|0.02801513671875|0.3632659912109375|-0.8546142578125|19607.18387175|-0.2825109463835194|0.1309060158589067|-0.4961465566590702|0.07604846358299255|-0.03733714669942856|-0.02721082232892513|-0.09915388375520706|-0.1436268091201782|0.00973212718963623|XArbitraryZVertical|-0.2336441857664188|0.09726666130921628|-0.1520837902948285|0.9554162588950459|0.1147933155298233|0.4760402739048004|-0.8718991875648499|0|0|0|-1|-1|3
2021-04-08 20:10:27.742 +0100|19607.22379275|0.0125579833984375|0.403289794921875|-0.8566741943359375|19607.20383275|-0.2851485330356649|0.1271162070781419|-0.4957202206986847|-0.05492632836103439|-0.0829598605632782|-0.1237009689211845|-0.08221784234046936|-0.1211418807506561|0.01701498031616211|XArbitraryZVertical|-0.2336012556303815|0.09573848049397767|-0.1528953210676506|0.9554515600945178|0.1115138828754425|0.4756653010845184|-0.8725292086601257|0|0|0|-1|-1|3
2021-04-08 20:10:27.762 +0100|19607.24375375|0.0120849609375|0.4063720703125|-0.86358642578125|19607.22379275|-0.290112121689225|0.1201824564768292|-0.4959498853549434|-0.03770032525062561|-0.1120593175292015|-0.1942619532346725|-0.08848130702972412|-0.08052659034729004|0.01494264602661133|XArbitraryZVertical|-0.2340100012093183|0.09302063399810381|-0.1544586471164384|0.9553686196231812|0.1054482534527779|0.4758673012256622|-0.8731729388237|0|0|0|-1|-1|3
2021-04-08 20:10:27.782 +0100|19607.26371375|0.011688232421875|0.4180145263671875|-0.867156982421875|19607.24375375|-0.2969155797496196|0.1122505887970701|-0.4947076464311936|0.05553869530558586|-0.1332245320081711|-0.2821250557899475|-0.08872891217470169|-0.06856942176818848|0.01493453979492188|XArbitraryZVertical|-0.2337199646684372|0.08994810078851605|-0.156768683554535|0.9553575769983198|0.09858525544404984|0.4747743606567383|-0.8745686411857605|0|0|0|-1|-1|3
2021-04-08 20:10:27.802 +0100|19607.28367475|-0.000457763671875|0.43255615234375|-0.8568572998046875|19607.26371375|-0.3053532314644691|0.1036772642482608|-0.4913446763936099|0.1222913265228271|-0.1423267871141434|-0.3437427878379822|-0.07866084575653076|-0.0572909414768219|0.01046425104141235|XArbitraryZVertical|-0.2324128143106619|0.08661343812993258|-0.1597748693804732|0.9554864999321778|0.09124848991632462|0.4718119204044342|-0.876964807510376|0|0|0|-1|-1|3
2021-04-08 20:10:27.822 +0100|19607.30363575|-0.0016632080078125|0.4302215576171875|-0.8306732177734375|19607.28367475|-0.3147530336876894|0.0952573937701742|-0.4875470898189687|0.1282578557729721|-0.1189353913068771|-0.3890040218830109|-0.08203317224979401|-0.04060304164886475|0.01815146207809448|XArbitraryZVertical|-0.2308718374321857|0.08341793426845794|-0.1632710066193589|0.9555533840287973|0.08403122425079346|0.4684602022171021|-0.8794792890548706|0|0|0|-1|-1|3
2021-04-08 20:10:27.842 +0100|19607.32359575|0.01422119140625|0.43902587890625|-0.8162994384765625|19607.30363575|-0.3250941620080384|0.08718171519453949|-0.4852870531778713|0.09425710886716843|-0.07716993987560272|-0.4380342066287994|-0.08237484842538834|-0.03526347875595093|0.04236060380935669|XArbitraryZVertical|-0.2300315646919651|0.08058934295442953|-0.167274549763351|0.955306280389646|0.07701815664768219|0.4664622843265533|-0.8811816573143005|0|0|0|-1|-1|3
2021-04-08 20:10:27.862 +0100|19607.34355675|0.00042724609375|0.4223480224609375|-0.8238525390625|19607.32359575|-0.33644122718911|0.07881948039052633|-0.4840571291360278|0.09405514597892761|-0.1040459200739861|-0.479782909154892|-0.05721119046211243|-0.02549293637275696|0.06394606828689575|XArbitraryZVertical|-0.2297015829267163|0.07780806028554256|-0.1717319124812258|0.954825296630964|0.06969202309846878|0.4653740227222443|-0.8823661804199219|0|0|0|-1|-1|3
2021-04-08 20:10:27.882 +0100|19607.36351775|-0.028289794921875|0.4415740966796875|-0.84857177734375|19607.34355675|-0.3480080846251528|0.0700312509225299|-0.4828065792927752|0.09005590528249741|-0.1083112433552742|-0.4770205914974213|-0.05817710608243942|-0.0370047390460968|0.06852227449417114|XArbitraryZVertical|-0.2294259272270814|0.07484341029965502|-0.1762470923822646|0.9543056304929873|0.06197566911578178|0.4642667770385742|-0.8835244178771973|0|0|0|-1|-1|3
2021-04-08 20:10:27.902 +0100|19607.38347775|-0.0830230712890625|0.4335784912109375|-0.8688201904296875|19607.36351775|-0.3598097548017304|0.06129593540758876|-0.4817747147746549|0.09218429028987885|-0.1130492240190506|-0.519517719745636|-0.07065841555595398|-0.02829337120056152|0.0444374680519104|XArbitraryZVertical|-0.2292791081942749|0.071945827928263|-0.1808802763778121|0.9536966788242067|0.05428485572338104|0.4633526206016541|-0.884509801864624|0|0|0|-1|-1|3
2021-04-08 20:10:27.922 +0100|19607.40343875|-0.1263580322265625|0.420318603515625|-0.861358642578125|19607.38347775|-0.3729907741237105|0.05248525147311621|-0.4802381885877766|0.1522883623838425|-0.04171495512127876|-0.5870044231414795|-0.1127510368824005|-0.02130070328712463|0.01829338073730469|XArbitraryZVertical|-0.2288884179872952|0.069125028216742|-0.1861665803311414|0.9529815840128451|0.04652700945734978|0.4619904458522797|-0.885663628578186|0|0|0|-1|-1|3
2021-04-08 20:10:27.941 +0100|19607.42339975|-0.0760498046875|0.47760009765625|-0.824188232421875|19607.40343875|-0.3876492616633722|0.04604908257728466|-0.4778482762597804|0.1636161655187607|0.1320174336433411|-0.6747896075248718|-0.1646414399147034|-0.0422053337097168|0.02019369602203369|XArbitraryZVertical|-0.2278559578358998|0.0675209427106267|-0.1924385849254856|0.9520977084983946|0.04087651520967484|0.4598695337772369|-0.88704514503479|0|0|0|-1|-1|3
2021-04-08 20:10:27.962 +0100|19607.44335975|-0.020050048828125|0.5024566650390625|-0.8272552490234375|19607.42339975|-0.4046943984982136|0.04109002063662554|-0.4760477952519319|0.1229076012969017|0.1889875531196594|-0.8244959712028503|-0.13052137196064|0.005841970443725586|0.05299538373947144|XArbitraryZVertical|-0.2269111653456416|0.06693207119193142|-0.2000067755283359|0.9508043742916688|0.03651107102632523|0.4582699835300446|-0.8880628347396851|0|0|0|-1|-1|3
2021-04-08 20:10:27.981 +0100|19607.46332075|-0.0171966552734375|0.504364013671875|-0.848388671875|19607.44335975|-0.4260347732735458|0.03407516009676136|-0.474207919783546|0.1389380395412445|0.1645574122667313|-1.023309111595154|-0.06033946573734283|0.0447094738483429|0.06704080104827881|XArbitraryZVertical|-0.2260452193127502|0.06583640143437028|-0.2093767335850798|0.9490682717245689|0.03030925989151001|0.4566339254379272|-0.8891382813453674|0|0|0|-1|-1|3
2021-04-08 20:10:28.001 +0100|19607.48328075|-0.022735595703125|0.513397216796875|-0.885894775390625|19607.46332075|-0.4511574020381715|0.0245254675222859|-0.4735357162507021|0.02387201227247715|0.165813148021698|-1.128747582435608|-0.03610768169164658|0.04883238673210144|0.04971301555633545|XArbitraryZVertical|-0.2259357769326916|0.06407890376988219|-0.22021734301105|0.9467584426277651|0.02182453311979771|0.4560357928276062|-0.8896938562393188|0|0|0|-1|-1|3
2021-04-08 20:10:28.021 +0100|19607.50324175|0.011199951171875|0.573272705078125|-0.895416259765625|19607.48328075|-0.4786020833242265|0.01313917175221509|-0.4756122849828516|-0.1149418503046036|0.1913153529167175|-1.200032591819763|-0.03473751991987228|0.04835858941078186|0.01157099008560181|XArbitraryZVertical|-0.2273399587896452|0.06203742016716467|-0.2318516314080279|0.943775810758653|0.01168055273592472|0.4578828513622284|-0.8889358043670654|0|0|0|-1|-1|3
2021-04-08 20:10:28.042 +0100|19607.52320275|0.0514984130859375|0.597442626953125|-0.89019775390625|19607.50324175|-0.5071880397739814|0.00223246143363774|-0.479540070036215|-0.1646086424589157|0.2306873798370361|-1.229443550109863|-0.00529276579618454|0.09685695171356201|-0.007295429706573486|XArbitraryZVertical|-0.2296117577486118|0.0606294687392378|-0.2439639301675778|0.9402575208917221|0.001980654196813703|0.4613711833953857|-0.8872050046920776|0|0|0|-1|-1|3
2021-04-08 20:10:28.061 +0100|19607.54316275|0.035858154296875|0.5872650146484375|-0.867950439453125|19607.52320275|-0.5354844423915266|-0.007329558284363137|-0.4831921120988857|-0.1169499605894089|0.2205261290073395|-1.232853055000305|0.05359330028295517|0.1309886574745178|-0.003346860408782959|XArbitraryZVertical|-0.2316680386221368|0.05986344125431038|-0.2560241078164818|0.9365884901450237|-0.006490385625511408|0.4646081924438477|-0.8854925632476807|0|0|0|-1|-1|3
2021-04-08 20:10:28.081 +0100|19607.56312375|-0.011260986328125|0.63568115234375|-0.8619842529296875|19607.54316275|-0.5632672783129086|-0.0163557658732068|-0.4862054127444686|-0.09508519619703293|0.2206667065620422|-1.196840763092041|0.05727486312389374|0.1233022511005402|0.007911026477813721|XArbitraryZVertical|-0.233429950483805|0.05927397971797375|-0.2678531097331289|0.9328729635030352|-0.01445969007909298|0.4672744274139404|-0.8839941024780273|0|0|0|-1|-1|3
2021-04-08 20:10:28.101 +0100|19607.58308475|-0.098114013671875|0.6807403564453125|-0.889617919921875|19607.56312375|-0.5896595996745798|-0.02450247781174136|-0.4864927815585777|0.03591571003198624|0.2053694576025009|-1.120777249336243|0.02170227468013763|0.1462415456771851|0.02590960264205933|XArbitraryZVertical|-0.2338999601247577|0.05860434892668699|-0.2791782075021279|0.929470769376723|-0.02165748551487923|0.4675284624099731|-0.8837126493453979|0|0|0|-1|-1|3
2021-04-08 20:10:28.121 +0100|19607.60304475|-0.1978607177734375|0.5868682861328125|-0.93865966796875|19607.58308475|-0.6138596248340285|-0.03062799644477945|-0.4816269175257537|0.4361956119537354|0.3266242444515228|-1.063123941421509|-0.04306709766387939|0.2207998335361481|-0.0009831786155700684|XArbitraryZVertical|-0.2318133915382139|0.05787161269963084|-0.2898991981932687|0.9267535414303331|-0.02713958919048309|0.4632216393947601|-0.8858268260955811|0|0|0|-1|-1|3
2021-04-08 20:10:28.141 +0100|19607.62300575|-0.2392425537109375|0.430755615234375|-0.9625091552734375|19607.60304475|-0.6378200936978311|-0.0339048443085388|-0.4680989139146972|0.8311084508895874|0.4546960890293121|-1.112979531288147|-0.1434247344732285|0.1693390905857086|-0.03859645128250122|XArbitraryZVertical|-0.2253629116676542|0.0570453510621718|-0.3012063848465845|0.924787643456911|-0.03025182336568832|0.4511905312538147|-0.8919147849082947|0|0|0|-1|-1|3
2021-04-08 20:10:28.161 +0100|19607.642965875|-0.169830322265625|0.3483734130859375|-0.9961395263671875|19607.62300575|-0.6626998596093461|-0.0342771469366467|-0.4488557891298225|0.9721071720123291|0.5981709361076355|-1.208493947982788|-0.2069334983825684|0.0373941957950592|-0.04979532957077026|XArbitraryZVertical|-0.2158473888840181|0.05658972130492634|-0.3135081902484044|0.9229953349800365|-0.03087575174868107|0.4339349567890167|-0.9004150032997131|0|0|0|-1|-1|3
2021-04-08 20:10:28.181 +0100|19607.662925875|-0.0885772705078125|0.2679290771484375|-1.051162719726562|19607.642965875|-0.6904516467769527|-0.03246788871211453|-0.4295575479675818|0.8262165784835815|0.752154529094696|-1.363458275794983|-0.1685929000377655|-0.05440765619277954|-0.08528631925582886|XArbitraryZVertical|-0.2058971591940397|0.057191590202387|-0.3273344892912448|0.9204280171645803|-0.02951299957931042|0.4164685904979706|-0.908670961856842|0|0|0|-1|-1|3
2021-04-08 20:10:28.201 +0100|19607.682886875|-0.0413970947265625|0.20294189453125|-1.105056762695312|19607.662925875|-0.7220024272422082|-0.02972225300462578|-0.4143526566843081|0.618498682975769|0.814777135848999|-1.581034541130066|-0.07498610019683838|-0.1160980761051178|-0.1286517977714539|XArbitraryZVertical|-0.1975543408536226|0.05904115417273645|-0.3427599484442219|0.916516346918561|-0.02720306627452374|0.4025974571704865|-0.9149728417396545|0|0|0|-1|-1|3
2021-04-08 20:10:28.221 +0100|19607.702846875|-0.0444488525390625|0.1655426025390625|-1.126937866210938|19607.682886875|-0.7592897078105496|-0.0273222796876126|-0.4017275732275272|0.5631489753723145|0.9016535878181458|-1.899342894554138|-0.02522639185190201|-0.1766531467437744|-0.1757358908653259|XArbitraryZVertical|-0.190253004861979|0.06149885475433369|-0.3605743925478511|0.9110477297868729|-0.02514394000172615|0.3910089731216431|-0.9200433492660522|0|0|0|-1|-1|3
2021-04-08 20:10:28.241 +0100|19607.722807875|-0.063385009765625|0.139404296875|-1.145645141601562|19607.702846875|-0.8039607557866442|-0.02565791112126594|-0.3887369653855701|0.6571032404899597|0.9920576214790344|-2.250433444976807|-0.01785560511052608|-0.2066411077976227|-0.192805290222168|XArbitraryZVertical|-0.1826607521621691|0.06397719057030875|-0.3815625789998968|0.9038540366665193|-0.02374093234539032|0.3790199160575867|-0.9250839352607727|0|0|0|-1|-1|3
2021-04-08 20:10:28.261 +0100|19607.742768875|-0.021392822265625|0.102691650390625|-1.1954345703125|19607.722807875|-0.8549496016413344|-0.02414264974868217|-0.3722714799648461|0.9104673266410828|1.070492506027222|-2.522616147994995|-0.03790860623121262|-0.2173087000846863|-0.2186243534088135|XArbitraryZVertical|-0.1733156192377671|0.06592156122971593|-0.4053505134661076|0.895157586228653|-0.02248677983880043|0.363732248544693|-0.9312320947647095|0|0|0|-1|-1|3
2021-04-08 20:10:28.281 +0100|19607.762728875|0.084503173828125|0.1377410888671875|-1.185226440429688|19607.742768875|-0.9105368992098566|-0.02157271265161844|-0.3495039705106086|1.222121715545654|1.153671622276306|-2.725820064544678|-0.02079558931291103|-0.2371154725551605|-0.2410346865653992|XArbitraryZVertical|-0.1608160395304912|0.06690414437710407|-0.4312971121676414|0.8852371972060075|-0.02026691287755966|0.3424318134784698|-0.9393240809440613|0|0|0|-1|-1|3
2021-04-08 20:10:28.301 +0100|19607.782689875|0.189605712890625|0.19073486328125|-1.148361206054688|19607.762728875|-0.9696692191792614|-0.01767203482674121|-0.3218941056073595|1.401827812194824|1.151171445846558|-2.934155225753784|0.0717397928237915|-0.1880373954772949|-0.2359583973884583|XArbitraryZVertical|-0.1458435633443113|0.06696840135166507|-0.4587678569077999|0.8739434281890139|-0.01676348969340324|0.3163639605045319|-0.948489785194397|0|0|0|-1|-1|3
2021-04-08 20:10:28.321 +0100|19607.802650875|0.2978973388671875|0.32391357421875|-1.031219482421875|19607.782689875|-1.033769117406874|-0.01495935045122792|-0.2920787331212726|1.458083271980286|1.070937752723694|-3.262971878051758|0.1775779277086258|-0.1148172616958618|-0.2050573825836182|XArbitraryZVertical|-0.1301637422344869|0.0654773182035663|-0.487953763582715|0.8606226572570871|-0.01432524900883436|0.2879435420036316|-0.9575402140617371|0|0|0|-1|-1|3
2021-04-08 20:10:28.341 +0100|19607.822610875|0.427520751953125|0.4826202392578125|-0.95697021484375|19607.802650875|-1.105472616066618|-0.01387426859070704|-0.2645370387260033|1.142086863517761|0.9976984858512878|-3.707531452178955|0.2797475159168243|0.02644038200378418|-0.09968328475952148|XArbitraryZVertical|-0.1158521767581937|0.06338685380706802|-0.5196409514779617|0.8441171977504662|-0.01339120417833328|0.2614624500274658|-0.9651207327842712|0|0|0|-1|-1|3
2021-04-08 20:10:28.361 +0100|19607.842571875|0.5572357177734375|0.7462158203125|-0.93280029296875|19607.822610875|-1.186579745980037|-0.01531745634468177|-0.2456422078696789|0.5911705493927002|0.9017543196678162|-4.1466965675354|0.407174676656723|0.1852720975875854|0.003436923027038574|XArbitraryZVertical|-0.1058225119723548|0.06219171379552442|-0.554085802290076|0.8233607860716581|-0.01485706586390734|0.2431793063879013|-0.9698675870895386|0|0|0|-1|-1|3
2021-04-08 20:10:28.381 +0100|19607.862532875|0.7429962158203125|1.106613159179688|-0.9302215576171875|19607.842571875|-1.273415098014444|-0.01777494715608558|-0.238663158405762|0.02721697464585304|0.955754280090332|-4.280209541320801|0.5368919372558594|0.4353945851325989|0.03647327423095703|XArbitraryZVertical|-0.1009645390635302|0.06368255066499603|-0.5894491150125956|0.7989371547496819|-0.01727020554244518|0.2364038825035095|-0.9715014100074768|0|0|0|-1|-1|3
2021-04-08 20:10:28.401 +0100|19607.882492875|0.91009521484375|1.450042724609375|-0.670501708984375|19607.862532875|-1.360566098725485|-0.01875091487433192|-0.2399319938542554|-0.3023158013820648|1.063280940055847|-4.197729110717773|0.7228625416755676|0.7720829844474792|0.01555591821670532|XArbitraryZVertical|-0.09888811647234988|0.06804005415400356|-0.6235924811732184|0.772479252298432|-0.01821271143853664|0.2376365661621094|-0.9711833596229553|0|0|0|-1|-1|3
2021-04-08 20:10:28.421 +0100|19607.902453875|1.012115478515625|1.824493408203125|-0.285003662109375|19607.882492875|-1.445261020891755|-0.0159696705491312|-0.250491299304885|-0.9727634787559509|1.245571970939636|-3.929823875427246|0.8815279006958008|1.139525055885315|0.2220546007156372|XArbitraryZVertical|-0.09893385837091478|0.07667122364272434|-0.6554105167949508|0.7448294506092803|-0.01547061186283827|0.2478799521923065|-0.968667209148407|0|0|0|-1|-1|3
2021-04-08 20:10:28.440 +0100|19607.922414875|0.8172454833984375|2.228363037109375|0.0058441162109375|19607.902453875|-1.518035229693464|-0.01030284710809806|-0.278825717196002|-1.964265942573547|1.16936194896698|-2.929705142974854|1.008728861808777|1.42066502571106|0.6120697259902954|XArbitraryZVertical|-0.1043279441576449|0.09193227401680522|-0.681003472873408|0.7189565215326907|-0.009904768317937851|0.2752269208431244|-0.9613282680511475|0|0|0|-1|-1|3
2021-04-08 20:10:28.461 +0100|19607.942374875|0.559722900390625|2.552642822265625|0.212493896484375|19607.922414875|-1.564504560075912|-0.001205701755179726|-0.3239317210645841|-2.498627424240112|1.121349930763245|-1.560787796974182|0.892331600189209|1.824662804603577|0.9091721177101135|XArbitraryZVertical|-0.114804589419672|0.1132457390328647|-0.6955843983746339|0.7001127343641109|-0.001142994500696659|0.3182962536811829|-0.9479905962944031|0|0|0|-1|-1|3
2021-04-08 20:10:28.480 +0100|19607.962335875|0.69818115234375|2.800079345703125|0.1005706787109375|19607.942374875|-1.585469344149549|0.01487758550126164|-0.3759601364533035|-2.737227439880371|1.242819428443909|-0.4987455010414124|0.6004799604415894|2.115209817886353|1.05117666721344|XArbitraryZVertical|-0.1259588228079488|0.1382319649036766|-0.7006841127260428|0.6885261674640581|0.01383795775473118|0.3671657741069794|-0.9300525784492493|0|0|0|-1|-1|3
2021-04-08 20:10:28.500 +0100|19607.982295875|0.6865234375|2.908538818359375|-0.0567474365234375|19607.962335875|-1.582328019982325|0.0398631006426369|-0.4312621012102171|-2.775543212890625|1.026097536087036|0.6543474793434143|0.6111953854560852|2.336178064346313|1.048662424087524|XArbitraryZVertical|-0.1365450199882241|0.1658217274317565|-0.6975623714492104|0.6835682548021895|0.03620360046625137|0.4180176854133606|-0.907717227935791|0|0|0|-1|-1|3
2021-04-08 20:10:28.521 +0100|19608.002256875|0.076934814453125|3.349014282226562|-0.149932861328125|19607.982295875|-1.549390772409023|0.06879393041148162|-0.4875190741927694|-3.206658124923706|0.2924290299415588|2.134496212005615|0.6728644967079163|2.387963771820068|0.8814534544944763|XArbitraryZVertical|-0.1490321493021845|0.1925757985110804|-0.6843495149639266|0.6872917422783374|0.06073135510087013|0.4684354364871979|-0.8814079761505127|0|0|0|-1|-1|3
2021-04-08 20:10:28.540 +0100|19608.022217875|-0.9932098388671875|3.860916137695312|-0.002227783203125|19608.002256875|-1.468184639364264|0.1044216189242356|-0.5605768257803556|-4.826694011688232|-0.9447530508041382|4.403561592102051|0.1791301965713501|2.700243234634399|0.6985819339752197|XArbitraryZVertical|-0.1715066418881212|0.2223012419893291|-0.6536117144424708|0.7028224495022444|0.08827910572290421|0.5316748023033142|-0.8423352837562561|0|0|0|-1|-1|3
2021-04-08 20:10:28.560 +0100|19608.042177875|-2.16070556640625|4.362167358398438|0.4357147216796875|19608.022217875|-1.304594035004427|0.1625068140865634|-0.6575752664163621|-6.551401138305664|-2.66014552116394|7.705921173095703|-0.8213084936141968|3.104117155075073|0.6969877481460571|XArbitraryZVertical|-0.2091274016378507|0.2564008180754846|-0.5934299402157167|0.7337338008090978|0.1280549764633179|0.6111995577812195|-0.7810487151145935|0|0|0|-1|-1|3
2021-04-08 20:10:28.580 +0100|19608.062138875|-2.280181884765625|4.795745849609375|-0.0437469482421875|19608.042177875|-1.035213435328868|0.2734775865052966|-0.752143085221431|-6.79833984375|-3.567549467086792|10.06254863739014|-2.08909797668457|3.559607982635498|1.072489261627197|XArbitraryZVertical|-0.2534458407380021|0.2902076638626226|-0.4994320863089782|0.7759591278125422|0.1972206085920334|0.683205246925354|-0.7030894160270691|0|0|0|-1|-1|3
2021-04-08 20:10:28.600 +0100|19608.082099875|-2.14837646484375|5.021072387695312|-0.90972900390625|19608.062138875|-0.6966819013080481|0.4418570977071113|-0.7988655877780357|-5.960237979888916|-3.799598455429077|10.97878265380859|-2.716624021530151|4.046984672546387|0.855199933052063|XArbitraryZVertical|-0.2877427883946244|0.3192792721432565|-0.3869284600535818|0.8158133263874937|0.2982728183269501|0.7165652513504028|-0.6305296421051025|0|0|0|-1|-1|3
2021-04-08 20:10:28.620 +0100|19608.102059875|-3.593048095703125|4.728256225585938|-1.664154052734375|19608.082099875|-0.323915967143502|0.6109429203429847|-0.7755759316205624|-5.583977222442627|-5.891931056976318|12.80845069885254|-2.432112216949463|4.257560729980469|-0.2026333212852478|XArbitraryZVertical|-0.3110219107389823|0.3329213073149618|-0.2546019182555399|0.8529987625937037|0.4095893800258636|0.7001274228096008|-0.5848575234413147|0|0|0|-1|-1|3
2021-04-08 20:10:28.640 +0100|19608.122020875|-3.826461791992188|4.090255737304688|-2.015182495117188|19608.102059875|0.0336919207787122|0.7291855123128479|-0.6866786784320333|-4.114230155944824|-5.920701503753662|13.45780277252197|-3.947708129882812|4.262299537658691|-1.317047834396362|XArbitraryZVertical|-0.3201174085478973|0.3304124059105161|-0.1051965252244093|0.8816384722851136|0.5152580738067627|0.6339721083641052|-0.5767049789428711|0|0|0|-1|-1|3
2021-04-08 20:10:28.660 +0100|19608.141981875|-4.3255615234375|2.7493896484375|-1.922576904296875|19608.122020875|0.3266406282453722|0.7808629062868695|-0.5343223610689655|-0.8898872137069702|-5.885282516479492|14.23817539215088|-4.374670505523682|3.802525997161865|-1.417401790618896|XArbitraryZVertical|-0.3005651924305291|0.3225069502642375|0.04588908939604085|0.8964063121987306|0.6057798862457275|0.509257972240448|-0.6112996935844421|0|0|0|-1|-1|3
2021-04-08 20:10:28.683 +0100|19608.161941875|-4.461898803710938|1.160049438476562|-1.441146850585938|19608.141981875|0.5349996992500539|0.759314381395471|-0.3179365737146027|3.109742879867554|-4.843540191650391|14.31142807006836|-4.881919384002686|2.806198835372925|-1.336478471755981|XArbitraryZVertical|-0.2385210562556924|0.314052429418421|0.1858240423142948|0.8999712763937717|0.6539222002029419|0.3126072287559509|-0.6889575719833374|0|0|0|-1|-1|3
2021-04-08 20:10:28.700 +0100|19608.181902875|-4.09271240234375|-0.0980987548828125|-1.0865478515625|19608.161941875|0.6874381777439548|0.7120711888049989|-0.06798976058194661|5.085282802581787|-2.752609968185425|13.37837314605713|-5.120780467987061|1.469707131385803|-0.7913541793823242|XArbitraryZVertical|-0.1473874987139961|0.317248044121661|0.3045203597133677|0.8859447725603679|0.6518934965133667|0.06793738901615143|-0.7552611827850342|0|0|0|-1|-1|3
2021-04-08 20:10:28.720 +0100|19608.201863875|-3.470611572265625|-0.95867919921875|-0.742431640625|19608.201863875|0.9184222957470355|0.6663281112052455|0.3477793146167901|2.892233371734619|1.458367347717285|7.954322338104248|-4.205045700073242|-0.4295891523361206|-0.1182958483695984|XArbitraryZVertical|0.003793488355054437|0.3612040626424715|0.4632715034298389|0.8092570164438518|0.5810990333557129|-0.3408109247684479|-0.7390344738960266|0|0|0|-1|-1|3
2021-04-08 20:10:28.740 +0100|19608.221823875|-2.7391357421875|-1.666946411132812|-0.34136962890625||||||||||||||||||||||||3
2021-04-08 20:10:28.760 +0100|19608.241784875|-2.0146484375|-2.06396484375|-0.2343902587890625|19608.221823875|0.9964424586995961|0.6729882308776919|0.4520669084899153|0.8911100029945374|2.151545763015747|4.228713989257812|-3.50304651260376|-1.060396313667297|0.2855189442634583|XArbitraryZVertical|0.03206072056155743|0.3837530766902645|0.5045927020968576|0.7727172184282252|0.5607100129127502|-0.4368257522583008|-0.7034114003181458|0|0|0|-1|-1|3
2021-04-08 20:10:28.780 +0100|19608.261744875|-1.54107666015625|-1.86895751953125|-0.3637542724609375|19608.241784875|1.040405228558865|0.6943903200019195|0.4834200404921107|-0.9706327319145203|1.811386704444885|0.8665494918823242|-2.756270408630371|-1.565783023834229|0.4283590316772461|XArbitraryZVertical|0.03109417566738637|0.398546053268896|0.5244821230417531|0.7517399358798185|0.5665892958641052|-0.4648100137710571|-0.6803883910179138|0|0|0|-1|-1|3
2021-04-08 20:10:28.800 +0100|19608.281705875|-1.276962280273438|-1.580703735351562|-0.5518341064453125|19608.261744875|1.057534289444235|0.7116859542604829|0.448633651461545|-2.498660087585449|0.660961925983429|-1.854797601699829|-2.207146644592285|-1.508479356765747|0.3665584325790405|XArbitraryZVertical|0.008685368144222976|0.398450404711613|0.5279293175120006|0.7499684084529232|0.5884799361228943|-0.433734804391861|-0.682323694229126|0|0|0|-1|-1|3
2021-04-08 20:10:28.820 +0100|19608.301666875|-0.8307037353515625|-1.061630249023438|-0.76318359375|19608.281705875|1.047156169736519|0.7191511374878214|0.3680063952991793|-2.747650623321533|-0.2417936027050018|-4.090802192687988|-1.973557353019714|-1.296355724334717|0.1874501705169678|XArbitraryZVertical|-0.02464044236972701|0.3852233312790078|0.5158628773667668|0.764775429652463|0.6146408319473267|-0.3597560226917267|-0.7019916772842407|0|0|0|-1|-1|3
2021-04-08 20:10:28.840 +0100|19608.321626875|-0.3720550537109375|-0.1815948486328125|-1.061737060546875|19608.301666875|1.004484345166743|0.7187280955019132|0.2651024565118447|-2.27932071685791|-1.114633798599243|-5.671407222747803|-1.583209991455078|-0.9664303064346313|0.01849567890167236|XArbitraryZVertical|-0.05936832012800949|0.3651027931044877|0.4874271364871288|0.7909426352668016|0.6354261636734009|-0.2620081603527069|-0.726350724697113|0|0|0|-1|-1|3
2021-04-08 20:10:28.860 +0100|19608.341587875|0.0758819580078125|0.7674407958984375|-1.318023681640625|19608.321626875|0.9357048262067081|0.7028373163460807|0.1528805676080802|-1.928694605827332|-1.857372403144836|-6.686794757843018|-1.125890851020813|-0.277248203754425|-0.2373276948928833|XArbitraryZVertical|-0.09079035709806654|0.338675602151614|0.4456357339612185|0.8236897363326932|0.6388460993766785|-0.1522857248783112|-0.7541118860244751|0|0|0|-1|-1|3
2021-04-08 20:10:28.880 +0100|19608.361548875|0.1353912353515625|1.087081909179688|-1.420257568359375|19608.341587875|0.8557568222704203|0.6675474920501896|0.03230114131433849|-2.373091697692871|-2.36663818359375|-7.029715061187744|-0.6406501531600952|0.6038755178451538|-0.4571325778961182|XArbitraryZVertical|-0.1220385376695593|0.3043686465265321|0.3968046857841346|0.8573287162267347|0.6187388896942139|-0.03229552507400513|-0.7849326729774475|0|0|0|-1|-1|3
2021-04-08 20:10:28.900 +0100|19608.381508875|-0.263580322265625|1.109542846679688|-1.2509765625|19608.361548875|0.7737865297642409|0.6164036154525937|-0.08764039951292275|-2.24895453453064|-2.447567939758301|-6.666255474090576|-0.3909794092178345|0.9834414720535278|-0.6061291098594666|XArbitraryZVertical|-0.1530031217559487|0.2649045836254708|0.346882999749693|0.8866160400293812|0.5758856534957886|0.08752825111150742|-0.8128312230110168|0|0|0|-1|-1|3
2021-04-08 20:10:28.920 +0100|19608.401469875|-0.4142913818359375|1.498748779296875|-1.1339111328125|19608.401469875|0.6128245506735907|0.5057098605325588|-0.2816956400019712|-1.278044819831848|-1.485739469528198|-5.292407035827637|-0.872821033000946|1.105957865715027|-0.3254365921020508|XArbitraryZVertical|-0.2043016276667182|0.1951562506976354|0.2556728126358062|0.9245573662177237|0.4653350412845612|0.2779848575592041|-0.8403497934341431|0|0|0|-1|-1|3
2021-04-08 20:10:28.940 +0100|19608.421430875|-0.238616943359375|1.747451782226562|-1.104598999023438||||||||||||||||||||||||3
2021-04-08 20:10:28.960 +0100|19608.441390875|0.147186279296875|1.606842041015625|-1.217300415039062|19608.441390875|0.4107925563591738|0.4019815235942535|-0.3418806331369005|2.647809743881226|-0.528411865234375|-4.796583652496338|-0.3235713839530945|1.356163144111633|-0.3270800709724426|XArbitraryZVertical|-0.2033051248666113|0.1585991222416457|0.1636898304969858|0.9522180125854693|0.3685998320579529|0.3352594673633575|-0.867026686668396|0|0|0|-1|-1|3
2021-04-08 20:10:28.980 +0100|19608.461351875|0.4091796875|1.166900634765625|-1.205032348632812||||||||||||||||||||||||3
2021-04-08 20:10:29.000 +0100|19608.481312875|0.346405029296875|0.8731842041015625|-1.077728271484375|19608.461351875|0.2955875819183224|0.354817433668926|-0.3255529668969275|2.509932279586792|-0.4848920702934265|-4.738569259643555|0.04930803179740906|0.9399949312210083|-0.3323691487312317|XArbitraryZVertical|-0.1834202055396141|0.1487586171647859|0.1147407884404569|0.9649158267328936|0.3291706442832947|0.3198327422142029|-0.8884558081626892|0|0|0|-1|-1|3
2021-04-08 20:10:29.019 +0100|19608.501272875|0.3973236083984375|0.790557861328125|-0.9554595947265625|19608.481312875|0.1909180504747735|0.3115867704407548|-0.3238153369262846|0.7857034802436829|-0.4873681664466858|-4.550409317016602|0.07455170154571533|0.6065130233764648|-0.224711000919342|XArbitraryZVertical|-0.1731197397483641|0.137258774576811|0.06802954018384187|0.9729139448944142|0.2906364500522614|0.3181859254837036|-0.9023791551589966|0|0|0|-1|-1|3
2021-04-08 20:10:29.039 +0100|19608.521233875|0.3508758544921875|0.7291107177734375|-0.8827972412109375|19608.501272875|0.1039432845199284|0.2737178227112771|-0.3475519269373663|-0.4744708836078644|-0.4815497994422913|-4.000185489654541|0.1300042271614075|0.4562636017799377|-0.06581556797027588|XArbitraryZVertical|-0.1780353028816902|0.1252978093808816|0.02712980518654006|0.9756372301157115|0.2541505396366119|0.3405971229076385|-0.9052077531814575|0|0|0|-1|-1|3
2021-04-08 20:10:29.059 +0100|19608.541193875|0.269134521484375|0.68963623046875|-0.848358154296875|19608.521233875|0.02742921151869121|0.2367754686975498|-0.3781515430601639|-0.5169464349746704|-0.4798997938632965|-3.787367105484009|0.1585744172334671|0.3926080167293549|0.01499181985855103|XArbitraryZVertical|-0.1882089814727792|0.113435965308894|-0.008821599852879961|0.9755163219572474|0.2179966568946838|0.3692032396793365|-0.9034193158149719|0|0|0|-1|-1|3
2021-04-08 20:10:29.079 +0100|19608.561154875|0.310821533203125|0.850799560546875|-0.8062896728515625|19608.541193875|-0.05098639528702721|0.198261899559768|-0.4013324912166757|-0.1835723668336868|-0.3633649945259094|-3.788061857223511|0.09309846162796021|0.2828022837638855|0.04903864860534668|XArbitraryZVertical|-0.1958070914591354|0.1020071096892914|-0.04457655361814255|0.9743034541937268|0.1813149452209473|0.390645295381546|-0.9025082588195801|0|0|0|-1|-1|3
2021-04-08 20:10:29.099 +0100|19608.581115875|0.3268280029296875|0.894683837890625|-0.76873779296875|19608.561154875|-0.1308639855521462|0.1609159574936717|-0.4135752926569564|0.3311781883239746|-0.2272275686264038|-3.651195526123047|0.1513351947069168|0.404572606086731|0.08106058835983276|XArbitraryZVertical|-0.199071759473428|0.09187189290072384|-0.08025155653117734|0.9723629933751146|0.1467140167951584|0.4018857479095459|-0.9038599729537964|0|0|0|-1|-1|3
2021-04-08 20:10:29.119 +0100|19608.601075875|0.3165130615234375|0.631866455078125|-0.7161865234375|19608.581115875|-0.2105211895949161|0.1248727198203211|-0.4100803094572848|1.022462725639343|-0.1507069021463394|-3.546581268310547|0.2115066051483154|0.5059657096862793|0.1322382092475891|XArbitraryZVertical|-0.1956666297546419|0.08210116085139146|-0.1152989062879079|0.9704021389553692|0.11422199010849|0.3986829817295074|-0.90994793176651|0|0|0|-1|-1|3
2021-04-08 20:10:29.139 +0100|19608.621036875|0.3017425537109375|0.3993377685546875|-0.7423858642578125|19608.601075875|-0.2889419947180573|0.09268029786163674|-0.3954936028635931|1.056444883346558|-0.00658269552513957|-3.469401836395264|0.2357320636510849|0.3349213302135468|0.2022630572319031|XArbitraryZVertical|-0.1876659535490708|0.07320146088065672|-0.150017641962243|0.9679451911476549|0.08540359884500504|0.3852637410163879|-0.918846070766449|0|0|0|-1|-1|3
2021-04-08 20:10:29.159 +0100|19608.640997625|0.21429443359375|0.4464569091796875|-0.7992706298828125|19608.621036875|-0.3613798081661294|0.06579503888561003|-0.3872629451713361|0.2084566950798035|0.06715778261423111|-3.086137533187866|0.2570677995681763|0.05708339810371399|0.1870807409286499|XArbitraryZVertical|-0.1833882371828068|0.06631286329719811|-0.1824805425401523|0.9636764556920617|0.06087872013449669|0.3776554763317108|-0.9239427447319031|0|0|0|-1|-1|3
2021-04-08 20:10:29.179 +0100|19608.660957625|0.2134857177734375|0.67767333984375|-0.8751373291015625|19608.640997625|-0.4205008678830993|0.04597016314356864|-0.3933230672296575|-0.3385659158229828|0.2144676744937897|-2.409059524536133|0.1877482235431671|0.01790961623191833|0.134334921836853|XArbitraryZVertical|-0.1863387237223897|0.06281305615598026|-0.2090197415994371|0.9579369779470964|0.04244495555758476|0.3832598328590393|-0.9226648211479187|0|0|0|-1|-1|3
2021-04-08 20:10:29.199 +0100|19608.680918625|0.164031982421875|0.6700897216796875|-0.928955078125|19608.660957625|-0.4671609994612307|0.03393810684665909|-0.3974327693258295|0.207160621881485|0.3916170299053192|-1.990978360176086|0.1868670880794525|0.2463099360466003|0.06543260812759399|XArbitraryZVertical|-0.1881723298522085|0.0618692246521727|-0.2301333276209288|0.9527865887459357|0.03128688782453537|0.3870524764060974|-0.9215267300605774|0|0|0|-1|-1|3
2021-04-08 20:10:29.219 +0100|19608.700879625|0.2220458984375|0.5153045654296875|-0.9284820556640625|19608.680918625|-0.5097388181771765|0.02948056324336728|-0.3875133825460766|0.8058966398239136|0.8294833898544312|-1.929717421531677|0.1314150393009186|0.3136110305786133|0.002658963203430176|XArbitraryZVertical|-0.1826597694240802|0.06253608250069383|-0.2501208543570717|0.9487699218214632|0.02729067392647266|0.3778873383998871|-0.9254493117332458|0|0|0|-1|-1|3
2021-04-08 20:10:29.239 +0100|19608.720839625|0.2528533935546875|0.648040771484375|-0.97247314453125|19608.700879625|-0.5511053877728584|0.03320117399341953|-0.3747684982082327|0.4850868284702301|1.03215229511261|-1.897041082382202|0.1875069737434387|0.1848467290401459|0.007380783557891846|XArbitraryZVertical|-0.1747996812480633|0.06637242560605135|-0.2702549107642097|0.9444586935604969|0.03089108504354954|0.3660570979118347|-0.9300795197486877|0|0|0|-1|-1|3
2021-04-08 20:10:29.259 +0100|19608.740800625|0.017547607421875|0.8468017578125|-1.121261596679688|19608.720839625|-0.5920636852955113|0.03676581015762098|-0.3735136037936495|-0.1588263511657715|0.7356725931167603|-1.894769906997681|0.2224592119455338|0.2198282182216644|-0.02082616090774536|XArbitraryZVertical|-0.1722973439432255|0.0714332435216021|-0.2898704066401315|0.9387151533569668|0.03422313556075096|0.3648890256881714|-0.9304218292236328|0|0|0|-1|-1|3
2021-04-08 20:10:29.279 +0100|19608.760761625|-0.222991943359375|0.804718017578125|-1.20281982421875|19608.740800625|-0.6322648845572922|0.03401213217649472|-0.3779102953666721|0.01736098155379295|0.5823157429695129|-1.921263217926025|0.06247861683368683|0.4482669234275818|-0.1504148840904236|XArbitraryZVertical|-0.1733061393947881|0.07426229949183941|-0.3083511005439483|0.9324000399759678|0.03160606324672699|0.3689790368080139|-0.9289001822471619|0|0|0|-1|-1|3
2021-04-08 20:10:29.299 +0100|19608.780721625|-0.2833404541015625|0.5982818603515625|-1.187057495117188|19608.760761625|-0.6780154966779155|0.03127999061289539|-0.3723039701082871|0.6205102801322937|0.8243448138237|-2.36376953125|-0.2033581882715225|0.4727552235126495|-0.2635286450386047|XArbitraryZVertical|-0.1694126099786324|0.07603510546534348|-0.3294960082835969|0.9257162060775082|0.0291323009878397|0.3637625277042389|-0.9310360550880432|0|0|0|-1|-1|3
2021-04-08 20:10:29.319 +0100|19608.800682625|-0.127410888671875|0.4909515380859375|-1.195663452148438|19608.780721625|-0.7336850256315294|0.02941235157151433|-0.3607157495098903|0.6128880977630615|0.976485550403595|-2.773395776748657|-0.3201191425323486|0.2941510677337646|-0.254182755947113|XArbitraryZVertical|-0.1622393778626247|0.0778363596916565|-0.3552762833090012|0.9172778811229418|0.02751553617417812|0.352944016456604|-0.9352397918701172|0|0|0|-1|-1|3
2021-04-08 20:10:29.339 +0100|19608.820643625|-0.0287628173828125|0.403533935546875|-1.214996337890625|19608.800682625|-0.7950701549834926|0.02807320847973355|-0.3528432268923614|0.3408824503421783|1.001837849617004|-2.925321578979492|-0.2049912512302399|0.1605517864227295|-0.2440587878227234|XArbitraryZVertical|-0.1564557720755099|0.08068130126987089|-0.3833713179438958|0.9066634943166487|0.02634027041494846|0.3455672562122345|-0.9380242228507996|0|0|0|-1|-1|3
2021-04-08 20:10:29.359 +0100|19608.840603625|-0.1135406494140625|0.310882568359375|-1.141769409179688|19608.820643625|-0.8572111753294606|0.0258604076270838|-0.3472589104103214|0.4845148921012878|0.9165730476379395|-2.929831027984619|-0.05040768533945084|0.09049525856971741|-0.2732773423194885|XArbitraryZVertical|-0.1518256767341101|0.08337632274066756|-0.4113514578640974|0.894867323323123|0.02431406639516354|0.3403216302394867|-0.9399946928024292|0|0|0|-1|-1|3
2021-04-08 20:10:29.379 +0100|19608.860564625|-0.042755126953125|0.4425048828125|-1.053131103515625|19608.840603625|-0.9214244558919925|0.02296529047476382|-0.334476114917735|0.9351500868797302|0.9708450436592102|-3.130479097366333|-0.1131987571716309|0.002933084964752197|-0.2268854975700378|XArbitraryZVertical|-0.1440603241823365|0.08414243419207892|-0.440066595184911|0.8823311161468581|0.02169070392847061|0.3282743692398071|-0.9443333745002747|0|0|0|-1|-1|3
2021-04-08 20:10:29.399 +0100|19608.880525625|0.18145751953125|0.7380523681640625|-1.069091796875|19608.860564625|-0.9899780508981501|0.02119918838488372|-0.3140886827016156|1.216252207756042|1.013642191886902|-3.309164047241211|-0.1083574891090393|0.06406658887863159|-0.1243459582328796|XArbitraryZVertical|-0.1326468556208117|0.08350147645521543|-0.470608701578008|0.8683086440385218|0.02016057819128036|0.3089498579502106|-0.9508646130561829|0|0|0|-1|-1|3
2021-04-08 20:10:29.419 +0100|19608.900485625|0.290802001953125|0.7593536376953125|-1.105514526367188|19608.880525625|-1.062181157219813|0.01871296793112813|-0.287765736051257|1.625303268432617|0.8760103583335876|-3.572605848312378|0.1129921078681946|0.3937254548072815|-0.09690576791763306|XArbitraryZVertical|-0.1189409401166568|0.08060276851583333|-0.5023752965304561|0.852628471517682|0.01794245094060898|0.283810555934906|-0.9587125182151794|0|0|0|-1|-1|3
2021-04-08 20:10:29.439 +0100|19608.920446625|0.246429443359375|0.5800628662109375|-1.098724365234375|19608.900485625|-1.140358411715183|0.01481844307390944|-0.2510153424828869|2.177534103393555|0.8624417781829834|-3.92560338973999|0.2650032937526703|0.5432840585708618|-0.1300327181816101|XArbitraryZVertical|-0.1014049606064777|0.07375530371644796|-0.5363031376418201|0.8346594036842687|0.01435351837426424|0.2483876049518585|-0.9685543775558472|0|0|0|-1|-1|3
2021-04-08 20:10:29.459 +0100|19608.940406625|0.2255706787109375|0.633209228515625|-1.00885009765625|19608.920446625|-1.224685107161043|0.01368405497025056|-0.2088957643823383|1.985941886901855|0.951298713684082|-4.209114551544189|0.2596382796764374|0.4234641194343567|-0.1381946206092834|XArbitraryZVertical|-0.08140154272321323|0.06549296896792221|-0.5722238623975618|0.8134152784295691|0.01338615268468857|0.2073798030614853|-0.9781689047813416|0|0|0|-1|-1|3
2021-04-08 20:10:29.479 +0100|19608.960367625|0.3319549560546875|1.0537109375|-0.8802642822265625|19608.940406625|-1.311160233018994|0.01635195692234379|-0.179336820964768|1.009560823440552|0.9668219685554504|-4.204090595245361|0.190666526556015|0.3771799206733704|-0.05988579988479614|XArbitraryZVertical|-0.06601790748406597|0.06104347047776194|-0.6077301003967768|0.7890371315887275|0.01608899049460888|0.1783770769834518|-0.9838306903839111|0|0|0|-1|-1|3
2021-04-08 20:10:29.499 +0100|19608.980328625|0.3872528076171875|1.329940795898438|-0.7596588134765625|19608.960367625|-1.394781241354136|0.02140439317893386|-0.1701721127906076|0.1789272427558899|1.010396003723145|-4.020852088928223|0.2922903597354889|0.7849628329277039|0.08251303434371948|XArbitraryZVertical|-0.05828965075163751|0.0627485201285681|-0.6405569057861672|0.7631198794754371|0.02109360881149769|0.1693519800901413|-0.9853298664093018|0|0|0|-1|-1|3
2021-04-08 20:10:29.519 +0100|19609.000288625|0.61199951171875|1.41717529296875|-0.64520263671875|19609.000288625|-1.549445823677192|0.04679956067874255|-0.1751121206690114|-0.1304311752319336|1.479853868484497|-3.526038646697998|0.5033552050590515|1.22438633441925|0.3130812644958496|XArbitraryZVertical|-0.0461674653181287|0.07780833263567855|-0.698109853987858|0.7102514376170764|0.04606703668832779|0.17421855032444|-0.9836288690567017|0|0|0|-1|-1|3
2021-04-08 20:10:29.539 +0100|19609.020249625|0.765228271484375|1.606521606445312|-0.58203125|19609.020249625|-1.61456701036899|0.06267864062766723|-0.1836928716664298|-0.3790103793144226|1.267243623733521|-2.909688234329224|0.6896970272064209|1.353531718254089|0.3706188797950745|XArbitraryZVertical|-0.04084728815249799|0.08780025639916333|-0.7210005342928877|0.6861347706557653|0.06158378347754478|0.1826615482568741|-0.981245219707489|0|0|0|-1|-1|3
2021-04-08 20:10:29.559 +0100|19609.040210625|0.8044891357421875|1.811996459960938|-0.5027008056640625|19609.040210625|-1.665143341946626|0.07677687009612308|-0.1991248083178908|-0.8583980202674866|1.121378660202026|-2.151662349700928|0.7115259170532227|1.573687553405762|0.4315453171730042|XArbitraryZVertical|-0.03859616224679294|0.09916723161579288|-0.738026512346225|0.6663281208574579|0.07518585026264191|0.1978115141391754|-0.9773523807525635|0|0|0|-1|-1|3
2021-04-08 20:10:29.579 +0100|19609.060170625|1.009078979492188|1.995758056640625|-0.3614349365234375|19609.060170625|-1.697848029003035|0.08999269302236183|-0.2277532395037254|-1.836899518966675|0.8617995381355286|-1.242761731147766|0.8734319806098938|1.724893569946289|0.5658301711082458|XArbitraryZVertical|-0.04146729950061185|0.1147320502326933|-0.7483311293163899|0.6520104514621549|0.08755044639110565|0.2257893532514572|-0.9702340364456177|0|0|0|-1|-1|3
2021-04-08 20:10:29.599 +0100|19609.080131625|1.097686767578125|2.304107666015625|-0.1114349365234375|19609.080131625|-1.707159338807031|0.1022607564076516|-0.280268252832528|-3.31794261932373|0.6268172264099121|-0.1618163883686066|0.9815047979354858|1.924908757209778|0.755307674407959|XArbitraryZVertical|-0.05354811296219548|0.138391049444158|-0.7499672554789257|0.644615931107773|0.098099485039711|0.2766134440898895|-0.9559610486030579|0|0|0|-1|-1|3
2021-04-08 20:10:29.619 +0100|19609.100092625|1.223052978515625|2.822769165039062|0.23358154296875|19609.100092625|-1.688528145468907|0.1163261009703523|-0.3548265621984572|-4.034465789794922|0.1226967796683311|1.120327949523926|1.101065158843994|2.365706443786621|1.086963057518005|XArbitraryZVertical|-0.0742675489818614|0.1697043733683989|-0.7413203612765602|0.6450806794171507|0.1088339313864708|0.3474277257919312|-0.9313695430755615|0|0|0|-1|-1|3
2021-04-08 20:10:29.638 +0100|19609.120052625|1.0826416015625|3.0968017578125|0.4901123046875||||||||||||||||||||||||3
2021-04-08 20:10:29.658 +0100|19609.140013625|0.9228515625|3.246536254882812|0.4605560302734375|19609.120052625|-1.640710558799542|0.1295995838865403|-0.4270137196402715|-3.615517616271973|-0.6455285549163818|2.364747762680054|1.015621662139893|2.625319480895996|1.343384146690369|XArbitraryZVertical|-0.09791120896963695|0.1978047289278514|-0.7226380060129314|0.6550429346365166|0.1176324561238289|0.4141545295715332|-0.9025733470916748|0|0|0|-1|-1|3
2021-04-08 20:10:29.678 +0100|19609.159974625|0.1987762451171875|3.341140747070312|0.21881103515625|19609.140013625|-1.563728902972157|0.1399752954219957|-0.4849358554488747|-3.178897142410278|-1.86934757232666|3.7787184715271|0.8568977117538452|2.737049341201782|1.393675565719604|XArbitraryZVertical|-0.1221255074458435|0.2169317145413482|-0.6942327371392336|0.6753274518369931|0.1234328299760818|0.466151624917984|-0.8760519623756409|0|0|0|-1|-1|3
2021-04-08 20:10:29.698 +0100|19609.179934625|-0.5108184814453125|3.679718017578125|0.1028900146484375|19609.159974625|-1.447302235587006|0.1483743049681579|-0.541361536917053|-4.13392448425293|-2.913783550262451|5.535662651062012|0.2715463042259216|2.778000831604004|1.119075775146484|XArbitraryZVertical|-0.1525379875977439|0.2300788970427398|-0.6511135418432868|0.7069987911237806|0.1266919076442719|0.5153033137321472|-0.8475916981697083|0|0|0|-1|-1|3
2021-04-08 20:10:29.718 +0100|19609.199895625|-1.478073120117188|4.490753173828125|0.04266357421875|19609.179934625|-1.273621911654696|0.17695533913344|-0.6189976851439907|-5.824581146240234|-3.814308643341064|7.634947776794434|-0.4830490350723267|2.973461151123047|0.9296256303787231|XArbitraryZVertical|-0.1938776085534193|0.2480734934083716|-0.5858040995930159|0.7467963155320092|0.1433721482753754|0.5802190899848938|-0.8017420172691345|0|0|0|-1|-1|3
2021-04-08 20:10:29.738 +0100|19609.219856625|-3.163864135742188|5.069549560546875|-0.394775390625|19609.199895625|-1.025051147314197|0.2446736782074146|-0.7043030271008064|-6.243612289428711|-4.800806522369385|9.787754058837891|-1.372652292251587|3.576251983642578|0.8188183903694153|XArbitraryZVertical|-0.2421828638271029|0.2677020880652161|-0.4935291881828285|0.7912724606466695|0.1846019625663757|0.6475028395652771|-0.7393661141395569|0|0|0|-1|-1|3
2021-04-08 20:10:29.758 +0100|19609.239816625|-2.98468017578125|4.059982299804688|-0.94964599609375|19609.219856625|-0.719511376605689|0.3524114716191509|-0.7407202088696916|-3.306629419326782|-4.295332431793213|10.49750900268555|-3.030908823013306|4.496582984924316|0.3662430644035339|XArbitraryZVertical|-0.2760066602975319|0.278398990634353|-0.3824808723096593|0.8366736698265327|0.2547236680984497|0.6748195886611938|-0.6926286220550537|0|0|0|-1|-1|3
2021-04-08 20:10:29.778 +0100|19609.259777625|-3.691665649414062|4.073043823242188|-2.20904541015625|19609.239816625|-0.4369846158132532|0.4655319355058768|-0.6926347481995918|-1.30829918384552|-3.494259595870972|11.36167907714844|-3.502287626266479|3.67715311050415|-0.1381648778915405|XArbitraryZVertical|-0.2753988983522634|0.2834075320028532|-0.2748265993364007|0.8765306541326031|0.3454568982124329|0.6385670304298401|-0.6876712441444397|0|0|0|-1|-1|3
2021-04-08 20:10:29.798 +0100|19609.279738625|-4.10675048828125|3.436386108398438|-2.04815673828125|19609.259777625|-0.1580575071903266|0.5599328499806315|-0.5904138387065766|-0.08573822677135468|-3.472632169723511|12.7089319229126|-3.593666076660156|3.518292903900146|-0.5347788333892822|XArbitraryZVertical|-0.2578662540728717|0.2856192517179137|-0.152732586131391|0.910274433615344|0.4412146508693695|0.5567048788070679|-0.7038532495498657|0|0|0|-1|-1|3
2021-04-08 20:10:29.818 +0100|19609.299698625|-4.65386962890625|3.679931640625|-2.1409912109375|19609.279738625|0.0989187434597404|0.6354795672922076|-0.4539030736200081|-1.725640296936035|-2.481104373931885|13.71197605133057|-4.694533348083496|3.018219709396362|-0.986023485660553|XArbitraryZVertical|-0.2285336014018909|0.2934691804829013|-0.02445101489287153|0.927928064380268|0.533460795879364|0.4384767115116119|-0.7232964634895325|0|0|0|-1|-1|3
2021-04-08 20:10:29.838 +0100|19609.319659625|-4.641937255859375|2.964523315429688|-1.907882690429688|19609.299698625|0.3570982225307791|0.6871942084398819|-0.3070147920713248|-0.7886099815368652|-1.794315934181213|13.90454387664795|-5.105348587036133|3.502748966217041|-1.448664546012878|XArbitraryZVertical|-0.200805304498133|0.3020532397150564|0.1145633209079633|0.9248331688180098|0.6047075390815735|0.3022143542766571|-0.7368821501731873|0|0|0|-1|-1|3
2021-04-08 20:10:29.858 +0100|19609.339620625|-4.79193115234375|1.501510620117188|-1.7265625|19609.319659625|0.5615803556350709|0.7082778821294994|-0.127659241027335|1.537905812263489|-0.6497710347175598|12.86484909057617|-5.413345336914062|3.094932556152344|-1.264869928359985|XArbitraryZVertical|-0.1533879835533546|0.3159439201863776|0.2381357005372755|0.9055071632407892|0.6452332735061646|0.1273127794265747|-0.7533031105995178|0|0|0|-1|-1|3
2021-04-08 20:10:29.878 +0100|19609.359580625|-4.168991088867188|-0.5018463134765625|-1.087554931640625|19609.339620625|0.7170723672042036|0.7041083287920542|0.07090094217007784|3.575450420379639|0.06813628226518631|11.7413444519043|-5.308050632476807|1.935008883476257|-0.9909158945083618|XArbitraryZVertical|-0.08977132732373706|0.3343710884380039|0.3406192485321907|0.8741371428686561|0.6457280516624451|-0.07084155827760696|-0.7602741718292236|0|0|0|-1|-1|3
2021-04-08 20:10:29.898 +0100|19609.379541625|-3.028778076171875|-2.17388916015625|-0.1721954345703125|19609.359580625|0.819712506776742|0.7102577588007005|0.2753337542213787|5.312214374542236|2.086203336715698|9.166631698608398|-5.075010299682617|0.3115724921226501|-0.5518732666969299|XArbitraryZVertical|-0.01923145486063871|0.3671676591945235|0.4138435711249564|0.832797505411507|0.6274702548980713|-0.2718681395053864|-0.7296361327171326|0|0|0|-1|-1|3
2021-04-08 20:10:29.918 +0100|19609.399502625|-1.853347778320312|-3.106460571289062|0.149566650390625|19609.379541625|0.8733093640971969|0.7430335663722824|0.4628529397332671|5.027752876281738|2.942104816436768|7.105255126953125|-3.916193962097168|-1.402190327644348|0.2451932430267334|XArbitraryZVertical|0.04422973506064026|0.4105801461434776|0.4590067889459997|0.7866261407457583|0.6053426265716553|-0.446502685546875|-0.6589353680610657|0|0|0|-1|-1|3
2021-04-08 20:10:29.937 +0100|19609.419462625|-1.029312133789062|-3.018157958984375|-0.01904296875|19609.399502625|0.9078907439110203|0.779856102268478|0.6041130504419793|2.941923379898071|2.109155178070068|4.775618076324463|-2.716383218765259|-2.356542587280273|0.7646739482879639|XArbitraryZVertical|0.08814507546316018|0.4468172188699587|0.4888633914273502|0.7440414121085602|0.5787191987037659|-0.5680323243141174|-0.5851696133613586|0|0|0|-1|-1|3
2021-04-08 20:10:29.957 +0100|19609.439423625|-0.82476806640625|-2.369094848632812|-0.3044586181640625|19609.419462625|0.9501602298363141|0.7732738449934452|0.6702794524612027|-0.8267214894294739|-0.3033035397529602|2.247001171112061|-1.720611572265625|-2.534037113189697|0.6230257153511047|XArbitraryZVertical|0.1080052319953468|0.4559985228080267|0.5103611243408034|0.7210630596601744|0.5473640561103821|-0.6212050318717957|-0.5608004331588745|0|0|0|-1|-1|3
2021-04-08 20:10:29.978 +0100|19609.459383625|-0.84954833984375|-1.838226318359375|-0.4908905029296875|19609.439423625|1.01237160548409|0.7088442674619394|0.6449964592429729|-4.176480770111084|-2.115354537963867|-0.2935631573200226|-1.35010552406311|-1.929824829101562|0.3660704493522644|XArbitraryZVertical|0.100374766086706|0.4319952330138044|0.5274679751189914|0.7246258851990846|0.520180881023407|-0.6011956334114075|-0.6066100597381592|0|0|0|-1|-1|3
2021-04-08 20:10:29.997 +0100|19609.479344625|-0.696929931640625|-1.120193481445312|-0.9047393798828125|19609.459383625|1.058578336058652|0.6326455325893414|0.5498494487370837|-5.258715629577637|-2.74003529548645|-2.577217102050781|-1.364295244216919|-1.456825733184814|0.2791788578033447|XArbitraryZVertical|0.0715328244599335|0.3886968435447967|0.5347406613564539|0.7468938966290841|0.504127562046051|-0.522558867931366|-0.6875956654548645|0|0|0|-1|-1|3
2021-04-08 20:10:30.017 +0100|19609.499305625|-0.67034912109375|-0.26239013671875|-1.272018432617188|19609.479344625|1.059594431151188|0.5749871780800754|0.4261512683639713|-4.916300296783447|-2.962177515029907|-4.29745626449585|-1.23540472984314|-0.9032496809959412|-0.02203434705734253|XArbitraryZVertical|0.0349340254232027|0.3416248129508542|0.5253989098388462|0.7784781324086002|0.4951862990856171|-0.413369357585907|-0.7641441822052002|0|0|0|-1|-1|3
2021-04-08 20:10:30.037 +0100|19609.519265625|-0.621551513671875|0.3885345458984375|-1.491363525390625|19609.499305625|1.023298941819613|0.5289073101425673|0.2965478841447322|-4.35903263092041|-2.768319368362427|-5.265610694885254|-1.142003774642944|-0.1856533586978912|-0.4104402661323547|XArbitraryZVertical|-0.002238203101896017|0.2952251632080303|0.5010785755570504|0.8134847983662876|0.4825654029846191|-0.2922205328941345|-0.8256741762161255|0|0|0|-1|-1|3
2021-04-08 20:10:30.057 +0100|19609.539226625|-0.35394287109375|0.581146240234375|-1.457015991210938|19609.519265625|0.9652144136361183|0.4957787292578437|0.1755874450604903|-3.292134046554565|-1.84513247013092|-5.571159839630127|-1.13354754447937|0.4385272562503815|-0.5930934548377991|XArbitraryZVertical|-0.03813716368027845|0.2559464719406218|0.4672274850056243|0.8454204020316524|0.4684022068977356|-0.1746865808963776|-0.8660739064216614|0|0|0|-1|-1|3
2021-04-08 20:10:30.077 +0100|19609.559187625|-0.3290863037109375|0.6415863037109375|-1.27215576171875|19609.539226625|0.8891422768184013|0.4743575080375207|0.07485103064786162|-2.224637746810913|-1.3749178647995|-5.777851104736328|-0.8611730337142944|0.6589191555976868|-0.5709884762763977|XArbitraryZVertical|-0.06814518655114242|0.2276147475401486|0.4256749713719922|0.8731258393944052|0.4554880261421204|-0.0747811570763588|-0.8870955109596252|0|0|0|-1|-1|3
2021-04-08 20:10:30.097 +0100|19609.579147625|-0.220245361328125|0.955047607421875|-1.222640991210938|19609.559187625|0.8050728997340197|0.4519173403305687|-0.01244801227554184|-1.983656406402588|-1.11830198764801|-5.643137454986572|-0.7705041170120239|0.5886123180389404|-0.4251803159713745|XArbitraryZVertical|-0.09334791021762548|0.2037529720571404|0.380504474315636|0.8972109041169802|0.4366573691368103|0.01244769059121609|-0.8995417952537537|0|0|0|-1|-1|3
2021-04-08 20:10:30.117 +0100|19609.599108625|-0.226043701171875|1.075180053710938|-1.21087646484375|19609.579147625|0.7216029386744379|0.4270203624636522|-0.09523927621930943|-1.896641969680786|-0.9073857665061951|-5.450918674468994|-0.6532044410705566|0.7677902579307556|-0.3008910417556763|XArbitraryZVertical|-0.1182435517644259|0.1816011567302729|0.3351800520049268|0.9168936922667638|0.4122836589813232|0.09509536623954773|-0.9060789942741394|0|0|0|-1|-1|3
2021-04-08 20:10:30.137 +0100|19609.619069625|-0.1350250244140625|0.956085205078125|-1.109695434570312|19609.599108625|0.6343514305166722|0.4013155896338966|-0.167068793564538|-1.082383871078491|-0.4997189939022064|-5.392371654510498|-0.6092507839202881|0.9192644357681274|-0.3042900562286377|XArbitraryZVertical|-0.1396309789196071|0.1632112079691972|0.2887602349867858|0.9329967086652996|0.3851907849311829|0.166292667388916|-0.9077305793762207|0|0|0|-1|-1|3
2021-04-08 20:10:30.157 +0100|19609.63903029167|-0.075042724609375|0.7478790283203125|-1.013885498046875|19609.619069625|0.5396144475855058|0.375173096914456|-0.2200425951950722|-0.4600001275539398|-0.3442161381244659|-5.201061725616455|-0.5199822783470154|0.7758705615997314|-0.2406108379364014|XArbitraryZVertical|-0.1533777526409101|0.1499016894815581|0.2405508003764649|0.9466468545477967|0.357598215341568|0.2182711958885193|-0.9080094695091248|0|0|0|-1|-1|3
