loggingTime(txt)|accelerometerTimestamp_sinceReboot(s)|accelerometerAccelerationX(G)|accelerometerAccelerationY(G)|accelerometerAccelerationZ(G)|motionTimestamp_sinceReboot(s)|motionYaw(rad)|motionRoll(rad)|motionPitch(rad)|motionRotationRateX(rad/s)|motionRotationRateY(rad/s)|motionRotationRateZ(rad/s)|motionUserAccelerationX(G)|motionUserAccelerationY(G)|motionUserAccelerationZ(G)|motionAttitudeReferenceFrame(txt)|motionQuaternionX(R)|motionQuaternionY(R)|motionQuaternionZ(R)|motionQuaternionW(R)|motionGravityX(G)|motionGravityY(G)|motionGravityZ(G)|motionMagneticFieldX(µT)|motionMagneticFieldY(µT)|motionMagneticFieldZ(µT)|motionHeading(°)|motionMagneticFieldCalibrationAccuracy(Z)|label
2021-04-22 22:13:33.806 +0100|141387.403413|0.0883636474609375|-0.2727508544921875|-0.9951171875|141387.383453|0.03700878767082812|0.08799092287474324|0.2058864138861558|-0.1336499750614166|-0.03974883258342743|0.007013201713562012|-0.02465110272169113|-0.04179522395133972|-0.01945966482162476|XArbitraryZVertical|0.1018349683356951|0.04564052978752908|0.0229063752366292|0.9934898501622399|0.08602146804332733|-0.2044349312782288|-0.9750931859016418|0|0|0|-1|-1|3
2021-04-22 22:13:33.817 +0100|141387.423372|0.08160400390625|-0.1557159423828125|-0.9752197265625|141387.403413|0.03740989174051537|0.08645744629168584|0.2026893616931251|-0.2780804038047791|-0.05790174007415771|-0.03033656626939774|0.01034234464168549|-0.05400475859642029|-0.02106314897537231|XArbitraryZVertical|0.1002549382251603|0.04487652414168079|0.02296187828469914|0.9936840400672911|0.08458209037780762|-0.2013043612241745|-0.9758700728416443|0|0|0|-1|-1|3
2021-04-22 22:13:33.819 +0100|141387.4433319167|0.09027099609375|-0.1754913330078125|-0.976898193359375|141387.423372|0.03730130557283304|0.0856271235989155|0.1971773441243268|-0.1921079754829407|-0.008443213999271393|-0.04037605971097946|-0.00174308568239212|-0.002079710364341736|-0.009801208972930908|XArbitraryZVertical|0.09752739351983163|0.04441921055286535|0.022754077443516|0.9939808141889337|0.08386539667844772|-0.1959021538496017|-0.9770306944847107|0|0|0|-1|-1|3
2021-04-22 22:13:33.831 +0100|141387.4632909167|0.083251953125|-0.1993560791015625|-0.9904327392578125|141387.4433319167|0.03612471945390795|0.08592039576116009|0.1942651060774472|-0.05189531669020653|0.01899576000869274|-0.09276115149259567|0.01119692623615265|0.03299699723720551|0.0004429817199707031|XArbitraryZVertical|0.09610258042411693|0.04448754925614382|0.02212397121664589|0.994130612163777|0.08420053124427795|-0.193045511841774|-0.9775702953338623|0|0|0|-1|-1|3
2021-04-22 22:13:33.851 +0100|141387.4832499167|0.0934906005859375|-0.2217559814453125|-0.9940948486328125|141387.4632909167|0.03384373965449999|0.08711090144591244|0.1941593793547118|-0.04161261767148972|0.03937789052724838|-0.129619225859642|-0.004815399646759033|0.006724447011947632|-0.004749298095703125|XArbitraryZVertical|0.09608816946386728|0.04496900873839781|0.02104518464016491|0.9941339113578386|0.08536604791879654|-0.1929417848587036|-0.977489709854126|0|0|0|-1|-1|3
2021-04-22 22:13:33.870 +0100|141387.5032089167|0.0811614990234375|-0.189910888671875|-0.976104736328125|141387.4832499167|0.03179459366373927|0.08795717648782181|0.1929004011261801|-0.1619865894317627|0.009375198744237423|-0.09096661955118179|0.006405837833881378|-0.02978934347629547|-0.02225035429000854|XArbitraryZVertical|0.09549982105076932|0.0452839255038454|0.02004071495618224|0.9941969326550701|0.08621451258659363|-0.1917062997817993|-0.9776582717895508|0|0|0|-1|-1|3
2021-04-22 22:13:33.890 +0100|141387.5231689167|0.0806884765625|-0.161346435546875|-0.97021484375|141387.5032089167|0.03042984044961916|0.08826305683612332|0.1893359334520006|-0.246639758348465|0.002892638090997934|-0.08209838718175888|-0.004725590348243713|-0.01157565414905548|0.000995934009552002|XArbitraryZVertical|0.09375545256563961|0.04535133783579075|0.01930122905715596|0.9943745083530455|0.08657323569059372|-0.1882067322731018|-0.9783063530921936|0|0|0|-1|-1|3
2021-04-22 22:13:33.910 +0100|141387.5431279167|0.0713958740234375|-0.1550750732421875|-0.9658050537109375|141387.5231689167|0.02923719618426536|0.08867301771793883|0.1838778524647963|-0.1833464354276657|0.008202767930924892|-0.07443717867136002|-0.008313871920108795|0.006513804197311401|0.005249679088592529|XArbitraryZVertical|0.0910642557231716|0.04547083009242883|0.01861077296692752|0.9946324297332183|0.0870639756321907|-0.182843416929245|-0.9792793989181519|0|0|0|-1|-1|3
2021-04-22 22:13:33.930 +0100|141387.5630869167|0.08270263671875|-0.1348724365234375|-0.97705078125|141387.5431279167|0.02790697770045306|0.08889955756516416|0.1810764556321248|-0.08443275094032288|0.01399556826800108|-0.09145628660917282|-0.00876394659280777|0.03351354598999023|0.01151931285858154|XArbitraryZVertical|0.08969901063249672|0.0455091440679682|0.01789935271195785|0.9947677453670547|0.08733095228672028|-0.18008853495121|-0.9797660112380981|0|0|0|-1|-1|3
2021-04-22 22:13:33.950 +0100|141387.5830459167|0.0823211669921875|-0.165313720703125|-0.97857666015625|141387.5630869167|0.02636228581519397|0.0895645402948365|0.1809552198085664|0.01706091314554214|0.01022479869425297|-0.06693346053361893|-0.008944384753704071|0.04138988256454468|0.001366198062896729|XArbitraryZVertical|0.08966812314639171|0.04577005501665343|0.01715824707373224|0.9947716340238751|0.08798441290855408|-0.1799692809581757|-0.9797294735908508|0|0|0|-1|-1|3
2021-04-22 22:13:33.970 +0100|141387.6030049167|0.097015380859375|-0.16864013671875|-0.9801177978515625|141387.5830459167|0.02497755068737106|0.08979578182740915|0.1820893675531025|0.03864220157265663|-0.01080053765326738|-0.05751616507768631|-0.006695911288261414|0.019449383020401|0.004697203636169434|XArbitraryZVertical|0.09026204531360559|0.04582771877013547|0.0165045714650531|0.9947262877963252|0.08819259703159332|-0.1810847967863083|-0.979505181312561|0|0|0|-1|-1|3
2021-04-22 22:13:33.990 +0100|141387.6229649167|0.0819549560546875|-0.1682281494140625|-0.9694671630859375|141387.6030049167|0.02403971622761642|0.08923043508598957|0.1824626205273918|-0.001758581260219216|-0.05293046683073044|-0.03156481683254242|0.007566273212432861|0.02126604318618774|-0.003758549690246582|XArbitraryZVertical|0.09047372266975447|0.04550567870207144|0.01602069002760026|0.9947296946068013|0.08763279765844345|-0.1814518570899963|-0.9794874787330627|0|0|0|-1|-1|3
2021-04-22 22:13:34.010 +0100|141387.6429239167|0.082489013671875|-0.1794891357421875|-0.971923828125|141387.6229649167|0.02356001818990924|0.08800667664960961|0.1813465960697617|-0.04114976152777672|-0.06843997538089752|-0.01651271991431713|-0.003597110509872437|0.00733579695224762|0.01098388433456421|XArbitraryZVertical|0.08993911851368172|0.0448710016363686|0.01570288909551051|0.9948120739284385|0.08645182102918625|-0.1803542524576187|-0.9797950983047485|0|0|0|-1|-1|3
2021-04-22 22:13:34.030 +0100|141387.6628829167|0.0526885986328125|-0.2050018310546875|-0.9754486083984375|141387.6429239167|0.02383444593240192|0.08591284397398914|0.1792294506905774|-0.1188705414533615|-0.1131983920931816|0.02464465796947479|0.0002988651394844055|0.002536877989768982|0.00609356164932251|XArbitraryZVertical|0.088896213567643|0.0438333725718325|0.01570109268695534|0.994952144098093|0.0844326838850975|-0.1782714128494263|-0.9803522229194641|0|0|0|-1|-1|3
2021-04-22 22:13:34.050 +0100|141387.6828419167|0.027313232421875|-0.19659423828125|-0.9913482666015625|141387.6628829167|0.02496658331948637|0.08301677978792647|0.1750417190095814|-0.2879358232021332|-0.1533823907375336|0.04621457681059837|-0.0190022811293602|-0.01959067583084106|0.007710278034210205|XArbitraryZVertical|0.08681104639005938|0.04242460264561387|0.01605136411954486|0.9951917466368794|0.08165435492992401|-0.174149215221405|-0.981328010559082|0|0|0|-1|-1|3
2021-04-22 22:13:34.070 +0100|141387.7028019167|0.058502197265625|-0.073944091796875|-0.9567718505859375|141387.6828419167|0.0266470431569103|0.07997753311407076|0.1675716234786327|-0.3644366264343262|-0.1275194883346558|0.05441506952047348|-0.05072807520627975|-0.04828321933746338|-0.008248090744018555|XArbitraryZVertical|0.08308272177856343|0.04094842175518262|0.01661115917072876|0.9955624745558439|0.07877322286367416|-0.1667884886264801|-0.9828409552574158|0|0|0|-1|-1|3
2021-04-22 22:13:34.090 +0100|141387.7227609167|0.068572998046875|-0.1429290771484375|-0.956756591796875|141387.7028019167|0.02734394186446046|0.07768379486252758|0.163084314859397|-0.09247669577598572|-0.1004310846328735|-0.01799308322370052|-0.02292655408382416|0.07901978492736816|0.03015714883804321|XArbitraryZVertical|0.08085364142597454|0.03981221357820325|0.01677849048006374|0.9957893252361915|0.07657594978809357|-0.1623623669147491|-0.983755350112915|0|0|0|-1|-1|3
2021-04-22 22:13:34.110 +0100|141387.7427199167|0.0961151123046875|-0.225921630859375|-0.96868896484375|141387.7227609167|0.02628741831916714|0.07658781920274484|0.1639121547435424|0.1228104680776596|-0.04896949604153633|-0.0824027881026268|-0.01219447702169418|0.03874467313289642|0.03314262628555298|XArbitraryZVertical|0.08129577778912551|0.03922793236915349|0.01622348026058808|0.9957856405024453|0.075487419962883|-0.1631791591644287|-0.9837043285369873|0|0|0|-1|-1|3
2021-04-22 22:13:34.130 +0100|141387.7626789167|0.0608673095703125|-0.26617431640625|-0.972564697265625|141387.7427199167|0.02451938172676776|0.0756149497634156|0.1665880861104989|0.04721254110336304|-0.08222470432519913|-0.07444535195827484|0.01777226477861404|-0.03687818348407745|0.01554948091506958|XArbitraryZVertical|0.08267027177353693|0.03868381274647033|0.01535266013578877|0.9957076353212985|0.07449711859226227|-0.1658186465501785|-0.9833383560180664|0|0|0|-1|-1|3
2021-04-22 22:13:34.150 +0100|141387.7826379167|0.0196533203125|-0.27978515625|-1.005996704101562|141387.7626789167|0.02336422920525836|0.07295693748609987|0.1649011179848244|-0.311428040266037|-0.1278188228607178|-0.06266503781080246|-0.0005690976977348328|-0.09574723243713379|0.01483142375946045|XArbitraryZVertical|0.08187216989904836|0.03730544691376856|0.01463781053967088|0.995836871221782|0.07190342247486115|-0.1641547977924347|-0.9838104844093323|0|0|0|-1|-1|3
2021-04-22 22:13:34.170 +0100|141387.8025979167|-0.017852783203125|-0.2906951904296875|-0.980560302734375|141387.7826379167|0.02323827738438354|0.06908688711207595|0.153721372540794|-0.7547504305839539|-0.2086822986602783|-0.04694519191980362|-0.03492376208305359|-0.1135907620191574|-0.01125031709671021|XArbitraryZVertical|0.07633394516790319|0.03532390611518606|0.01422937441591643|0.9963548998977614|0.0682179257273674|-0.1531166732311249|-0.9858506917953491|0|0|0|-1|-1|3
2021-04-22 22:13:34.190 +0100|141387.8225569167|-0.035858154296875|-0.2486114501953125|-0.9199371337890625|141387.8025979167|0.02334959863032649|0.06465990285364194|0.1322305086765924|-1.330575346946716|-0.2149172425270081|-0.09784761071205139|-0.0752054899930954|-0.1645707786083221|-0.002851486206054688|XArbitraryZVertical|0.06565151742686563|0.03302239389555212|0.0137783660553782|0.9972009908298097|0.06405078619718552|-0.1318455040454865|-0.9891988039016724|0|0|0|-1|-1|3
2021-04-22 22:13:34.210 +0100|141387.8425159167|-0.022186279296875|-0.16510009765625|-0.881500244140625|141387.8225569167|0.02232150851485346|0.06073370156375728|0.1015401962613746|-1.718597054481506|-0.1717845648527145|-0.2063324451446533|-0.09039829671382904|-0.1735966205596924|0.0545077919960022|XArbitraryZVertical|0.05038330979135718|0.03088728728084072|0.01268173514621677|0.998171725387671|0.06038373708724976|-0.1013657972216606|-0.9930149912834167|0|0|0|-1|-1|3
2021-04-22 22:13:34.230 +0100|141387.8624749167|-0.08270263671875|-0.2753448486328125|-0.8940887451171875|141387.8425159167|0.02002574788367881|0.05761891746616531|0.06459106390756683|-1.978346467018127|-0.1893864721059799|-0.2648126184940338|-0.07904341816902161|-0.1145910620689392|0.09719550609588623|XArbitraryZVertical|0.03198662997139077|0.02911218427701101|0.01093341216381422|0.9990044267523571|0.05746695771813393|-0.06454616039991379|-0.9962586760520935|0|0|0|-1|-1|3
2021-04-22 22:13:34.250 +0100|141387.8824339167|-0.144439697265625|-0.2609100341796875|-0.85211181640625|141387.8624749167|0.01606654733481528|0.05361659567895412|0.01856114751963739|-2.659926414489746|-0.206046998500824|-0.4002839028835297|-0.112587958574295|-0.2176144868135452|0.1003349423408508|XArbitraryZVertical|0.009061485014128906|0.02687759072683182|0.008278709414141397|0.9995634387555967|0.05358167737722397|-0.01856008172035217|-0.9983909726142883|0|0|0|-1|-1|3
2021-04-22 22:13:34.270 +0100|141387.9023939167|-0.193634033203125|-0.169219970703125|-0.732147216796875|141387.8824339167|0.008945900860503416|0.05016499285945798|-0.04312333620880977|-3.414542436599731|-0.1371131986379623|-0.6346908211708069|-0.1870149970054626|-0.324770987033844|0.1271012425422668|XArbitraryZVertical|-0.02166515233112227|0.02497737715260136|0.003929772419544601|0.9994456094042915|0.05009733885526657|0.04310997202992439|-0.9978135228157043|0|0|0|-1|-1|3
2021-04-22 22:13:34.290 +0100|141387.9223529167|-0.2291259765625|-0.1242523193359375|-0.63922119140625|141387.9023939167|-0.002880411527943743|0.04755154936400179|-0.1176436062676633|-4.061886787414551|-0.01047030556946993|-0.8951399922370911|-0.2278086692094803|-0.2990731298923492|0.2337257862091064|XArbitraryZVertical|-0.05873702671775996|0.02381703397486552|-0.002834901972419323|0.9979854079166012|0.04720507562160492|0.1173724308609962|-0.9919654130935669|0|0|0|-1|-1|3
2021-04-22 22:13:34.310 +0100|141387.9423119167|-0.189208984375|0.0995330810546875|-0.5883941650390625|141387.9223529167|-0.01880805689779707|0.04690689465807402|-0.2048080546069759|-4.516116619110107|0.2034848034381866|-1.069873571395874|-0.2758602499961853|-0.3623595833778381|0.3105275630950928|XArbitraryZVertical|-0.1019731189778367|0.02428845732953407|-0.0117492569345542|0.9944213205006995|0.04590970277786255|0.2033792287111282|-0.9780231118202209|0|0|0|-1|-1|3
2021-04-22 22:13:34.330 +0100|141387.9622709167|-0.188720703125|0.1876373291015625|-0.5645599365234375|141387.9423119167|-0.03796896278456953|0.04821564573859553|-0.294622273024134|-4.230263233184814|0.3948894441127777|-1.218817234039307|-0.2553798854351044|-0.2501095235347748|0.361851692199707|XArbitraryZVertical|-0.1462571699406799|0.02662565345506863|-0.02230981898009586|0.9886366340574879|0.04612025246024132|0.2903784215450287|-0.9557998180389404|0|0|0|-1|-1|3
2021-04-22 22:13:34.350 +0100|141387.9822299167|-0.1934661865234375|0.26312255859375|-0.5405731201171875|141387.9622709167|-0.06248466187374013|0.04837926090087333|-0.3719064851864864|-3.395354509353638|0.4548406600952148|-1.499418973922729|-0.2240100055932999|-0.1851076483726501|0.3486373424530029|XArbitraryZVertical|-0.1839966030514714|0.02953224970277938|-0.03515939046608088|0.9818539152164909|0.04505429416894913|0.3633922338485718|-0.9305461645126343|0|0|0|-1|-1|3
2021-04-22 22:13:34.370 +0100|141388.0021899167|-0.1214447021484375|0.22607421875|-0.4039154052734375|141387.9822299167|-0.09724754504761364|0.04431541152618533|-0.4321907002696226|-2.40337061882019|0.5783236622810364|-1.995958805084229|-0.2475950568914413|-0.1685702800750732|0.3736356496810913|XArbitraryZVertical|-0.2130595870573711|0.03203412995762205|-0.05220750991348539|0.9751174154082298|0.04022745415568352|0.41886106133461|-0.9071588516235352|0|0|0|-1|-1|3
2021-04-22 22:13:34.390 +0100|141388.0221489167|-0.3441925048828125|0.3676605224609375|-0.447998046875|141388.0021899167|-0.1403172353920074|0.03499006046362153|-0.4719210166296228|-1.607199907302856|0.4338864386081696|-2.067920446395874|-0.1306471824645996|-0.1812361180782318|0.4377592802047729|XArbitraryZVertical|-0.2319737984484041|0.03335304266439346|-0.07222782442418202|0.9694632190769515|0.0311591699719429|0.4545981585979462|-0.8901514410972595|0|0|0|-1|-1|3
2021-04-22 22:13:34.409 +0100|141388.0421079167|-0.326812744140625|0.6952056884765625|-0.5799560546875|141388.0221489167|-0.1919943564543829|0.02020871444977119|-0.5042855740339657|-1.492384314537048|0.5132142305374146|-2.646302461624146|-0.3198777139186859|-0.2248805165290833|0.4633085131645203|XArbitraryZVertical|-0.2473803599097916|0.03365098279883987|-0.09532347629775419|0.9636306867499257|0.01769192703068256|0.4831820726394653|-0.8753411173820496|0|0|0|-1|-1|3
2021-04-22 22:13:34.430 +0100|141388.0620669167|-0.4510955810546875|0.7392120361328125|-0.7738189697265625|141388.0421079167|-0.2547256000886982|-0.001946926778956813|-0.530990373055|-1.104028820991516|0.3371759653091431|-2.871540784835815|-0.3160251975059509|0.1331547498703003|0.3051911592483521|XArbitraryZVertical|-0.2603810377810326|0.03239630752257063|-0.1223149209111608|0.9571789379886297|-0.001678845612332225|0.5063875913619995|-0.8623043894767761|0|0|0|-1|-1|3
2021-04-22 22:13:34.449 +0100|141388.0820269167|-0.516326904296875|0.8411407470703125|-0.8037567138671875|141388.0620669167|-0.3269521282237217|-0.034690575066448|-0.5526429266208306|-1.209119200706482|0.09514128416776657|-3.17424464225769|-0.39131760597229|0.2064616680145264|0.1213804483413696|XArbitraryZVertical|-0.2718563546984732|0.02793023110659512|-0.1518827538697693|0.9498661899980775|-0.02952061966061592|0.5249385833740234|-0.8506280779838562|0|0|0|-1|-1|3
2021-04-22 22:13:34.469 +0100|141388.1019859167|-0.59429931640625|0.8223419189453125|-0.8145904541015625|141388.0820269167|-0.4043319679129964|-0.0750859261264408|-0.578141596696972|-1.71199893951416|0.007159554399549961|-3.196286916732788|-0.4472172856330872|0.2818859815597534|0.01711201667785645|XArbitraryZVertical|-0.2862831741832762|0.02195355801746391|-0.1818433918625655|0.9404749144270032|-0.06282386928796768|0.5464684963226318|-0.8351199626922607|0|0|0|-1|-1|3
2021-04-22 22:13:34.489 +0100|141388.1219449167|-0.5888214111328125|1.099151611328125|-0.899688720703125|141388.1019859167|-0.4852506894835551|-0.1197681344910958|-0.6082183579251436|-1.907492637634277|0.02331327646970749|-3.240422487258911|-0.4701984822750092|0.2300317287445068|0.02110296487808228|XArbitraryZVertical|-0.3038706562521125|0.01638326515349079|-0.2114205486015341|0.9288141234418663|-0.09805498272180557|0.5714062452316284|-0.8147884011268616|0|0|0|-1|-1|3
2021-04-22 22:13:34.509 +0100|141388.1419039167|-0.4395294189453125|1.0142822265625|-0.8720550537109375|141388.1219449167|-0.5674997152510091|-0.1649284687395113|-0.6369938551916889|-1.854208827018738|0.2667838931083679|-2.845450401306152|-0.4896603524684906|0.4284123182296753|-0.09731006622314453|XArbitraryZVertical|-0.3214967003891944|0.01226783329337794|-0.2402120077374849|0.9158535191079075|-0.1319836527109146|0.5947815179824829|-0.7929787635803223|0|0|0|-1|-1|3
2021-04-22 22:13:34.529 +0100|141388.1618629167|-0.451751708984375|0.9628448486328125|-0.7985992431640625|141388.1419039167|-0.638730070915615|-0.2004870334231554|-0.6639045051108745|-1.877650380134583|0.5246178507804871|-2.164505243301392|-0.3262936472892761|0.4873956441879272|-0.1145507097244263|XArbitraryZVertical|-0.3375622806681109|0.01197549351475743|-0.2643692280463677|0.9033367030169241|-0.156846359372139|0.6161966919898987|-0.771816611289978|0|0|0|-1|-1|3
2021-04-22 22:13:34.549 +0100|141388.1818229167|-0.17779541015625|1.054336547851562|-0.984466552734375|141388.1618629167|-0.6979600977211965|-0.2260775553847478|-0.6931383640936062|-1.889790892601013|0.6908063888549805|-1.845717549324036|-0.262765645980835|0.284675657749176|-0.05230116844177246|XArbitraryZVertical|-0.3534378908263175|0.01570969117561419|-0.2835514940401727|0.8913100404138907|-0.1724312752485275|0.6389545202255249|-0.7496697306632996|0|0|0|-1|-1|3
2021-04-22 22:13:34.569 +0100|141388.2017819167|0.050384521484375|0.859375|-1.032257080078125|141388.1818229167|-0.7513316605010928|-0.2456540519462734|-0.7171749156450468|-1.192077040672302|0.6642267107963562|-1.58571720123291|-0.08974198997020721|0.3790581226348877|-0.1856318712234497|XArbitraryZVertical|-0.3661099621977385|0.02106645586449333|-0.30096747562442|0.8803058634813979|-0.1832845360040665|0.657258152961731|-0.7310394048690796|0|0|0|-1|-1|3
2021-04-22 22:13:34.589 +0100|141388.2217409167|0.12921142578125|0.8321075439453125|-1.03057861328125|141388.2017819167|-0.7934339713828635|-0.2616188843801084|-0.7322323242636545|-0.9732786417007446|0.5512892603874207|-1.278691053390503|0.2313961237668991|0.2248557209968567|-0.2565815448760986|XArbitraryZVertical|-0.3744266334410776|0.02481051746036029|-0.3146331701411761|0.8718917954663901|-0.192349910736084|0.6685314178466797|-0.7183782458305359|0|0|0|-1|-1|3
2021-04-22 22:13:34.622 +0100|141388.2416999167|0.2168731689453125|0.7429656982421875|-1.097518920898438|141388.2416999167|-0.8902878555553199|-0.3101659906477817|-0.7564135907707019|-1.034952521324158|0.3485629558563232|-1.631741404533386|0.3816974461078644|0.1174395084381104|-0.4170669913291931|XArbitraryZVertical|-0.391079671300482|0.02753104466270572|-0.3438773645422675|0.8532568992640164|-0.221984788775444|0.6863174438476562|-0.6925974488258362|0|0|0|-1|-1|3
2021-04-22 22:13:34.629 +0100|141388.2616589167|0.3342742919921875|0.7100372314453125|-1.01629638671875||||||||||||||||||||||||3
2021-04-22 22:13:34.649 +0100|141388.2816189167|0.3340911865234375|0.38848876953125|-0.8570709228515625|141388.2616589167|-0.9359125914058303|-0.3399721521873407|-0.7577633664563137|-0.1419465243816376|-0.1441697925329208|-1.543172955513|0.6172318458557129|-0.07990700006484985|-0.3936141729354858|XArbitraryZVertical|-0.3962525671212105|0.0241615233997459|-0.3571879182028463|0.8454684939116112|-0.2422176450490952|0.6872985363006592|-0.6848002672195435|0|0|0|-1|-1|3
2021-04-22 22:13:34.669 +0100|141388.3015779167|0.324310302734375|0.6295318603515625|-0.8080291748046875|141388.2816189167|-0.9735074071644594|-0.3696472733897882|-0.7536946391645154|-0.391952246427536|-0.2421083897352219|-1.189361691474915|0.5840543508529663|-0.136974036693573|-0.1733723282814026|XArbitraryZVertical|-0.3996410593771006|0.0181681569008781|-0.3677562342646556|0.8394714535061319|-0.2634376883506775|0.6843374371528625|-0.6799138784408569|0|0|0|-1|-1|3
2021-04-22 22:13:34.689 +0100|141388.3215369167|0.1038970947265625|0.613006591796875|-0.6654205322265625|141388.3015779167|-1.006392241580099|-0.3999611590750348|-0.7524262804349828|-0.3353061378002167|-0.5914141535758972|-1.111386895179749|0.6118978261947632|-0.1318982243537903|-0.1463243961334229|XArbitraryZVertical|-0.40454067184538|0.0117842942780597|-0.3756260940716101|0.833734534505865|-0.2842621207237244|0.6834120154380798|-0.6724159717559814|0|0|0|-1|-1|3
2021-04-22 22:13:34.709 +0100|141388.3414959167|0.00787353515625|0.7736358642578125|-0.459014892578125|141388.3215369167|-1.040026219548228|-0.4387812656765933|-0.7509591749049379|-0.6535754203796387|-0.9119825959205627|-1.178037047386169|0.4913705885410309|-0.05741649866104126|-0.06657862663269043|XArbitraryZVertical|-0.4112218941242067|0.002143293935177912|-0.3819325890086306|0.8276590887796922|-0.310570240020752|0.6823402643203735|-0.6617839336395264|0|0|0|-1|-1|3
2021-04-22 22:13:34.729 +0100|141388.3614549167|-0.26422119140625|0.80206298828125|-0.3867645263671875|141388.3414959167|-1.072561519769468|-0.4778691156019061|-0.7573245640352204|-0.7500254511833191|-0.856658935546875|-0.6466372013092041|0.349569708108902|0.02069252729415894|0.1670317053794861|XArbitraryZVertical|-0.4211098850092982|-0.005513134731474818|-0.3860516414124687|0.8207316706281422|-0.3341899216175079|0.6869797110557556|-0.6452721357345581|0|0|0|-1|-1|3
2021-04-22 22:13:34.749 +0100|141388.3814149167|-0.215850830078125|0.911956787109375|-0.4522857666015625|141388.3614549167|-1.091252176731995|-0.5038576492614449|-0.7608390733127537|-0.3063164949417114|-0.4041953086853027|-0.2399663925170898|0.1051233410835266|0.1522065401077271|0.2449854016304016|XArbitraryZVertical|-0.4274901817217683|-0.01123552999680811|-0.3875241622437523|0.8166707700314214|-0.3496769964694977|0.6895294189453125|-0.6342518329620361|0|0|0|-1|-1|3
2021-04-22 22:13:34.769 +0100|141388.4013739167|-0.26312255859375|0.7913970947265625|-0.5877685546875|141388.3814149167|-1.091162578449435|-0.5093569566365657|-0.7651721535838585|-0.1076789423823357|-0.2083453088998795|0.3942915797233582|0.1348099708557129|0.1874200701713562|0.1970729231834412|XArbitraryZVertical|-0.4301114842948792|-0.01231676216118317|-0.3854725487613369|0.8162496816555239|-0.3516994416713715|0.6926611661911011|-0.6297048330307007|0|0|0|-1|-1|3
2021-04-22 22:13:34.789 +0100|141388.4213329167|-0.278961181640625|0.7807464599609375|-0.6623992919921875|141388.4013739167|-1.077274540048771|-0.5031223390273195|-0.7738828185018335|-0.2264245003461838|-0.1455423831939697|0.9448868036270142|0.0927375853061676|0.1301230788230896|0.0623212456703186|XArbitraryZVertical|-0.4319770898442335|-0.01039535517799587|-0.3794591503516005|0.8181067269532645|-0.3448443412780762|0.6989175081253052|-0.6265754699707031|0|0|0|-1|-1|3
2021-04-22 22:13:34.809 +0100|141388.441292875|-0.31719970703125|0.7629852294921875|-0.5692901611328125|141388.4213329167|-1.053401372375071|-0.4896723535969125|-0.7903922044420109|-0.3588292896747589|-0.1944830268621445|1.273642420768738|0.05939739942550659|0.0689881443977356|-0.02660232782363892|XArbitraryZVertical|-0.4353434775621968|-0.005637575585248299|-0.3694289177003829|0.8209548009441762|-0.3309133350849152|0.7106292843818665|-0.6208885312080383|0|0|0|-1|-1|3
2021-04-22 22:13:34.829 +0100|141388.461252875|-0.4439544677734375|0.959259033203125|-0.543426513671875|141388.441292875|-1.027753890679991|-0.4769125890032479|-0.8116958505479934|-0.716298520565033|-0.3393300771713257|1.26283061504364|0.02129384875297546|0.03943729400634766|0.02069574594497681|XArbitraryZVertical|-0.4407549994600709|-0.0004126955977776589|-0.3576391960344667|0.8233038896279187|-0.3159420788288116|0.7254554033279419|-0.6114697456359863|0|0|0|-1|-1|3
2021-04-22 22:13:34.849 +0100|141388.481211875|-0.504669189453125|1.101821899414062|-0.602325439453125|141388.461252875|-1.007240993763226|-0.4685251147633359|-0.8372887275691361|-0.8527625203132629|-0.2701870203018188|1.084355592727661|-0.1036589741706848|0.1639687418937683|0.06353551149368286|XArbitraryZVertical|-0.4486731692990502|0.005080754011028358|-0.3462312174278874|0.8238875544506804|-0.3023173809051514|0.7428306937217712|-0.5973331332206726|0|0|0|-1|-1|3
2021-04-22 22:13:34.869 +0100|141388.501170875|-0.5427398681640625|1.109176635742188|-0.478607177734375|141388.481211875|-0.9902613295840067|-0.461855356002422|-0.8579071574514057|-0.5639661550521851|-0.2961197197437286|0.9454429745674133|-0.1992238759994507|0.3221532106399536|-0.04671823978424072|XArbitraryZVertical|-0.4551544232016153|0.009228975399928717|-0.3368652390789109|0.8241791961957423|-0.2914387583732605|0.7564754486083984|-0.585498571395874|0|0|0|-1|-1|3
2021-04-22 22:13:34.889 +0100|141388.521129875|-0.4555816650390625|1.101516723632812|-0.3852081298828125|141388.501170875|-0.9723447138845017|-0.4525891554676991|-0.8728642866947484|-0.2353151589632034|-0.1334011405706406|0.7704095840454102|-0.2643899321556091|0.362779438495636|0.07201308012008667|XArbitraryZVertical|-0.4592083838173066|0.0126970224402006|-0.3287994328102845|0.8251408798535628|-0.2810212373733521|0.7661727666854858|-0.5779328942298889|0|0|0|-1|-1|3
2021-04-22 22:13:34.909 +0100|141388.541088875|-0.48223876953125|0.6473541259765625|-0.393768310546875|141388.521129875|-0.9538065854263948|-0.440159247304238|-0.8760510547614957|0.3859511613845825|-0.07296894490718842|0.5241119861602783|-0.1959308683872223|0.3429436087608337|0.1712872982025146|XArbitraryZVertical|-0.4584855037052442|0.01436430509865174|-0.323403286829067|0.8276443506457375|-0.2727743685245514|0.7682167887687683|-0.5791693925857544|0|0|0|-1|-1|3
2021-04-22 22:13:34.929 +0100|141388.561048875|-0.3971405029296875|0.797760009765625|-0.2943878173828125|141388.541088875|-0.9400434201883132|-0.4274879537391838|-0.8725017729183043|0.2473044544458389|0.2340181618928909|0.1521965861320496|-0.235197901725769|-0.006616473197937012|0.1816913485527039|XArbitraryZVertical|-0.4552228605656795|0.01561259400018882|-0.3212357129416599|0.8302626833718388|-0.2665425837039948|0.7659397721290588|-0.5850567817687988|0|0|0|-1|-1|3
2021-04-22 22:13:34.949 +0100|141388.581007875|-0.407318115234375|0.990509033203125|-0.288238525390625|141388.561048875|-0.9363296366460356|-0.4175909664617138|-0.868419049790913|0.425750195980072|0.4135502278804779|-0.09617612510919571|-0.1561627388000488|-0.02847570180892944|0.2983601093292236|XArbitraryZVertical|-0.4521280228616177|0.01790223119358742|-0.3226646838023137|0.8313527032781041|-0.2620053589344025|0.7633085250854492|-0.5905195474624634|0|0|0|-1|-1|3
2021-04-22 22:13:34.970 +0100|141388.600966875|-0.3356475830078125|0.94793701171875|-0.355926513671875|141388.581007875|-0.9325293034429794|-0.4066146913729199|-0.8517263062918133|1.052347540855408|0.4696768820285797|-0.371593564748764|-0.1389339864253998|0.1832810640335083|0.2991939187049866|XArbitraryZVertical|-0.4440710192976253|0.01764084811063689|-0.3264613827628055|0.8342139822716161|-0.2605116069316864|0.7524186372756958|-0.6049794554710388|0|0|0|-1|-1|3
2021-04-22 22:13:34.989 +0100|141388.620925875|-0.2700653076171875|0.69921875|-0.4006195068359375|141388.600966875|-0.9331323209059571|-0.3962286337536083|-0.8256729755484417|1.189020156860352|0.5685448050498962|-0.6514784097671509|-0.1071284115314484|0.2594416737556458|0.2782694697380066|XArbitraryZVertical|-0.4324143132977514|0.0159264757582689|-0.333445160224479|0.8376030040204138|-0.2616927921772003|0.7350042462348938|-0.6255283951759338|0|0|0|-1|-1|3
2021-04-22 22:13:35.009 +0100|141388.640885875|-0.184478759765625|0.55615234375|-0.44451904296875|141388.620925875|-0.9386771319321386|-0.3885181347718686|-0.798567105510915|1.104091286659241|0.6063238382339478|-0.760493278503418|-0.01925656199455261|-0.01643627882003784|0.2645383477210999|XArbitraryZVertical|-0.4206427125802285|0.01390358958963746|-0.3419497653962759|0.8402004457315676|-0.2643137574195862|0.7163570523262024|-0.6457328200340271|0|0|0|-1|-1|3
2021-04-22 22:13:35.028 +0100|141388.660844875|-0.0444488525390625|0.534271240234375|-0.3633880615234375|141388.640885875|-0.9532456389466837|-0.3880130367326631|-0.7798353794346665|0.1732916384935379|0.5009810924530029|-0.8561641573905945|0.05058729648590088|-0.05942440032958984|0.2051098942756653|XArbitraryZVertical|-0.413222473538991|0.01266975933467081|-0.3512690715667333|0.8400576371611107|-0.2690179049968719|0.7031623721122742|-0.6581733226776123|0|0|0|-1|-1|3
2021-04-22 22:13:35.049 +0100|141388.680803875|-0.205474853515625|0.69268798828125|-0.3687744140625|141388.680803875|-0.998060701133805|-0.4012886541004706|-0.7758669936358894|-0.4441450834274292|0.5278825163841248|-0.7778045535087585|0.105234295129776|-0.07350397109985352|0.3058813810348511|XArbitraryZVertical|-0.4137737717346514|0.01540946026537629|-0.3679286273599804|0.8325757874432962|-0.278819352388382|0.7003352046012878|-0.6571076512336731|0|0|0|-1|-1|3
2021-04-22 22:13:35.076 +0100|141388.700762875|-0.149749755859375|0.850616455078125|-0.609344482421875||||||||||||||||||||||||3
2021-04-22 22:13:35.088 +0100|141388.720721875|-0.24127197265625|0.883056640625|-0.7319488525390625|141388.700762875|-1.024458456620963|-0.4082141882740853|-0.7787880610498008|-0.5096777081489563|0.5399166941642761|-0.8074689507484436|0.1138937175273895|0.1377012133598328|0.1037815809249878|XArbitraryZVertical|-0.4159425165052915|0.01874969269489061|-0.3769466450439709|0.8273764093490992|-0.2825501561164856|0.7024173140525818|-0.6532805562019348|0|0|0|-1|-1|3
2021-04-22 22:13:35.108 +0100|141388.740681875|-0.2308197021484375|0.8259735107421875|-0.8044891357421875|141388.720721875|-1.050934146944022|-0.4179489781769936|-0.7809186967396747|-0.504645824432373|0.3545224070549011|-0.8715833425521851|0.06968960165977478|0.1809250116348267|-0.07447206974029541|XArbitraryZVertical|-0.4183326083469514|0.02080750378648489|-0.3854626717229258|0.8221821471057126|-0.2882880866527557|0.7039322257041931|-0.6491297483444214|0|0|0|-1|-1|3
2021-04-22 22:13:35.128 +0100|141388.760640875|-0.2341766357421875|0.8007354736328125|-0.7774810791015625|141388.740681875|-1.08058062060074|-0.4316001108565281|-0.7836188102748947|-0.5494086146354675|0.3231620490550995|-0.9098706841468811|0.04029786586761475|0.1251310110092163|-0.129711389541626|XArbitraryZVertical|-0.4216711450287746|0.0221548073762847|-0.3942573046925585|0.8162499244237827|-0.2963261306285858|0.705847442150116|-0.6434051990509033|0|0|0|-1|-1|3
2021-04-22 22:13:35.148 +0100|141388.780599875|-0.2885589599609375|0.795135498046875|-0.7810821533203125|141388.760640875|-1.108384090887215|-0.4473091348002054|-0.7865869906955607|-0.5750688910484314|0.1007489413022995|-0.7448919415473938|0.09084245562553406|0.09231561422348022|-0.1457366943359375|XArbitraryZVertical|-0.4255655648077883|0.02245675448621162|-0.4016944364769525|0.8105747498470764|-0.3054888844490051|0.7079468965530396|-0.6367793083190918|0|0|0|-1|-1|3
2021-04-22 22:13:35.168 +0100|141388.800558875|-0.3024139404296875|0.898590087890625|-0.733306884765625|141388.780599875|-1.13080349026518|-0.4635196535967007|-0.7916658542515119|-0.5588151812553406|-0.1493621915578842|-0.4369138181209564|0.01403295993804932|0.06728380918502808|-0.1355335116386414|XArbitraryZVertical|-0.4304088195265884|0.02210362000310073|-0.4063311177171807|0.8057014415582899|-0.3141591548919678|0.7115247845649719|-0.6285193562507629|0|0|0|-1|-1|3
2021-04-22 22:13:35.188 +0100|141388.820518875|-0.323638916015625|1.062469482421875|-0.7765960693359375|141388.800558875|-1.145483709214603|-0.4777886940562615|-0.797835222740069|-0.4496182203292847|-0.2703211307525635|-0.1922676861286163|0.0230502188205719|0.18449866771698|-0.1238636374473572|XArbitraryZVertical|-0.4353345295278549|0.02126984239588054|-0.4079598525668898|0.8022470829499811|-0.321070671081543|0.7158461809158325|-0.6200628876686096|0|0|0|-1|-1|3
2021-04-22 22:13:35.208 +0100|141388.840477875|-0.2545166015625|0.8932952880859375|-0.8557281494140625|141388.820518875|-1.15332195432708|-0.4887126357556411|-0.8031918606378491|-0.2676419019699097|-0.2242670655250549|-0.09398496150970459|-0.01797524094581604|0.3054024577140808|-0.1259195804595947|XArbitraryZVertical|-0.4393553764632405|0.02011895063879353|-0.407665027811677|0.8002321994585077|-0.3260199725627899|0.7195762395858765|-0.6131241917610168|0|0|0|-1|-1|3
2021-04-22 22:13:35.228 +0100|141388.860436875|-0.2593536376953125|0.6269683837890625|-0.71160888671875|141388.840477875|-1.154634598036815|-0.4962109696504769|-0.8034271427902734|0.1598479598760605|-0.4265006184577942|0.1252872943878174|0.07188999652862549|0.2235435247421265|-0.2612665295600891|XArbitraryZVertical|-0.4409511805515398|0.01747475766361411|-0.4064935018554297|0.8000124130129878|-0.3305275440216064|0.7197396159172058|-0.6105133891105652|0|0|0|-1|-1|3
2021-04-22 22:13:35.248 +0100|141388.880395875|-0.242828369140625|0.7178802490234375|-0.7332000732421875|141388.860436875|-1.145831752060588|-0.4996250392432801|-0.8020373169395342|0.2091371715068817|-0.5371218323707581|0.3555828332901001|0.09111395478248596|-0.004021823406219482|-0.113968551158905|XArbitraryZVertical|-0.4412266038762334|0.01377268941445732|-0.4024904442701793|0.801954432902128|-0.3330888450145721|0.7187740206718445|-0.6102588176727295|0|0|0|-1|-1|3
2021-04-22 22:13:35.268 +0100|141388.900354875|-0.1650238037109375|0.880401611328125|-0.6785888671875|141388.880395875|-1.128302376692983|-0.4975087330919341|-0.8049687471858818|0.06608105450868607|-0.4618845582008362|0.7725210189819336|0.07061100006103516|-0.06886196136474609|-0.1249001026153564|XArbitraryZVertical|-0.4419410757579921|0.01157559305851547|-0.3953352907188415|0.8051486262685859|-0.3307896554470062|0.7208089828491211|-0.6091082096099854|0|0|0|-1|-1|3
2021-04-22 22:13:35.288 +0100|141388.920314875|-0.23699951171875|0.84185791015625|-0.6682891845703125|141388.900354875|-1.108371367226925|-0.4920844280927259|-0.812866297573796|-0.0452488511800766|-0.4328305423259735|0.810829222202301|0.1650815308094025|0.1450316309928894|-0.08242040872573853|XArbitraryZVertical|-0.4437772000995563|0.01153988182941271|-0.3869445367139348|0.8082095198727977|-0.3247810304164886|0.7262604832649231|-0.605857253074646|0|0|0|-1|-1|3
2021-04-22 22:13:35.308 +0100|141388.940273875|-0.198028564453125|0.92236328125|-0.739959716796875|141388.920314875|-1.088615763800077|-0.4856042528078133|-0.820609543061823|0.03046631440520287|-0.3698707222938538|0.6833991408348083|0.09268790483474731|0.1098386645317078|-0.0597463846206665|XArbitraryZVertical|-0.4453985463531266|0.01188890866849847|-0.3788750247875516|0.8111305277733261|-0.3182138502597809|0.731561541557312|-0.6029576063156128|0|0|0|-1|-1|3
2021-04-22 22:13:35.328 +0100|141388.960232875|-0.167327880859375|0.8785552978515625|-0.7856597900390625|141388.940273875|-1.069633717866308|-0.4775151842499634|-0.8220605829376376|0.5205479860305786|-0.2324716150760651|0.515700101852417|0.09770321846008301|0.1622864603996277|-0.1157832145690918|XArbitraryZVertical|-0.4445077179143547|0.01134451670987268|-0.3726795926432984|0.8144901437863082|-0.3128379285335541|0.7325500249862671|-0.6045683622360229|0|0|0|-1|-1|3
2021-04-22 22:13:35.348 +0100|141388.980191875|-0.186248779296875|0.6831817626953125|-0.798919677734375|141388.960232875|-1.047691371843944|-0.4650056075993876|-0.8109452098943529|1.160019874572754|-0.1073029488325119|0.371042400598526|0.1246627867221832|0.1544102430343628|-0.1703202128410339|XArbitraryZVertical|-0.4382780005611501|0.008663624915511493|-0.368586913842283|0.8197445149044031|-0.3088831603527069|0.7249385714530945|-0.6156746745109558|0|0|0|-1|-1|3
2021-04-22 22:13:35.368 +0100|141389.000151875|-0.23541259765625|0.7433929443359375|-0.7948760986328125|141388.980191875|-1.024898403777445|-0.450420250147149|-0.7892973478935793|1.241857886314392|-0.07374648004770279|0.09202015399932861|0.1436671316623688|0.0629686713218689|-0.167722225189209|XArbitraryZVertical|-0.427709296611181|0.004091473892431451|-0.3663631705591316|0.82633299487815|-0.3066320419311523|0.7098585367202759|-0.6340960264205933|0|0|0|-1|-1|3
2021-04-22 22:13:35.387 +0100|141389.020110875|-0.285369873046875|0.6945648193359375|-0.7480621337890625|141389.000151875|-1.012419603631997|-0.4420711724614867|-0.770252054349448|0.8873041868209839|0.02988574653863907|-0.1092280149459839|0.07222232222557068|-0.02842360734939575|-0.1416975855827332|XArbitraryZVertical|-0.4190837420265268|2.098254128892783e-05|-0.3663837639571489|0.8307418349457546|-0.3070560991764069|0.6963161826133728|-0.6487376093864441|0|0|0|-1|-1|3
2021-04-22 22:13:35.407 +0100|141389.040069875|-0.315460205078125|0.7828826904296875|-0.7619476318359375|141389.020110875|-1.008151727902027|-0.4383222627995094|-0.7532146865106177|0.7951096296310425|0.1113982349634171|-0.3002811372280121|0.04854881763458252|0.0334199070930481|-0.09680771827697754|XArbitraryZVertical|-0.4119722413263143|-0.003645741530182262|-0.3683934585295478|0.8333977996487497|-0.3096124529838562|0.6839873790740967|-0.6605311632156372|0|0|0|-1|-1|3
2021-04-22 22:13:35.428 +0100|141389.060028875|-0.3964996337890625|0.66741943359375|-0.813568115234375|141389.040069875|-1.005296477556507|-0.433573816211742|-0.7369270952652633|0.7394363284111023|0.1776164025068283|-0.1758362501859665|0.003524273633956909|0.09971314668655396|-0.1040308475494385|XArbitraryZVertical|-0.4049093658331953|-0.006381300842788411|-0.3710046312575468|0.8356814259496823|-0.3111119568347931|0.6720154881477356|-0.672015368938446|0|0|0|-1|-1|3
2021-04-22 22:13:35.447 +0100|141389.079987875|-0.40826416015625|0.5544891357421875|-0.8366851806640625|141389.060028875|-1.002588379025247|-0.4256024858199143|-0.7238663893943175|0.5506775975227356|0.4377700090408325|-0.1386127173900604|-0.09181177616119385|0.04418027400970459|-0.1039204597473145|XArbitraryZVertical|-0.3984311652146462|-0.006893846136971375|-0.3737088256206998|0.8375839422619685|-0.3093428313732147|0.6622865200042725|-0.6824101805686951|0|0|0|-1|-1|3
2021-04-22 22:13:35.468 +0100|141389.099947875|-0.3534088134765625|0.658905029296875|-0.850738525390625|141389.079987875|-1.000827030390417|-0.4143000850098002|-0.718067013780451|-0.02110328339040279|0.5655286908149719|0.04793329164385796|-0.1036184430122375|-0.08114784955978394|-0.1459136605262756|XArbitraryZVertical|-0.3940820489988285|-0.003967989871908957|-0.376186512808288|0.8385507803679724|-0.3031514286994934|0.6579301953315735|-0.6893671751022339|0|0|0|-1|-1|3
2021-04-22 22:13:35.487 +0100|141389.119906875|-0.3546295166015625|0.7141571044921875|-0.78814697265625|141389.099947875|-0.9981386311646078|-0.4005349087827545|-0.7228066372716612|-0.3088778555393219|0.5857867002487183|0.3551792502403259|-0.08008402585983276|-0.0347830057144165|-0.1627976298332214|XArbitraryZVertical|-0.3933144053584322|0.002463297265185869|-0.3769831912488095|0.8385592617661159|-0.2924146056175232|0.6614921092987061|-0.6905954480171204|0|0|0|-1|-1|3
2021-04-22 22:13:35.507 +0100|141389.139865875|-0.3285675048828125|0.7093963623046875|-0.8495635986328125|141389.119906875|-0.9905578987656075|-0.3840669950144195|-0.7341671203685595|-0.4807140231132507|0.5389232039451599|0.5992790460586548|-0.07589703798294067|0.02888357639312744|-0.1056551933288574|XArbitraryZVertical|-0.394630188515824|0.01070477027586198|-0.3751926099868762|0.8386793322716226|-0.2781689167022705|0.6699690818786621|-0.6883048415184021|0|0|0|-1|-1|3
2021-04-22 22:13:35.527 +0100|141389.159824875|-0.3283233642578125|0.6855010986328125|-0.8323974609375|141389.139865875|-0.9735604600507948|-0.3622436455280449|-0.747570591084701|-0.2674664258956909|0.4855817854404449|1.161596655845642|-0.08008986711502075|0.05143368244171143|-0.1444783806800842|XArbitraryZVertical|-0.3958941633587293|0.01979656349655522|-0.3702254035873496|0.8401245319233511|-0.2598769962787628|0.6798591613769531|-0.6857517957687378|0|0|0|-1|-1|3
2021-04-22 22:13:35.547 +0100|141389.179784875|-0.2918243408203125|0.762725830078125|-0.7132568359375|141389.159824875|-0.9446853949486819|-0.3346348294707124|-0.7611548112964622|-0.2994415462017059|0.3099424242973328|1.392782092094421|-0.09904646873474121|0.007156848907470703|-0.1726128458976746|XArbitraryZVertical|-0.396513487273294|0.02895109505493486|-0.3614333614158823|0.8433890304253744|-0.2377923280000687|0.6897580623626709|-0.6838777661323547|0|0|0|-1|-1|3
2021-04-22 22:13:35.567 +0100|141389.199743875|-0.1891021728515625|0.744842529296875|-0.6635589599609375|141389.179784875|-0.9072422263481947|-0.3032805347770267|-0.7784724507987265|-0.5227792263031006|0.2908997535705566|1.663468480110168|-0.1171677112579346|0.03170955181121826|-0.06151878833770752|XArbitraryZVertical|-0.398435365487167|0.03876357866915297|-0.3492641992230389|0.8472079057867545|-0.212636798620224|0.7021926641464233|-0.6794933080673218|0|0|0|-1|-1|3
2021-04-22 22:13:35.587 +0100|141389.219702875|-0.1559600830078125|0.872650146484375|-0.7259063720703125|141389.199743875|-0.8644000337115121|-0.2677309668516427|-0.7978890883184603|-0.4341108500957489|0.1754193007946014|1.600276470184326|0.01480208337306976|0.07719194889068604|0.01172387599945068|XArbitraryZVertical|-0.4010859898688721|0.04957626347097554|-0.3354460762127033|0.8509689923651031|-0.1847097128629684|0.7158837914466858|-0.6733444333076477|0|0|0|-1|-1|3
2021-04-22 22:13:35.607 +0100|141389.239661875|-0.1789398193359375|0.8571319580078125|-0.533599853515625|141389.219702875|-0.8213696678591957|-0.2344039059841871|-0.8063184485676622|0.6343803405761719|-0.02901442907750607|1.680748105049133|-0.04623837769031525|0.03857129812240601|-0.06214982271194458|XArbitraryZVertical|-0.400177166987714|0.05694170302039887|-0.3226481217295346|0.8558703959026041|-0.1607633829116821|0.7217438220977783|-0.6732317805290222|0|0|0|-1|-1|3
2021-04-22 22:13:35.627 +0100|141389.259621875|-0.2111663818359375|0.658935546875|-0.620849609375|141389.239661875|-0.7690543349353841|-0.2001825331906477|-0.7884241496678901|1.747312188148499|-0.1881726533174515|1.403410792350769|-0.00355800986289978|0.2624520063400269|0.1052235960960388|XArbitraryZVertical|-0.3888603561489918|0.05783282824896681|-0.3090390499185295|0.8659895779404099|-0.1401808112859726|0.7092432379722595|-0.6908859610557556|0|0|0|-1|-1|3
2021-04-22 22:13:35.647 +0100|141389.279580875|-0.100860595703125|0.5492401123046875|-0.7627716064453125|141389.259621875|-0.725127166125503|-0.1706203732890758|-0.756513592991825|1.935418248176575|0.08828668296337128|1.132250189781189|-0.1067153960466385|-0.01295840740203857|0.1490321159362793|XArbitraryZVertical|-0.3721214450788148|0.05646867956199655|-0.2989804900422711|0.8768966846853953|-0.1234797090291977|0.6863901615142822|-0.7166738510131836|0|0|0|-1|-1|3
2021-04-22 22:13:35.667 +0100|141389.299539875|-0.2315216064453125|0.3895111083984375|-0.78900146484375|141389.279580875|-0.6871682996869303|-0.141485629853856|-0.7251079019308632|1.332522511482239|0.2114655077457428|1.153311252593994|-0.005530878901481628|-0.04030627012252808|0.001859784126281738|XArbitraryZVertical|-0.3553621539363472|0.05694815104035305|-0.2905741953342535|0.8865897367336242|-0.1055388525128365|0.6632161736488342|-0.740949273109436|0|0|0|-1|-1|3
2021-04-22 22:13:35.687 +0100|141389.319498875|-0.0899505615234375|0.9041748046875|-0.9129180908203125|141389.299539875|-0.6581362395740701|-0.1164228231932178|-0.7140926489533123|0.4758237600326538|0.4521572589874268|0.847215473651886|-0.1235240250825882|-0.4007964730262756|-0.03357648849487305|XArbitraryZVertical|-0.3478101819420649|0.06117159375510324|-0.2830248394486366|0.8917304372773202|-0.08778069913387299|0.6549320220947266|-0.7505722045898438|0|0|0|-1|-1|3
2021-04-22 22:13:35.707 +0100|141389.339457875|-0.0496673583984375|0.2728424072265625|-0.7952880859375|141389.319498875|-0.6397153875792461|-0.09535079844689666|-0.6985163969772193|1.218610048294067|0.3620917499065399|0.4679943025112152|-0.06178157031536102|0.4266508221626282|-0.1195474863052368|XArbitraryZVertical|-0.3385556827678103|0.06496759045049795|-0.2796313130200632|0.8960834836432144|-0.07290877401828766|0.6430822610855103|-0.7623185515403748|0|0|0|-1|-1|3
2021-04-22 22:13:35.727 +0100|141389.359417875|-0.060089111328125|0.25823974609375|-0.658905029296875|141389.339457875|-0.6287381903555944|-0.08271203642910759|-0.6769069829418062|0.9249470829963684|0.2256246209144592|0.1939684450626373|0.01299382746219635|-0.3884999752044678|-0.07185971736907959|XArbitraryZVertical|-0.3275455842255942|0.06549348540444919|-0.2783703478766922|0.9005190639062087|-0.06440169364213943|0.626384973526001|-0.7768489718437195|0|0|0|-1|-1|3
2021-04-22 22:13:35.747 +0100|141389.379376875|-0.0720977783203125|0.3001708984375|-0.6280517578125|141389.359417875|-0.6249371938850398|-0.07621658575736422|-0.6614678620561046|0.5860658884048462|0.2089172750711441|0.03388041257858276|0.0009853541851043701|-0.2839378118515015|0.1193358302116394|XArbitraryZVertical|-0.3198655854083714|0.06546514905656395|-0.2787641921645027|0.9031561040565601|-0.06008364632725716|0.6142758131027222|-0.7868006229400635|0|0|0|-1|-1|3
2021-04-22 22:13:35.767 +0100|141389.399335875|-0.1217803955078125|0.53094482421875|-0.6151123046875|141389.379376875|-0.6240532818821357|-0.07102893209714196|-0.6563369536853948|-0.02472886070609093|0.2416050285100937|0.003517092438414693|-0.005346063524484634|-0.3715253472328186|0.1537762880325317|XArbitraryZVertical|-0.316871611967639|0.06689371361541781|-0.2795304854143346|0.9038697075312072|-0.05622414872050285|0.6102189421653748|-0.7902352213859558|0|0|0|-1|-1|3
2021-04-22 22:13:35.787 +0100|141389.419294875|-0.1598052978515625|0.629913330078125|-0.6627197265625|141389.399335875|-0.6243392075023214|-0.06539974743140252|-0.6584294542950447|-0.1104377880692482|0.3211682736873627|-0.03830776363611221|-0.07211947441101074|-0.1212896108627319|0.1766385436058044|XArbitraryZVertical|-0.3170121556256568|0.06979713504317249|-0.2804159541881385|0.9033264289826268|-0.05169133841991425|0.6118753552436829|-0.7892633080482483|0|0|0|-1|-1|3
2021-04-22 22:13:35.807 +0100|141389.439255|-0.133941650390625|0.601959228515625|-0.7396392822265625|141389.419294875|-0.627282697018449|-0.06005207630743042|-0.6584409244519269|0.127645343542099|0.4120829701423645|-0.1701106280088425|-0.1095139533281326|-0.003363490104675293|0.1510788202285767|XArbitraryZVertical|-0.3161597446342459|0.07267931851777541|-0.2825907320550938|0.9027199948471522|-0.04746947810053825|0.6118844747543335|-0.7895214557647705|0|0|0|-1|-1|3
2021-04-22 22:13:35.827 +0100|141389.459214|-0.182952880859375|0.55426025390625|-0.7313079833984375|141389.439255|-0.6304025161482351|-0.05346777546943376|-0.6527008004888674|0.3980908095836639|0.423372745513916|-0.1370820999145508|-0.08799135684967041|0.01275283098220825|0.05516761541366577|XArbitraryZVertical|-0.3125345200748842|0.07527690551194845|-0.285392892607175|0.9028878980580997|-0.04245704784989357|0.6073342561721802|-0.7933111190795898|0|0|0|-1|-1|3
2021-04-22 22:13:35.847 +0100|141389.479173|-0.1522979736328125|0.5275726318359375|-0.74224853515625|141389.459214|-0.6333435141713362|-0.04682852517028469|-0.6449541214912154|0.2951127588748932|0.431634932756424|-0.1622660160064697|-0.1334301233291626|-0.02715623378753662|0.0526004433631897|XArbitraryZVertical|-0.3079911694014642|0.0775614143492263|-0.2882218690329921|0.9033570440345647|-0.03740828111767769|0.601161777973175|-0.7982513308525085|0|0|0|-1|-1|3
2021-04-22 22:13:35.867 +0100|141389.499132|-0.1437530517578125|0.5334014892578125|-0.7247314453125|141389.479173|-0.6374592108973406|-0.0403562133075684|-0.6424875451834205|-0.07178214192390442|0.4525679051876068|-0.1615046262741089|-0.1328919380903244|-0.07179892063140869|0.05813497304916382|XArbitraryZVertical|-0.3057822217862831|0.08074210129596163|-0.291219546198039|0.9028672132001098|-0.03230072930455208|0.5991888642311096|-0.7999559044837952|0|0|0|-1|-1|3
2021-04-22 22:13:35.887 +0100|141389.519091|-0.1572265625|0.55352783203125|-0.7344207763671875|141389.499132|-0.6424570932239296|-0.03406542241653254|-0.6468680075485683|-0.3691470623016357|0.4609339237213135|-0.225446417927742|-0.1207873821258545|-0.07017320394515991|0.07740473747253418|XArbitraryZVertical|-0.3066220128000753|0.08501014953598675|-0.2941819311391776|0.9012288585471158|-0.02717811241745949|0.6026901006698608|-0.797512412071228|0|0|0|-1|-1|3
2021-04-22 22:13:35.907 +0100|141389.539051|-0.04010009765625|0.6326904296875|-0.7887115478515625|141389.519091|-0.6498632562595322|-0.02976621894072954|-0.656305498582079|-0.5846236944198608|0.4341200888156891|-0.325468510389328|-0.1347931325435638|-0.07131427526473999|0.05798417329788208|XArbitraryZVertical|-0.3098938266855134|0.08952808811843894|-0.2976298468900205|0.8985361059240839|-0.02357886545360088|0.6101940274238586|-0.7919010519981384|0|0|0|-1|-1|3
2021-04-22 22:13:35.927 +0100|141389.55901|-0.106475830078125|0.6007843017578125|-0.756683349609375|141389.539051|-0.6580802213311916|-0.0258900567670897|-0.6692345410688083|-0.6534103751182556|0.3879994750022888|-0.2415628731250763|-0.0605541318655014|0.01128268241882324|0.004218637943267822|XArbitraryZVertical|-0.3147143871529703|0.09454023872382777|-0.3011637859358693|0.8951634441256738|-0.02030322141945362|0.6203858256340027|-0.7840340137481689|0|0|0|-1|-1|3
2021-04-22 22:13:35.946 +0100|141389.578969|-0.04632568359375|0.6104736328125|-0.7991180419921875|141389.55901|-0.6640789760818747|-0.02352765662955493|-0.6814288565953081|-0.5772485136985779|0.3068807423114777|-0.2494632303714752|-0.05356778204441071|-0.04518622159957886|0.01518267393112183|XArbitraryZVertical|-0.3195008030131764|0.09843760468234375|-0.3034962049630415|0.8922552578832207|-0.01827162131667137|0.6299034357070923|-0.7764585614204407|0|0|0|-1|-1|3
2021-04-22 22:13:35.966 +0100|141389.598928|-0.0505828857421875|0.5588531494140625|-0.79571533203125|141389.578969|-0.6729308518571534|-0.02530587534488885|-0.6901653653632317|-0.4331963658332825|0.2557636797428131|-0.1972268521785736|-0.04964154958724976|-0.01494497060775757|-0.01621514558792114|XArbitraryZVertical|-0.3232120334568156|0.1004342284680182|-0.3066244885378227|0.8896226988729382|-0.01951231062412262|0.6366646885871887|-0.7708938717842102|0|0|0|-1|-1|3
2021-04-22 22:13:35.986 +0100|141389.618888|-0.02972412109375|0.576263427734375|-0.798370361328125|141389.598928|-0.6793675914833733|-0.02791093603805901|-0.6970482538170413|-0.4092725515365601|0.1566047519445419|-0.08620160818099976|-0.02392196655273438|-0.0961804986000061|-0.03057014942169189|XArbitraryZVertical|-0.3263358410338025|0.1014100300070402|-0.3086329061022168|0.8876749756725548|-0.02139766700565815|0.6419572830200195|-0.766441822052002|0|0|0|-1|-1|3
2021-04-22 22:13:36.006 +0100|141389.638847|-0.0250244140625|0.589935302734375|-0.8223724365234375|141389.618888|-0.6824145269959118|-0.02906258526739829|-0.7042232998132945|-0.3763776421546936|0.0756039172410965|-0.004693611059337854|-0.004588529467582703|-0.06899625062942505|-0.03888124227523804|XArbitraryZVertical|-0.3295284657138582|0.1025404898957694|-0.3093389248282825|0.8861185318794791|-0.02214590646326542|0.647442102432251|-0.7617928981781006|0|0|0|-1|-1|3
2021-04-22 22:13:36.026 +0100|141389.658806|-0.0443572998046875|0.6046600341796875|-0.8017578125|141389.638847|-0.6834942999293462|-0.02865188198880673|-0.7108435410279444|-0.3485014736652374|0.03455501049757004|-0.02177716791629791|-0.00923609733581543|-0.076926589012146|-0.05072641372680664|XArbitraryZVertical|-0.3323291956407673|0.1039563222481008|-0.3094587558195085|0.8848648686632717|-0.02170976437628269|0.6524732708930969|-0.7575007677078247|0|0|0|-1|-1|3
2021-04-22 22:13:36.046 +0100|141389.678765|-0.01983642578125|0.56414794921875|-0.7685546875|141389.658806|-0.6858102489465083|-0.03090149708450648|-0.7156966890305415|-0.227701410651207|0.02157146297395229|-0.06154713034629822|-0.01385576836764812|-0.04232770204544067|-0.05672824382781982|XArbitraryZVertical|-0.3346944895563735|0.1041229164465899|-0.3097914597446434|0.8838366937993175|-0.02331568114459515|0.6561433076858521|-0.7542760372161865|0|0|0|-1|-1|3
2021-04-22 22:13:36.066 +0100|141389.698725|-0.0244903564453125|0.5425872802734375|-0.762237548828125|141389.678765|-0.6882341412167859|-0.03227960856357032|-0.7167329680711761|-0.08936704695224762|0.01316530164331198|-0.09997876733541489|0.002603620290756226|-0.08331620693206787|-0.023368239402771|XArbitraryZVertical|-0.3352379337917622|0.1040861296576115|-0.3105631405833721|0.8833641627573307|-0.02433317713439465|0.6569249629974365|-0.7535632252693176|0|0|0|-1|-1|3
2021-04-22 22:13:36.086 +0100|141389.718684|-0.05303955078125|0.507080078125|-0.7595062255859375|141389.698725|-0.6912215538581648|-0.03379956489615158|-0.7151490210352425|0.0418369472026825|0.017641332000494|-0.1085344403982162|-0.00398261658847332|-0.1043074727058411|-0.00423961877822876|XArbitraryZVertical|-0.3346228052056848|0.1036600944187213|-0.3117333309657026|0.883235260650312|-0.02551366202533245|0.6557299494743347|-0.7545643448829651|0|0|0|-1|-1|3
2021-04-22 22:13:36.106 +0100|141389.738643|-0.0817108154296875|0.5416412353515625|-0.77618408203125|141389.718684|-0.6935381165943073|-0.03525035619176024|-0.7124947946548407|0.00471141841262579|0.01014511846005917|-0.06709609180688858|-0.01794813573360443|-0.1465669870376587|-0.007286190986633301|XArbitraryZVertical|-0.3335627529449337|0.1029768737275997|-0.312691561736693|0.8833775557486137|-0.02666959911584854|0.6537237167358398|-0.7562633156776428|0|0|0|-1|-1|3
2021-04-22 22:13:36.126 +0100|141389.758602|-0.1049957275390625|0.569915771484375|-0.755828857421875|141389.738643|-0.6953803312765154|-0.03572979362391133|-0.7114427433977916|-0.06320622563362122|0.04255925118923187|-0.06660669296979904|-0.05119138956069946|-0.1100496649742126|-0.01939904689788818|XArbitraryZVertical|-0.3330805794094803|0.1029013710304579|-0.3134959281262704|0.8832830981063329|-0.0270567275583744|0.6529272198677063|-0.7569372653961182|0|0|0|-1|-1|3
2021-04-22 22:13:36.146 +0100|141389.778562|-0.1016082763671875|0.6181640625|-0.7563934326171875|141389.758602|-0.6972449412694867|-0.03519467023216405|-0.712653970219439|-0.191477969288826|0.1242928951978683|-0.04977631196379662|-0.07806777954101562|-0.08374488353729248|-0.001926064491271973|XArbitraryZVertical|-0.3334324991314309|0.1036454460748908|-0.3143268571285487|0.8827679511937343|-0.02662382274866104|0.6538441181182861|-0.7561607956886292|0|0|0|-1|-1|3
2021-04-22 22:13:36.166 +0100|141389.798521|-0.0816650390625|0.535614013671875|-0.7146759033203125|141389.778562|-0.6979714199887675|-0.03274637593930972|-0.7139829292513125|-0.09250810742378235|0.1631444692611694|0.004262866452336311|-0.07527843117713928|-0.04574841260910034|-0.008728981018066406|XArbitraryZVertical|-0.3335931606165569|0.1050634373976815|-0.3149664841464446|0.8823115114505414|-0.02474396862089634|0.654849112033844|-0.7553545832633972|0|0|0|-1|-1|3
2021-04-22 22:13:36.186 +0100|141389.81848|-0.0114288330078125|0.5065155029296875|-0.7305908203125|141389.798521|-0.6974606041037356|-0.02898667891109069|-0.7130662995627641|-0.06373874843120575|0.1953100264072418|0.04676798358559608|-0.06560416519641876|-0.0998496413230896|0.0408017635345459|XArbitraryZVertical|-0.3326249700613652|0.1064879100994191|-0.315428271001857|0.8823412639413548|-0.02192128449678421|0.6541560888290405|-0.7560418844223022|0|0|0|-1|-1|3
2021-04-22 22:13:36.206 +0100|141389.838439|0.0326080322265625|0.3852691650390625|-0.709075927734375|141389.81848|-0.6956562175327019|-0.02491076377657575|-0.711959191458194|-0.03465452790260315|0.1660850793123245|0.1773977279663086|-0.01343105547130108|-0.1262946724891663|0.02787542343139648|XArbitraryZVertical|-0.3315921662843607|0.107807256531107|-0.3153814173610852|0.8825864178233184|-0.0188575740903616|0.6533182859420776|-0.7568484544754028|0|0|0|-1|-1|3
2021-04-22 22:13:36.226 +0100|141389.858398|0.077667236328125|0.37255859375|-0.69232177734375|141389.838439|-0.6890909281124457|-0.01766252576870054|-0.7132749617497407|-0.09437195956707001|0.1230515912175179|0.3321773409843445|0.0329778790473938|-0.2459273338317871|0.04590040445327759|XArbitraryZVertical|-0.3313892281598482|0.1101299425940402|-0.3136008107570118|0.883010292486376|-0.01335611566901207|0.654313862323761|-0.7561051249504089|0|0|0|-1|-1|3
2021-04-22 22:13:36.246 +0100|141389.878358|0.0748443603515625|0.443389892578125|-0.6987152099609375|141389.858398|-0.6784248966811621|-0.008794386017067134|-0.7164467997901069|-0.1941409409046173|0.04982493817806244|0.4485329985618591|0.07824060320854187|-0.2908183336257935|0.06028270721435547|XArbitraryZVertical|-0.3319991553108077|0.1127793440399222|-0.3101654261135532|0.8836599173406434|-0.00663214735686779|0.6567091941833496|-0.7541147470474243|0|0|0|-1|-1|3
2021-04-22 22:13:36.266 +0100|141389.898317|0.0602569580078125|0.5188446044921875|-0.70855712890625|141389.878358|-0.6666711637729924|-0.001496008804723115|-0.7208185074271564|-0.2215610295534134|-0.08461974561214447|0.4289392530918121|0.0824064314365387|-0.2340960502624512|0.06130862236022949|XArbitraryZVertical|-0.3334745286612304|0.1147268322734781|-0.3059258848323074|0.8843314009773261|-0.001123899826779962|0.6599997878074646|-0.7512649893760681|0|0|0|-1|-1|3
2021-04-22 22:13:36.286 +0100|141389.918276|0.035919189453125|0.6125335693359375|-0.72601318359375|141389.898317|-0.6561019736031224|0.002555504610891865|-0.7260643750917339|-0.3283269107341766|-0.2167891263961792|0.3547768592834473|0.06379233300685883|-0.1615661978721619|0.03482425212860107|XArbitraryZVertical|-0.3357879513580349|0.1155466887665549|-0.3016283215429704|0.8848254397372326|0.001910987077280879|0.6639317274093628|-0.7477908134460449|0|0|0|-1|-1|3
2021-04-22 22:13:36.306 +0100|141389.938235|0.01483154296875|0.7082061767578125|-0.7991180419921875|141389.918276|-0.6490612495768824|0.001379130797140198|-0.7329316197618488|-0.3421650826931|-0.3789785504341125|0.18199123442173|0.03194822371006012|-0.08103823661804199|0.02603751420974731|XArbitraryZVertical|-0.3394087428391394|0.114864855277584|-0.2979253245423786|0.8847872194038602|0.001024992088787258|0.6690513491630554|-0.7432155609130859|0|0|0|-1|-1|3
2021-04-22 22:13:36.326 +0100|141389.958195|-0.12799072265625|0.904815673828125|-0.955322265625|141389.938235|-0.6463442886634745|-0.006897921645780127|-0.7403134749944735|-0.3985926806926727|-0.6346787214279175|0.009565664455294609|0.03907269239425659|-0.01871144771575928|-0.03028416633605957|XArbitraryZVertical|-0.3440531985629526|0.1118371640029751|-0.2948819482705285|0.8844008002877108|-0.005092400126159191|0.6745193600654602|-0.7382397055625916|0|0|0|-1|-1|3
2021-04-22 22:13:36.346 +0100|141389.978154|-0.2745513916015625|0.9419708251953125|-1.052490234375|141389.958195|-0.6482862055324832|-0.02322283490236491|-0.7476332540439654|-0.3396308124065399|-0.8616510629653931|-0.141183003783226|-0.07286275923252106|0.2076074481010437|-0.1827449798583984|XArbitraryZVertical|-0.3495738189264748|0.1060514888861882|-0.2924621002203109|0.8837518931330222|-0.01702777855098248|0.679905116558075|-0.7331024408340454|0|0|0|-1|-1|3
2021-04-22 22:13:36.366 +0100|141389.998113|-0.304901123046875|0.9194793701171875|-1.089935302734375|141389.978154|-0.6546310284779121|-0.04583218848866512|-0.7540660709930468|-0.3612388074398041|-0.9303174018859863|-0.3136945068836212|-0.2202519774436951|0.2885977029800415|-0.3054231405258179|XArbitraryZVertical|-0.3553752256522069|0.09816075808747549|-0.290853504616205|0.8828800795161492|-0.03339590504765511|0.6846082210540771|-0.7281458377838135|0|0|0|-1|-1|3
2021-04-22 22:13:36.386 +0100|141390.018072|-0.262359619140625|0.85455322265625|-0.9796600341796875|141389.998113|-0.6630716294169581|-0.06935883641218057|-0.7614930408263867|-0.2964815199375153|-0.8742634057998657|-0.2761892974376678|-0.2709448337554932|0.1962890028953552|-0.3724613785743713|XArbitraryZVertical|-0.3616431014126733|0.09044927168893362|-0.2898212066394921|0.8814970477684172|-0.05016214773058891|0.6900028586387634|-0.7220664024353027|0|0|0|-1|-1|3
2021-04-22 22:13:36.406 +0100|141390.038032|-0.2187957763671875|0.8316497802734375|-0.7881317138671875|141390.018072|-0.6697026480050681|-0.08994555063418407|-0.7634400877115618|0.05502267554402351|-0.729888916015625|-0.1877575367689133|-0.2176686227321625|0.1830554604530334|-0.2917649745941162|XArbitraryZVertical|-0.36518254798175|0.08289151330415889|-0.2888500731309345|0.8810996410268337|-0.06489464640617371|0.6914108395576477|-0.7195414304733276|0|0|0|-1|-1|3
2021-04-22 22:13:36.426 +0100|141390.057991|-0.1080169677734375|0.83123779296875|-0.6793060302734375|141390.038032|-0.672630903731395|-0.1046255153861952|-0.7596082575642994|0.2578698396682739|-0.483678936958313|-0.07482778280973434|-0.1443980634212494|0.1456219553947449|-0.1203962564468384|XArbitraryZVertical|-0.3655161188843543|0.0763384602853286|-0.2877749356966205|0.8819048174947973|-0.07572624087333679|0.6886374354362488|-0.7211408019065857|0|0|0|-1|-1|3
2021-04-22 22:13:36.445 +0100|141390.07795|-0.0897064208984375|0.7591400146484375|-0.57733154296875|141390.057991|-0.6744280030010443|-0.1126326825858777|-0.7543583487040489|0.2069271951913834|-0.2058647722005844|-0.09245560318231583|-0.06189656257629395|0.1487667560577393|0.0308263897895813|XArbitraryZVertical|-0.3643196565625847|0.07227924270584124|-0.2875518156722708|0.8828142603613359|-0.08190326392650604|0.6848212480545044|-0.7240937948226929|0|0|0|-1|-1|3
2021-04-22 22:13:36.465 +0100|141390.097909|-0.013427734375|0.659088134765625|-0.5620574951171875|141390.07795|-0.678531487938501|-0.1162583717076237|-0.7513926235131169|0.01982156187295914|0.1057980880141258|-0.2651869058609009|-0.01840239763259888|0.1043916344642639|0.1351388692855835|XArbitraryZVertical|-0.3634068745358395|0.07093910870413021|-0.2889585138003795|0.8828398579534117|-0.08476327359676361|0.6826570630073547|-0.7258061766624451|0|0|0|-1|-1|3
2021-04-22 22:13:36.485 +0100|141390.117869|-0.0274658203125|0.635650634765625|-0.52154541015625|141390.097909|-0.688064509345881|-0.1180265636627983|-0.7527581281130222|-0.209817185997963|0.3347963988780975|-0.4250949621200562|0.06280332803726196|-0.009810507297515869|0.1607338786125183|XArbitraryZVertical|-0.3639154423645984|0.07211888214475212|-0.2927224885176808|0.8812934880303102|-0.08593666553497314|0.683654248714447|-0.7247288227081299|0|0|0|-1|-1|3
2021-04-22 22:13:36.505 +0100|141390.137828|0.0135345458984375|0.6053924560546875|-0.471893310546875|141390.117869|-0.7029443917121874|-0.119710634555462|-0.7565159118202884|-0.2632127404212952|0.5191693305969238|-0.6100307703018188|0.06002363562583923|-0.05577623844146729|0.177914559841156|XArbitraryZVertical|-0.3652434514101937|0.07472330196025032|-0.298629036125414|0.878541118976748|-0.08684961497783661|0.6863918900489807|-0.7220273017883301|0|0|0|-1|-1|3
2021-04-22 22:13:36.525 +0100|141390.157787|0.02288818359375|0.6493377685546875|-0.4377288818359375|141390.137828|-0.7223376922234908|-0.1214122779067108|-0.7570759099838125|0.06941428780555725|0.6196961998939514|-0.7649775147438049|0.09344739466905594|-0.08256590366363525|0.23503178358078|XArbitraryZVertical|-0.3650036543656364|0.07761400978452329|-0.3067722817266886|0.8755794027693385|-0.08803155273199081|0.6867989897727966|-0.7214968204498291|0|0|0|-1|-1|3
2021-04-22 22:13:36.545 +0100|141390.177746|0.0477294921875|0.6550750732421875|-0.5023345947265625|141390.157787|-0.7436510955445753|-0.1232816148484656|-0.7493787423776725|0.4809792041778564|0.6513253450393677|-0.8537186980247498|0.1046291589736938|-0.05409324169158936|0.2946257591247559|XArbitraryZVertical|-0.3611548025030381|0.07930490738245986|-0.3164636188721021|0.8735725246906704|-0.09002753347158432|0.6811840534210205|-0.7265558838844299|0|0|0|-1|-1|3
2021-04-22 22:13:36.565 +0100|141390.197706|0.0283966064453125|0.64312744140625|-0.564361572265625|141390.177746|-0.7649034031209483|-0.1246081700290808|-0.736341311527264|0.5514046549797058|0.661437451839447|-0.8757089376449585|0.1456598341464996|-0.01754379272460938|0.2518793344497681|XArbitraryZVertical|-0.3549382890563685|0.08016176507979846|-0.3267213942470044|0.8722649401816474|-0.0920872688293457|0.6715815663337708|-0.7351858019828796|0|0|0|-1|-1|3
2021-04-22 22:13:36.585 +0100|141390.217665|0.0085601806640625|0.6644439697265625|-0.61669921875|141390.197706|-0.7870579153628535|-0.1255608923221022|-0.7254500053740689|0.2911585569381714|0.7227699756622314|-0.8795458674430847|0.1188130453228951|-0.00948023796081543|0.1969010829925537|XArbitraryZVertical|-0.3495475495483141|0.08161556982030216|-0.3372342310410721|0.8703037357833553|-0.09369812905788422|0.6634721755981445|-0.7423108220100403|0|0|0|-1|-1|3
2021-04-22 22:13:36.605 +0100|141390.237624|-0.1016387939453125|0.8090972900390625|-0.6781158447265625|141390.217665|-0.8083514892788549|-0.1255081165989665|-0.7211450717993557|-0.04295605048537254|0.6793572902679443|-0.771552562713623|0.1215872019529343|-0.02344977855682373|0.1354780793190002|XArbitraryZVertical|-0.3468210463909064|0.08452118880086122|-0.3469050542977922|0.8673110558214122|-0.09401562809944153|0.6602451205253601|-0.7451426386833191|0|0|0|-1|-1|3
2021-04-22 22:13:36.625 +0100|141390.257583|-0.2065887451171875|0.941558837890625|-0.7514190673828125|141390.237624|-0.8280503966720505|-0.1247682737635864|-0.7212496288860093|-0.1194215267896652|0.6970968842506409|-0.7239594459533691|0.01615363359451294|0.08717423677444458|0.0785483717918396|XArbitraryZVertical|-0.3458844872145|0.08827328656483559|-0.3555483936423113|0.8638039672974885|-0.0934557169675827|0.6603236198425293|-0.7451434731483459|0|0|0|-1|-1|3
2021-04-22 22:13:36.645 +0100|141390.277543|-0.262359619140625|0.94854736328125|-0.7888336181640625|141390.257583|-0.8484530302711765|-0.1239269907594228|-0.7218398338554637|-0.1510871350765228|0.7415385246276855|-0.8156319260597229|-0.08817444741725922|0.2515259981155396|0.0171130895614624|XArbitraryZVertical|-0.3450612411481787|0.09227826228534038|-0.36442839901999|0.8600054762264389|-0.09278061240911484|0.6607667803764343|-0.7448348999023438|0|0|0|-1|-1|3
2021-04-22 22:13:36.665 +0100|141390.297502|-0.2315216064453125|0.7377777099609375|-0.6370086669921875|141390.277543|-0.8734499785638046|-0.125337623376194|-0.7236064944074028|-0.3020617961883545|0.777722954750061|-1.000490069389343|-0.1646472364664078|0.3226496577262878|-0.05905270576477051|XArbitraryZVertical|-0.3448844376453966|0.09634681585074149|-0.3747270148518411|0.855191170195874|-0.09368514269590378|0.6620917320251465|-0.7435440421104431|0|0|0|-1|-1|3
2021-04-22 22:13:36.685 +0100|141390.317461|-0.173309326171875|0.4462127685546875|-0.605255126953125|141390.297502|-0.9025264112989561|-0.1286230163925613|-0.7302370655832239|-0.6232630014419556|0.7934699654579163|-1.048992276191711|-0.1666305959224701|0.1275858879089355|0.05606210231781006|XArbitraryZVertical|-0.3468324977493676|0.1013713199692396|-0.3858630767675498|0.8488468878342128|-0.09556224942207336|0.6670462489128113|-0.738862156867981|0|0|0|-1|-1|3
2021-04-22 22:13:36.705 +0100|141390.33742|-0.269622802734375|0.2865142822265625|-0.68707275390625|141390.317461|-0.9326374032112705|-0.1353052776565957|-0.742433905088478|-0.8409978747367859|0.5336698293685913|-1.047083139419556|-0.06378616392612457|-0.1998257637023926|0.1257514953613281|XArbitraryZVertical|-0.3516008420321705|0.1064492506560633|-0.3961147746728435|0.8415096928333118|-0.09939242154359818|0.6760832667350769|-0.7300907969474792|0|0|0|-1|-1|3
2021-04-22 22:13:36.725 +0100|141390.357379|-0.4631500244140625|0.220977783203125|-0.8080902099609375|141390.33742|-0.9653961403014417|-0.150002965417927|-0.7543472004705852|-0.6105582714080811|0.2489778399467468|-1.234483003616333|-0.1284663081169128|-0.3580765128135681|0.05201798677444458|XArbitraryZVertical|-0.3576340331515819|0.1087659644097206|-0.4058868963042166|0.8339806794410873|-0.1089005097746849|0.6848130822181702|-0.7205357551574707|0|0|0|-1|-1|3
2021-04-22 22:13:36.745 +0100|141390.377339|-0.5045013427734375|0.03460693359375|-0.8277435302734375|141390.357379|-1.008368053127293|-0.1754414839991038|-0.7545956193003647|0.1356180310249329|0.1998588591814041|-1.919218897819519|-0.2910052537918091|-0.4626429677009583|-0.05828464031219482|XArbitraryZVertical|-0.3606739284024628|0.1059800920006974|-0.4191276178872333|0.8264469645920265|-0.1271629631519318|0.684994101524353|-0.7173650860786438|0|0|0|-1|-1|3
2021-04-22 22:13:36.765 +0100|141390.397298|-0.4509735107421875|-0.3867034912109375|-0.724578857421875|141390.377339|-1.070161562405287|-0.211547862861443|-0.7359396737113373|0.7199339270591736|0.4363896548748016|-2.927382707595825|-0.3627555072307587|-0.5764046907424927|-0.1197137832641602|XArbitraryZVertical|-0.357944192560544|0.09766025181485949|-0.4404478615993208|0.8175233071892977|-0.1556324511766434|0.6712839603424072|-0.7246768474578857|0|0|0|-1|-1|3
2021-04-22 22:13:36.785 +0100|141390.417257|-0.391387939453125|-0.51776123046875|-0.6170501708984375|141390.397298|-1.155616460337038|-0.2551942576283854|-0.7077889675585022|0.3600296676158905|0.9113098382949829|-3.989663362503052|-0.2504626512527466|-0.9248136281967163|-0.021412193775177|XArbitraryZVertical|-0.3531308213412375|0.08775713318595453|-0.471236610403412|0.8034510642006437|-0.1917992234230042|0.6501554250717163|-0.7351946234703064|0|0|0|-1|-1|3
2021-04-22 22:13:36.805 +0100|141390.437215625|-0.6258392333984375|0.361053466796875|-0.5536956787109375|141390.417257|-1.269018585941269|-0.302316600170255|-0.6878201752037914|-0.8892771005630493|1.678449630737305|-4.94077205657959|-0.1778461635112762|-1.17413067817688|0.1011485457420349|XArbitraryZVertical|-0.3524846305384836|0.08341705809517407|-0.5108175045733753|0.7796548495181633|-0.2300376147031784|0.6348544955253601|-0.737592339515686|0|0|0|-1|-1|3
2021-04-22 22:13:36.825 +0100|141390.457175625|-0.7613983154296875|1.102508544921875|-0.5435943603515625|141390.437215625|-1.411163657654607|-0.3477634695147264|-0.6752572857560006|-1.146705508232117|2.824237823486328|-5.937911987304688|-0.262268602848053|-0.5530769228935242|0.1522473096847534|XArbitraryZVertical|-0.3542138061214975|0.08730564113442497|-0.5590138468990123|0.7445898876493415|-0.2660070359706879|0.6250981688499451|-0.7338206171989441|0|0|0|-1|-1|3
2021-04-22 22:13:36.845 +0100|141390.477134625|-0.6450958251953125|1.376388549804688|-0.676544189453125|141390.457175625|-1.565360917266542|-0.3745834499728485|-0.642852998510451|-0.03552161902189255|3.901216745376587|-6.526188373565674|-0.4776129424571991|0.3755396008491516|0.2032792568206787|XArbitraryZVertical|-0.344657836250318|0.09362705454998034|-0.6156588062353967|0.7024310687268656|-0.2928501665592194|0.5994814038276672|-0.7448899149894714|0|0|0|-1|-1|3
2021-04-22 22:13:36.865 +0100|141390.497093625|-0.624908447265625|2.234603881835938|-0.4159393310546875|141390.477134625|-1.707762862729556|-0.3750755956900474|-0.5913574810043013|0.2277439683675766|4.194047927856445|-5.98536491394043|-0.3613197803497314|0.7356171011924744|0.1117494106292725|XArbitraryZVertical|-0.3225503225963951|0.09862141168714737|-0.6727833749711377|0.6584814430158061|-0.3041322529315948|0.5574885010719299|-0.772470235824585|0|0|0|-1|-1|3
2021-04-22 22:13:36.885 +0100|141390.517052625|-0.563232421875|2.99822998046875|-0.111480712890625|141390.497093625|-1.829043523940493|-0.3571419109282454|-0.5573708978341322|-0.6274440884590149|4.213560581207275|-4.71405553817749|-0.3222725689411163|1.442767977714539|0.2907806038856506|XArbitraryZVertical|-0.3004800449956677|0.1102828431105559|-0.7197766181313705|0.616012322407556|-0.2966858446598053|0.5289568305015564|-0.7950989007949829|0|0|0|-1|-1|3
2021-04-22 22:13:36.904 +0100|141390.537012625|-0.34033203125|2.928497314453125|0.096466064453125|141390.517052625|-1.921111130482995|-0.320227550095122|-0.5376641893140114|0.1132061928510666|4.24071741104126|-3.360527992248535|-0.3288139402866364|2.390364646911621|0.6557587385177612|XArbitraryZVertical|-0.276224373449242|0.1267999383778191|-0.7557022257425271|0.5801174430988916|-0.2703690230846405|0.5121311545372009|-0.8152437210083008|0|0|0|-1|-1|3
2021-04-22 22:13:36.924 +0100|141390.556971625|-0.05206298828125|2.68792724609375|0.1226806640625|141390.537012625|-1.976116122363713|-0.2654408672146344|-0.5108138817549597|0.8637128472328186|3.93288516998291|-1.94154679775238|-0.2058767825365067|2.526492834091187|0.9082311987876892|XArbitraryZVertical|-0.2447145400154183|0.1386270563327933|-0.782370469381139|0.5556922887983868|-0.2288468927145004|0.4888873994350433|-0.8417946696281433|0|0|0|-1|-1|3
2021-04-22 22:13:36.944 +0100|141390.576930625|-0.4841461181640625|3.284149169921875|0.302337646484375|141390.556971625|-1.999870246933814|-0.2063271955950745|-0.4957608561806333|-0.04642413929104805|3.079917907714844|-0.4956042170524597|0.118784561753273|2.178045749664307|0.998340368270874|XArbitraryZVertical|-0.2158746788955301|0.151402986413544|-0.7977274460539802|0.5423155906572352|-0.180201917886734|0.4757010340690613|-0.8609505295753479|0|0|0|-1|-1|3
2021-04-22 22:13:36.964 +0100|141390.596889625|-0.60394287109375|3.397064208984375|0.73553466796875|141390.576930625|-2.001834711366965|-0.1524447397232516|-0.5051736119960477|-0.8279592990875244|2.509942531585693|0.3913470506668091|-0.2220180332660675|2.651186943054199|1.069470405578613|XArbitraryZVertical|-0.1965223582749749|0.1700235979398722|-0.8026155521539428|0.5369165315140471|-0.1328868418931961|0.4839593768119812|-0.8649418950080872|0|0|0|-1|-1|3
2021-04-22 22:13:36.984 +0100|141390.616849625|-0.4335479736328125|3.068099975585938|0.823974609375|141390.596889625|-1.987193870286176|-0.09672691030031635|-0.5266523939320482|-0.9729349613189697|2.317880868911743|1.213052749633789|-0.5660472512245178|2.939938306808472|1.522257447242737|XArbitraryZVertical|-0.1809866894217772|0.1923980679330953|-0.8012953774203183|0.5367986217611951|-0.0834895595908165|0.5026421546936035|-0.8604536056518555|0|0|0|-1|-1|3
2021-04-22 22:13:37.005 +0100|141390.636808625|-0.2437896728515625|2.779067993164062|0.61761474609375|141390.616849625|-1.946493880725221|-0.03303970686152723|-0.5400133752947179|-0.1999197602272034|1.917301654815674|2.461422681808472|-0.4535249471664429|2.682995319366455|1.661997079849243|XArbitraryZVertical|-0.1632129435387162|0.2115293433558561|-0.794176445856504|0.5458029726356488|-0.02833306230604649|0.5141474604606628|-0.8572337627410889|0|0|0|-1|-1|3
2021-04-22 22:13:37.025 +0100|141390.656767625|-0.10479736328125|3.070541381835938|0.44476318359375|141390.636808625|-1.872159527802942|0.03242052465861865|-0.5460664044724851|-0.5919585824012756|0.6535078883171082|3.866229057312012|-0.3024818897247314|2.235430479049683|1.546827793121338|XArbitraryZVertical|-0.1473007851423426|0.2263626116947706|-0.7779015190951343|0.5673902822475788|0.02770088240504265|0.5193297266960144|-0.854124903678894|0|0|0|-1|-1|3
2021-04-22 22:13:37.044 +0100|141390.676726625|0.2217864990234375|2.743423461914062|0.5644683837890625|141390.656767625|-1.768945391152536|0.08541829227395789|-0.5633392241966002|-1.812200307846069|-0.8198363184928894|4.772851943969727|-0.2942696213722229|2.528395414352417|1.298875570297241|XArbitraryZVertical|-0.1442544847465174|0.2408185905282672|-0.7499391826472366|0.5989893914520465|0.07213138043880463|0.5340123772621155|-0.8423941135406494|0|0|0|-1|-1|3
2021-04-22 22:13:37.064 +0100|141390.696686625|-0.213470458984375|2.841873168945312|0.3430023193359375|141390.676726625|-1.638474069985738|0.1238185375554348|-0.6070643102056271|-3.645500659942627|-2.551808595657349|5.566786289215088|0.09866712987422943|2.275991678237915|1.334431886672974|XArbitraryZVertical|-0.1605495105077598|0.2582724489184726|-0.7085163344047228|0.6368075008619808|0.1014357656240463|0.5704587697982788|-0.8150383830070496|0|0|0|-1|-1|3
2021-04-22 22:13:37.084 +0100|141390.716645625|-0.5404052734375|2.065139770507812|0.2951202392578125|141390.696686625|-1.485366640834857|0.1478509651097757|-0.6639350804057524|-3.3755042552948|-4.072596549987793|5.737052917480469|-0.1783528029918671|2.23981237411499|1.250904440879822|XArbitraryZVertical|-0.1922026057397218|0.2712335983609647|-0.6553304407761281|0.6782569667982893|0.1160197183489799|0.6162207722663879|-0.7789809703826904|0|0|0|-1|-1|3
2021-04-22 22:13:37.104 +0100|141390.736604625|-1.359848022460938|2.107147216796875|0.0758819580078125|141390.736604625|-1.17594424365199|0.152301598171035|-0.7950873921490756|-4.710091114044189|-5.7222580909729|4.442534923553467|-1.222292542457581|1.118884563446045|0.8586664795875549|XArbitraryZVertical|-0.2822979110277303|0.2724874406881406|-0.534443668922806|0.7486177013980312|0.1062331795692444|0.7139248251914978|-0.6921169757843018|0|0|0|-1|-1|3
2021-04-22 22:13:37.124 +0100|141390.756563625|-2.705734252929688|2.131393432617188|-1.044540405273438||||||||||||||||||||||||3
2021-04-22 22:13:37.144 +0100|141390.776522625|-3.193634033203125|0.0869903564453125|-1.603622436523438|141390.756563625|-1.064536062605756|0.1155758854201307|-0.8168391161928396|1.927765011787415|-6.153414726257324|2.777775764465332|-2.536947965621948|2.009676933288574|-0.04641735553741455|XArbitraryZVertical|-0.3147447855782509|0.2468900012975861|-0.4847352390103933|0.7778257396235435|0.07893902063369751|0.7289857864379883|-0.6799620985984802|0|0|0|-1|-1|3
2021-04-22 22:13:37.164 +0100|141390.796482625|-4.73590087890625|0.5790252685546875|-1.132965087890625|141390.776522625|-0.9866006956498792|0.0194788275604615|-0.7473215875123796|4.382471084594727|-9.263416290283203|3.169051885604858|-3.178091287612915|-1.156498312950134|-0.8461253643035889|XArbitraryZVertical|-0.3171968396057872|0.1808306512038614|-0.4439703910294414|0.8182768207236844|0.01428705081343651|0.6796765327453613|-0.7333728671073914|0|0|0|-1|-1|3
2021-04-22 22:13:37.184 +0100|141390.816441625|-5.923004150390625|0.367828369140625|-0.4931488037109375|141390.796482625|-0.8959965824422227|-0.1296358798519323|-0.6208625240533757|8.642061233520508|-11.15944766998291|3.278351068496704|-4.466310024261475|0.2079361081123352|-0.3917662501335144|XArbitraryZVertical|-0.3014621557755842|0.07644983654001532|-0.393758300093166|0.8650031334235243|-0.1051477566361427|0.5817369222640991|-0.806551992893219|0|0|0|-1|-1|3
2021-04-22 22:13:37.204 +0100|141390.836400625|-6.253768920898438|-0.495391845703125|0.6076507568359375|141390.816441625|-0.763087053655589|-0.2763326630345696|-0.4126585756207701|14.57749557495117|-9.389614105224609|3.553906917572021|-5.427929878234863|0.02302643656730652|0.197604775428772|XArbitraryZVertical|-0.23851999569167|-0.0495556502610657|-0.3347954766720134|0.9102552708973664|-0.2499274164438248|0.4010461568832397|-0.881304919719696|0|0|0|-1|-1|3
2021-04-22 22:13:37.224 +0100|141390.856359625|-4.417388916015625|-2.97808837890625|0.988250732421875|141390.836400625|-0.582924531535529|-0.3621009219777165|-0.1077803898351118|18.63899612426758|-3.434633255004883|2.856298446655273|-5.944401741027832|-0.2671477496623993|1.30378270149231|XArbitraryZVertical|-0.1024156428683704|-0.156993342220064|-0.2729561425895098|0.9435884302718494|-0.3521841466426849|0.1075718402862549|-0.9297282695770264|0|0|0|-1|-1|3
2021-04-22 22:13:37.244 +0100|141390.876319625|-2.363983154296875|-3.414718627929688|0.5883941650390625|141390.856359625|-0.4242711438846354|-0.3749700070623098|0.1533703185867212|9.455042839050293|2.128960847854614|2.607670068740845|-4.568429470062256|-1.946762681007385|1.90624475479126|XArbitraryZVertical|0.03445186582631972|-0.1975223030804961|-0.2202096467675078|0.9546234465427237|-0.3619455695152283|-0.1527697443962097|-0.9195960164070129|0|0|0|-1|-1|3
2021-04-22 22:13:37.264 +0100|141390.896278625|-2.191909790039062|-2.141677856445312|-0.168121337890625|141390.876319625|-0.3337045040082158|-0.3154692347845321|0.1856859231880212|-2.43392276763916|4.706940650939941|4.980006694793701|-2.544620037078857|-3.45434045791626|1.798277139663696|XArbitraryZVertical|0.06431159987237628|-0.1694387265252364|-0.1776716860804003|0.9672577012393518|-0.3049291372299194|-0.1846207082271576|-0.9343090653419495|0|0|0|-1|-1|3
2021-04-22 22:13:37.284 +0100|141390.916237625|-2.563919067382812|-0.5493621826171875|-0.260101318359375|141390.896278625|-0.2427163936164202|-0.2377824017347123|0.05572766818878193|-6.425142765045166|4.072307109832764|6.965738773345947|-1.832933664321899|-2.435053586959839|0.9461537599563599|XArbitraryZVertical|0.01310652198146402|-0.1210421934550534|-0.1234394981722364|0.9848552147574243|-0.2351823449134827|-0.05569882690906525|-0.9703540205955505|0|0|0|-1|-1|3
2021-04-22 22:13:37.304 +0100|141390.936196625|-2.113754272460938|-1.203216552734375|0.198394775390625|141390.916237625|-0.121703849812986|-0.164550800217938|-0.07072167381379424|-2.892218112945557|3.206393957138062|7.212359428405762|-2.330512762069702|-0.8711836934089661|0.6771262288093567|XArbitraryZVertical|-0.04016341587610334|-0.07983647923087343|-0.05767070119396805|0.9943276142007919|-0.1633997410535812|0.0706627368927002|-0.9840260744094849|0|0|0|-1|-1|3
2021-04-22 22:13:37.324 +0100|141390.956156625|-1.599609375|-2.025787353515625|0.002716064453125|141390.936196625|0.01276865784264106|-0.08967687913852021|-0.113759976692204|-0.2202747315168381|3.033486366271973|6.727889060974121|-2.18308687210083|-1.149387240409851|1.117412805557251|XArbitraryZVertical|-0.05650532012343597|-0.04511258874332713|0.008915682226146717|0.9973428036945631|-0.0889778658747673|0.1135147660970688|-0.9895440340042114|0|0|0|-1|-1|3
2021-04-22 22:13:37.344 +0100|141390.976115625|-1.107101440429688|-2.079238891601562|-0.4813385009765625|141390.956156625|0.1445907445453879|-0.01331161585271089|-0.1286794295169984|-0.9614284038543701|2.992049694061279|6.451313495635986|-1.706968307495117|-1.952618598937988|1.102194428443909|XArbitraryZVertical|-0.06364619091016145|-0.01126873987679761|0.07250817056038696|0.9952712751446179|-0.01320116873830557|0.1283245980739594|-0.9916443824768066|0|0|0|-1|-1|3
2021-04-22 22:13:37.363 +0100|141390.996074625|-0.9061279296875|-1.712173461914062|-0.959716796875|141390.976115625|0.2724711159497748|0.05982065051483969|-0.16034150644673|-2.318275213241577|2.411556482315063|6.129343509674072|-1.26916241645813|-2.295884847640991|0.6320289373397827|XArbitraryZVertical|-0.08335596018963821|0.01866177299474697|0.132944908299623|0.9874357923743997|0.05901810526847839|0.1596553474664688|-0.9854070544242859|0|0|0|-1|-1|3
2021-04-22 22:13:37.384 +0100|141391.016033625|-0.81781005859375|-1.34991455078125|-1.254135131835938|141390.996074625|0.3938013187360663|0.1213151194910446|-0.1963569159125587|-2.218255281448364|1.576097011566162|5.352435111999512|-1.071405410766602|-2.003217220306396|0.1387367248535156|XArbitraryZVertical|-0.1077521252724859|0.04002212985398269|0.1885034324279401|0.9753226330052863|0.1186922714114189|0.1950975507497787|-0.9735754132270813|0|0|0|-1|-1|3
2021-04-22 22:13:37.404 +0100|141391.035993625|-0.63482666015625|-1.294082641601562|-1.114532470703125|141391.016033625|0.4934901893545574|0.1666383448106497|-0.2213006826187519|-1.659525036811829|0.9627112150192261|3.865904569625854|-0.9893073439598083|-1.653549194335938|-0.2559188008308411|XArbitraryZVertical|-0.1269115056437883|0.05333111581171748|0.233001578949485|0.9626835570119774|0.1618231385946274|0.2194987684488297|-0.9620985388755798|0|0|0|-1|-1|3
2021-04-22 22:13:37.423 +0100|141391.055952625|-0.246917724609375|-1.432540893554688|-1.067947387695312|141391.035993625|0.5617231900500743|0.1985386122152323|-0.2407806066349286|-1.595479249954224|0.7839833498001099|2.386728286743164|-0.8773990869522095|-1.49988853931427|-0.2007722854614258|XArbitraryZVertical|-0.142097513754779|0.06140804833180703|0.2623862570770373|0.9524657946370206|0.1915470063686371|0.2384607940912247|-0.9520747065544128|0|0|0|-1|-1|3
2021-04-22 22:13:37.443 +0100|141391.075911625|-0.0825958251953125|-1.362213134765625|-0.96636962890625|141391.055952625|0.6057360757555581|0.2237911179574766|-0.266796373465841|-1.876498460769653|0.6083540320396423|1.234557151794434|-0.5542097091674805|-1.666213989257812|-0.1467294096946716|XArbitraryZVertical|-0.1591636999521976|0.06621178978619274|0.2795849585628886|0.944518606600098|0.2140760868787766|0.2636425197124481|-0.940565824508667|0|0|0|-1|-1|3
2021-04-22 22:13:37.464 +0100|141391.095870625|-0.161163330078125|-0.95562744140625|-0.866729736328125|141391.075911625|0.6300046036410294|0.2409876669386675|-0.3066537979358948|-2.590606451034546|0.4410829842090607|0.1037557199597359|-0.3231395781040192|-1.685124158859253|-0.03515255451202393|XArbitraryZVertical|-0.1809632156199271|0.06597267254184985|0.2865091386583012|0.9385160955496101|0.2275280654430389|0.3018702268600464|-0.9257998466491699|0|0|0|-1|-1|3
2021-04-22 22:13:37.483 +0100|141391.115830625|-0.1749420166015625|-0.3144073486328125|-0.6389617919921875|141391.095870625|0.6354838165073768|0.2516488148293485|-0.3691028621954663|-3.310877323150635|0.5712713599205017|-1.120184421539307|-0.3609086275100708|-1.470671653747559|0.03177052736282349|XArbitraryZVertical|-0.2114827396429943|0.06030855396136569|0.2828131627896251|0.9336245759105303|0.2322313040494919|0.3607788681983948|-0.9032758474349976|0|0|0|-1|-1|3
2021-04-22 22:13:37.503 +0100|141391.135789625|0.0870513916015625|-0.043212890625|-0.6568145751953125|141391.115830625|0.6138759037994221|0.2579711395294816|-0.4364971908343023|-2.514668464660645|0.9771080613136292|-2.515727043151855|-0.4065681397914886|-0.8542394042015076|0.1762996315956116|XArbitraryZVertical|-0.242627979545644|0.05483167546789636|0.265974441518553|0.9313339199967465|0.2311988770961761|0.422767698764801|-0.8762503266334534|0|0|0|-1|-1|3
2021-04-22 22:13:37.523 +0100|141391.155748625|0.1614227294921875|-0.044677734375|-0.796844482421875|141391.135789625|0.5564374968993206|0.2563350534617817|-0.4875588301486097|-1.047563552856445|1.336574792861938|-3.732837438583374|-0.2195391952991486|-0.5516756772994995|0.2388441562652588|XArbitraryZVertical|-0.2642527965191179|0.05352051028316149|0.2346717041217999|0.9339353619792795|0.2239947021007538|0.468470573425293|-0.8546120524406433|0|0|0|-1|-1|3
2021-04-22 22:13:37.543 +0100|141391.175707625|0.0843963623046875|-0.1329193115234375|-1.018661499023438|141391.155748625|0.4628562238600154|0.2358422649109156|-0.5148852048305791|0.2788908183574677|1.094161748886108|-4.838848114013672|-0.04043440520763397|-0.501085638999939|0.09579896926879883|XArbitraryZVertical|-0.2721947050642333|0.05274432996895843|0.1911128470488099|0.9415965281206816|0.2033675611019135|0.492434948682785|-0.8462561368942261|0|0|0|-1|-1|3
2021-04-22 22:13:37.563 +0100|141391.195667625|-0.2805633544921875|0.3679046630859375|-1.145111083984375|141391.175707625|0.342224363380971|0.1928101998654584|-0.5286759556000162|0.3852423429489136|0.5539949536323547|-5.707905769348145|-0.03884014487266541|-0.6570231914520264|-0.1239445805549622|XArbitraryZVertical|-0.2720802080750181|0.04727345824823038|0.1388191611599593|0.9510346798924486|0.1654572933912277|0.5043904781341553|-0.8474751710891724|0|0|0|-1|-1|3
2021-04-22 22:13:37.583 +0100|141391.215626625|-0.3189544677734375|1.217941284179688|-0.9758453369140625|141391.195667625|0.2015913281002484|0.1267708743286003|-0.549919716563509|-0.7143833637237549|0.1378408670425415|-6.518898963928223|-0.2960852086544037|-0.3369793891906738|-0.3089070916175842|XArbitraryZVertical|-0.2757222177369315|0.03338848836373932|0.07953985761973854|0.9573588577704304|0.1077913418412209|0.5226187705993652|-0.8457249402999878|0|0|0|-1|-1|3
2021-04-22 22:13:37.603 +0100|141391.235585625|-0.46405029296875|1.513946533203125|-0.837799072265625|141391.215626625|0.04553296642859689|0.0462694413690649|-0.5840279088554837|-1.357912540435791|0.1404183357954025|-6.800395488739014|-0.3784765005111694|0.4863624572753906|-0.2137324213981628|XArbitraryZVertical|-0.2882341835758613|0.01559588943082688|0.01513723219187302|0.9573132995040603|0.03858644142746925|0.551388680934906|-0.8333556652069092|0|0|0|-1|-1|3
2021-04-22 22:13:37.623 +0100|141391.255544625|-0.9691162109375|1.626312255859375|-0.741455078125|141391.235585625|-0.1139138408339924|-0.04172727497975134|-0.6092634336370554|-1.044940233230591|0.06301312893629074|-6.300631046295166|-0.3549972176551819|0.9132566452026367|-0.02134174108505249|XArbitraryZVertical|-0.3005231847029866|-0.002798497445803289|-0.04804600611613299|0.9525596060307718|-0.03420934826135635|0.5722635984420776|-0.8193559646606445|0|0|0|-1|-1|3
2021-04-22 22:13:37.643 +0100|141391.275504625|-0.5339508056640625|1.645828247070312|-0.8442840576171875|141391.255544625|-0.2553965026581821|-0.1197763773605301|-0.6116477667670318|-0.3253942131996155|0.525809109210968|-5.421165943145752|-0.7006509304046631|1.093401193618774|0.01199561357498169|XArbitraryZVertical|-0.3053606778783244|-0.01833636708686096|-0.103350980980634|0.9464339639533252|-0.09782697260379791|0.5742172598838806|-0.8128372430801392|0|0|0|-1|-1|3
2021-04-22 22:13:37.663 +0100|141391.295463625|-0.3871307373046875|1.31732177734375|-1.013839721679688|141391.275504625|-0.3746181984967374|-0.1761198841010121|-0.6025179218338897|-0.2348954677581787|0.6620608568191528|-4.623051643371582|-0.4927886426448822|0.9694451689720154|-0.03865623474121094|XArbitraryZVertical|-0.3060424215384277|-0.02747607951466133|-0.1515010203945287|0.9394843321774961|-0.1443581730127335|0.5667188167572021|-0.8111662268638611|0|0|0|-1|-1|3
2021-04-22 22:13:37.683 +0100|141391.315422625|-0.3577423095703125|1.462783813476562|-0.844207763671875|141391.295463625|-0.479791014693642|-0.2258193068224869|-0.5908436057063815|-0.5010696053504944|0.207578182220459|-4.018204212188721|-0.1664102375507355|0.9219884276390076|-0.2184910178184509|XArbitraryZVertical|-0.3066158471960677|-0.03596669213174328|-0.1939969970557825|0.9311597507309382|-0.1859465837478638|0.5570617914199829|-0.8093862533569336|0|0|0|-1|-1|3
2021-04-22 22:13:37.703 +0100|141391.335381625|-0.378448486328125|1.425811767578125|-0.616119384765625|141391.315422625|-0.5691411165861648|-0.268942079288061|-0.5902069108564176|-1.108703136444092|0.4579547941684723|-3.304168701171875|-0.1986286342144012|0.8013777136802673|-0.04849666357040405|XArbitraryZVertical|-0.3126333381319418|-0.04219748968019248|-0.2287608592036857|0.9209497827092656|-0.2207600772380829|0.5565329194068909|-0.8009595274925232|0|0|0|-1|-1|3
2021-04-22 22:13:37.723 +0100|141391.355341625|-0.0391082763671875|1.5919189453125|-0.4830169677734375|141391.335381625|-0.6430917681004623|-0.2990857705781447|-0.5950086345919976|-1.070998430252075|0.8681943416595459|-2.506300449371338|-0.1463567316532135|0.8489083647727966|0.08135789632797241|XArbitraryZVertical|-0.3200235904757274|-0.0435343518340042|-0.2573436025844526|0.9107492329081071|-0.2440098077058792|0.5605158805847168|-0.7913793325424194|0|0|0|-1|-1|3
2021-04-22 22:13:37.743 +0100|141391.375300625|0.1005706787109375|1.06304931640625|-0.586090087890625|141391.355341625|-0.7011596756039268|-0.311975242953608|-0.5931329730827846|-0.07180353999137878|1.083416700363159|-2.242170333862305|0.1959172487258911|1.023894071578979|0.2805622816085815|XArbitraryZVertical|-0.3221567121052255|-0.04038821207623289|-0.281822432518215|0.9028621621664537|-0.2545119524002075|0.5589616298675537|-0.7891677021980286|0|0|0|-1|-1|3
2021-04-22 22:13:37.763 +0100|141391.395259625|0.1936187744140625|0.716827392578125|-0.69757080078125|141391.375300625|-0.7472885487939408|-0.3139622404593845|-0.5745544213862107|0.4264573156833649|1.204664468765259|-1.989823937416077|0.316110759973526|0.685207724571228|0.2437291145324707|XArbitraryZVertical|-0.3152748970489703|-0.03743444750845307|-0.3045072497861337|0.8980399917390351|-0.2592422366142273|0.5434607863426208|-0.7984008193016052|0|0|0|-1|-1|3
2021-04-22 22:13:37.783 +0100|141391.415218625|0.1672210693359375|0.4749298095703125|-0.65643310546875|141391.395259625|-0.7877428675964446|-0.3120128046134197|-0.5579982558985394|0.06676044315099716|1.156907558441162|-1.753743529319763|0.4373670816421509|0.2609164118766785|0.1332404613494873|XArbitraryZVertical|-0.3085401159769339|-0.03352606785293226|-0.3249334955888877|0.8933629748646645|-0.2604119181632996|0.5294891595840454|-0.8073580265045166|0|0|0|-1|-1|3
2021-04-22 22:13:37.803 +0100|141391.4351785417|0.0129547119140625|0.5621337890625|-0.5589752197265625|141391.415218625|-0.8257331185655513|-0.3103826597756306|-0.5537738284722453|-0.6874697804450989|1.036348223686218|-1.465909838676453|0.463632732629776|-0.01477688550949097|0.1388993859291077|XArbitraryZVertical|-0.3070403566050635|-0.02782383100971017|-0.3426125594698175|0.8874507158491031|-0.2597763240337372|0.5259007811546326|-0.8099040985107422|0|0|0|-1|-1|3
2021-04-22 22:13:37.823 +0100|141391.4551375417|-0.194732666015625|0.959228515625|-0.434326171875|141391.4351785417|-0.8628004067908686|-0.3090050098463002|-0.5642778892344228|-1.093530654907227|1.087166666984558|-1.235377669334412|0.3137125372886658|-0.0235903263092041|0.2183610200881958|XArbitraryZVertical|-0.3116937301941338|-0.01923370585448604|-0.3579078578330421|0.8799881513948667|-0.2569661438465118|0.5348057746887207|-0.8049541711807251|0|0|0|-1|-1|3
2021-04-22 22:13:37.843 +0100|141391.4750965417|-0.3401947021484375|0.8329315185546875|-0.4249267578125|141391.4551375417|-0.8966458448358793|-0.3040394959945377|-0.5727312501783676|-0.4783162176609039|1.272599697113037|-1.248712062835693|0.1026308834552765|0.365755021572113|0.3484634160995483|XArbitraryZVertical|-0.3145843411444496|-0.009886965116922592|-0.3724595779902656|0.8730480084016481|-0.2516034841537476|0.5419294834136963|-0.8018778562545776|0|0|0|-1|-1|3
2021-04-22 22:13:37.863 +0100|141391.4950555417|-0.4725341796875|0.5587921142578125|-0.415985107421875|141391.4750965417|-0.9263257175737093|-0.2931847295737242|-0.5676052218561621|0.1871595829725266|1.38922917842865|-1.322432279586792|-0.04270899295806885|0.3507677912712097|0.3812465667724609|XArbitraryZVertical|-0.3104704008259605|-0.00169105215020264|-0.3877163539129866|0.8679178964188717|-0.2436842918395996|0.5376143455505371|-0.8072105646133423|0|0|0|-1|-1|3
2021-04-22 22:13:37.883 +0100|141391.5150155417|-0.4924163818359375|0.298492431640625|-0.4995880126953125|141391.4950555417|-0.955604705541877|-0.280533375139064|-0.555222575937634|0.2356010973453522|1.394502639770508|-1.425273299217224|-0.2299025803804398|0.08228844404220581|0.4111072421073914|XArbitraryZVertical|-0.3028024520920334|0.005386112776426416|-0.4038556260252483|0.8632394272743598|-0.2352779358625412|0.5271324515342712|-0.8165633082389832|0|0|0|-1|-1|3
2021-04-22 22:13:37.902 +0100|141391.5349745417|-0.5919952392578125|0.1200103759765625|-0.5624542236328125|141391.5150155417|-0.9885244046846113|-0.2716286868824798|-0.5463997459786391|-0.2698775827884674|1.214802503585815|-1.557187914848328|-0.250760406255722|-0.1372749805450439|0.3567966818809509|XArbitraryZVertical|-0.2971830168791136|0.01204415807693479|-0.4204223498092599|0.8571944690933277|-0.2292363941669464|0.5196145176887512|-0.8230744004249573|0|0|0|-1|-1|3
2021-04-22 22:13:37.923 +0100|141391.5549335417|-0.7043304443359375|0.08038330078125|-0.4000396728515625|141391.5349745417|-1.030945879259667|-0.272559144734958|-0.5510002551735637|-1.172686100006104|0.96131432056427|-1.85109543800354|-0.3162076473236084|-0.3749953508377075|0.2438899874687195|XArbitraryZVertical|-0.2989316162470015|0.01910493662688827|-0.4378039080590665|0.847704374500728|-0.2293561846017838|0.5235397219657898|-0.8205497860908508|0|0|0|-1|-1|3
2021-04-22 22:13:37.942 +0100|141391.5748925417|-0.652618408203125|0.2555694580078125|-0.135284423828125|141391.5549335417|-1.088215143905118|-0.2826020153271763|-0.570826088089804|-2.016225576400757|1.137085914611816|-2.273471117019653|-0.4692753255367279|-0.4875471591949463|0.371309757232666|XArbitraryZVertical|-0.3084463890901384|0.02867579756308269|-0.457837315313682|0.8333209055711128|-0.2346442490816116|0.5403273701667786|-0.8080770373344421|0|0|0|-1|-1|3
2021-04-22 22:13:37.962 +0100|141391.5948525417|-0.7914581298828125|0.64117431640625|-0.01947021484375|141391.5748925417|-1.160425646401128|-0.2975620174214012|-0.5980854542344323|-2.133235216140747|1.418240189552307|-2.795912504196167|-0.3869004249572754|-0.3853727579116821|0.5868813991546631|XArbitraryZVertical|-0.3213251241589684|0.04124734075432931|-0.4815612951071109|0.8143388295773641|-0.2422968596220016|0.5630612969398499|-0.7900976538658142|0|0|0|-1|-1|3
2021-04-22 22:13:37.982 +0100|141391.6148115417|-1.015304565429688|0.728759765625|-0.2699737548828125|141391.5948525417|-1.246021680379887|-0.3122942139997071|-0.6110252926393456|-1.192256093025208|2.032955646514893|-3.533486843109131|-0.4946734607219696|-0.01380163431167603|0.7489107251167297|XArbitraryZVertical|-0.3278383899390732|0.05291808767596837|-0.5117058235348794|0.792388211086009|-0.2516503036022186|0.5737075209617615|-0.7794433236122131|0|0|0|-1|-1|3
2021-04-22 22:13:38.002 +0100|141391.6347705417|-1.168960571289062|0.9348297119140625|-0.1763916015625|141391.6148115417|-1.341447282874873|-0.320876737368129|-0.6070859793309938|-1.144492506980896|2.524251699447632|-3.919970989227295|-0.710091233253479|0.1489751935005188|0.5842795372009277|XArbitraryZVertical|-0.3258994929294396|0.06397482539980093|-0.5481142558769564|0.7676377889164682|-0.2590413391590118|0.5704765319824219|-0.7793934941291809|0|0|0|-1|-1|3
2021-04-22 22:13:38.022 +0100|141391.6547295417|-1.3773193359375|2.22479248046875|0.475128173828125|141391.6347705417|-1.443299357548179|-0.3246745158037364|-0.6162090076944037|-2.347730875015259|2.947443008422852|-3.527634620666504|-0.8743773698806763|0.2859762907028198|0.582185685634613|XArbitraryZVertical|-0.3264094079431201|0.08208100746675355|-0.5844434462168737|0.7383398889273046|-0.2603283226490021|0.5779455900192261|-0.7734392285346985|0|0|0|-1|-1|3
2021-04-22 22:13:38.042 +0100|141391.6746895417|-0.9007415771484375|2.679397583007812|0.4905853271484375|141391.6547295417|-1.53098606375191|-0.3082720874360391|-0.6403602786383679|-1.712347865104675|3.990408897399902|-2.372490882873535|-1.130998492240906|1.272083163261414|1.107020616531372|XArbitraryZVertical|-0.3252192401030249|0.1104208513728228|-0.6150407459820365|0.7097638731622519|-0.2433007061481476|0.5974844098091125|-0.7640793919563293|0|0|0|-1|-1|3
2021-04-22 22:13:38.062 +0100|141391.6946485417|-0.4601287841796875|2.912246704101562|0.23443603515625|141391.6746895417|-1.57421898679095|-0.2481368336721738|-0.642280616447772|0.5711938738822937|4.516968250274658|-0.8099465370178223|-0.8221110105514526|1.993948221206665|1.27123236656189|XArbitraryZVertical|-0.3042755066865329|0.138971510432827|-0.6393643169130517|0.6923270203327717|-0.1966583430767059|0.599023163318634|-0.7762066721916199|0|0|0|-1|-1|3
2021-04-22 22:13:38.082 +0100|141391.7146075417|0.1626434326171875|2.290863037109375|0.3651580810546875|141391.6946485417|-1.565133576107802|-0.1521720381875844|-0.6141806335157501|2.350774526596069|4.272664546966553|0.9591224193572998|-0.5137984752655029|1.98369288444519|1.194001793861389|XArbitraryZVertical|-0.2648221518511405|0.1611465804086221|-0.6538771362960129|0.6901782201764856|-0.1238825768232346|0.5762891173362732|-0.8078020215034485|0|0|0|-1|-1|3
2021-04-22 22:13:38.102 +0100|141391.7345665417|1.555740356445312|2.41583251953125|0.1099090576171875|141391.7146075417|-1.521203253353713|-0.04990907992792475|-0.5863492828370374|0.9577248692512512|3.283668518066406|2.258189916610718|-0.02671348676085472|1.655660152435303|1.299717664718628|XArbitraryZVertical|-0.2257543003420662|0.1818528242603747|-0.6545141529391579|0.6982664290377504|-0.04155532643198967|0.5533238053321838|-0.831929087638855|0|0|0|-1|-1|3
2021-04-22 22:13:38.122 +0100|141391.7545265417|3.006195068359375|1.9471435546875|-0.0373382568359375|141391.7345665417|-1.454111648363517|0.03328332866836817|-0.5641974255957004|1.318689823150635|1.433328986167908|3.163168668746948|1.267945528030396|1.906881809234619|0.9552523493766785|XArbitraryZVertical|-0.1973289965975328|0.1969422016703031|-0.641773108352532|0.7144246042185681|0.02811982110142708|0.5347378253936768|-0.8445500731468201|0|0|0|-1|-1|3
2021-04-22 22:13:38.142 +0100|141391.7744855417|3.350143432617188|2.301132202148438|-0.1533660888671875|141391.7545265417|-1.381632823008877|0.08780597760800821|-0.5381376266916709|0.7001835703849792|0.5217438340187073|3.056189775466919|2.617098093032837|1.46098804473877|0.8404486775398254|XArbitraryZVertical|-0.1777293390180955|0.2018264093277499|-0.6226409302464821|0.7348447986630396|0.07529905438423157|0.5125377178192139|-0.855356752872467|0|0|0|-1|-1|3
2021-04-22 22:13:38.162 +0100|141391.7944445417|2.739395141601562|2.007003784179688|0.0617828369140625|141391.7744855417|-1.317757805770308|0.1307400779881389|-0.5323033917520683|-0.9794547557830811|0.5332571864128113|2.435867547988892|3.241260528564453|1.735751271247864|0.7062152624130249|XArbitraryZVertical|-0.1689357925597444|0.2105166735361074|-0.6029976757504042|0.7506912760005419|0.1123302802443504|0.5075193643569946|-0.8542868494987488|0|0|0|-1|-1|3
2021-04-22 22:13:38.182 +0100|141391.8144035417|2.19586181640625|1.8955078125|0.0526580810546875|141391.7944445417|-1.25734655938314|0.1729116936869372|-0.5717084171904222|-3.473197221755981|0.5175358653068542|2.128161668777466|2.79325008392334|1.528495073318481|0.8522406220436096|XArbitraryZVertical|-0.1784952270017703|0.2322086404607388|-0.5817946095684154|0.7587712919369239|0.1446913778781891|0.5410695672035217|-0.8284372091293335|0|0|0|-1|-1|3
2021-04-22 22:13:38.202 +0100|141391.8343635417|1.749603271484375|2.153671264648438|0.5677032470703125|141391.8144035417|-1.189703401807598|0.2195270506170371|-0.6371844500656569|-3.687757015228271|0.2007016390562057|2.039578914642334|2.129665374755859|1.319310784339905|0.8798052668571472|XArbitraryZVertical|-0.1995683520371551|0.2606348490748798|-0.5574015911993713|0.7625912984434546|0.175036296248436|0.5949347615242004|-0.7844839096069336|0|0|0|-1|-1|3
2021-04-22 22:13:38.222 +0100|141391.8543225417|1.236190795898438|2.1522216796875|1.01458740234375|141391.8343635417|-1.119081336351561|0.2582039586803606|-0.6896045273411666|-2.885579824447632|-0.6973652243614197|2.137063026428223|1.641364932060242|1.495893716812134|1.117733240127563|XArbitraryZVertical|-0.2197650670103665|0.280610014469053|-0.5322785024476711|0.7678808415403199|0.1969976723194122|0.6362321376800537|-0.7459226846694946|0|0|0|-1|-1|3
2021-04-22 22:13:38.242 +0100|141391.8742815417|-0.1473846435546875|2.961822509765625|-0.1541900634765625|141391.8543225417|-1.034712160745288|0.2866736978906035|-0.7374245084301513|-3.722974300384521|-2.169424533843994|2.850468158721924|1.197084188461304|1.511637330055237|1.792819380760193|XArbitraryZVertical|-0.244133234517267|0.2922353540513206|-0.5013591436463778|0.7769405605612063|0.2093021422624588|0.6723837852478027|-0.709994912147522|0|0|0|-1|-1|3
2021-04-22 22:13:38.262 +0100|141391.8942405417|-1.043838500976562|1.207443237304688|-1.416046142578125|141391.8742815417|-0.9356776593379162|0.2933546854154406|-0.7758727428185782|-0.8072277307510376|-4.007871150970459|2.593991994857788|-0.01799458265304565|2.184258699417114|1.012890100479126|XArbitraryZVertical|-0.2729946207279291|0.2895101341461168|-0.462311309836599|0.7924179875865918|0.2064090818166733|0.7003393173217773|-0.683315634727478|0|0|0|-1|-1|3
2021-04-22 22:13:38.282 +0100|141391.9142005417|-2.1776123046875|1.212432861328125|-1.03851318359375|141391.8942405417|-0.9001040773608712|0.2136196930061464|-0.7136103258398175|5.161204814910889|-6.743165493011475|1.747154235839844|-1.258463144302368|1.504230976104736|-0.5073962211608887|XArbitraryZVertical|-0.2692556604935379|0.2410218866535886|-0.4388194063955072|0.8227074727704263|0.1602717936038971|0.6545674800872803|-0.7388196587562561|0|0|0|-1|-1|3
2021-04-22 22:13:38.302 +0100|141391.9341595417|-3.606369018554688|-0.1543731689453125|-0.4921417236328125|141391.9142005417|-0.8839186073054558|0.05333333908728551|-0.5748235313209022|7.637354373931885|-10.18387985229492|1.335718274116516|-1.825274705886841|1.094664931297302|-0.3600708842277527|XArbitraryZVertical|-0.2452062950791433|0.1443135980544406|-0.4168531843007146|0.863296607350638|0.04474082961678505|0.5436866879463196|-0.8380948901176453|0|0|0|-1|-1|3
2021-04-22 22:13:38.321 +0100|141391.9541185417|-4.793167114257812|-0.34722900390625|-0.430084228515625|141391.9341595417|-0.8514457028000891|-0.1546835990937988|-0.4418988266625128|5.823260307312012|-11.74809169769287|0.9843412637710571|-3.083892822265625|-0.3918440341949463|0.3201812505722046|XArbitraryZVertical|-0.230130605025696|0.02157886851694139|-0.3863134519318412|0.8929369657861445|-0.1392679512500763|0.4276566505432129|-0.8931485414505005|0|0|0|-1|-1|3
2021-04-22 22:13:38.341 +0100|141391.9740775417|-4.409942626953125|-0.6530303955078125|-0.208160400390625|141391.9541185417|-0.8031931729183464|-0.3575584894753003|-0.3302190482664872|6.972714424133301|-10.06612110137939|0.495395302772522|-4.353446960449219|-0.6082465648651123|0.537525475025177|XArbitraryZVertical|-0.217438002388472|-0.09823149150274789|-0.3525244772652464|0.9048746208525948|-0.3310787975788116|0.3242502510547638|-0.8861425518989563|0|0|0|-1|-1|3
2021-04-22 22:13:38.361 +0100|141391.9940375417|-2.852188110351562|-1.319015502929688|0.7088775634765625|141391.9740775417|-0.7272903013219869|-0.498729075256289|-0.1867488185707625|8.17950439453125|-5.763138294219971|0.2542301714420319|-4.165108680725098|-0.5847737789154053|0.6010056138038635|XArbitraryZVertical|-0.1718423118560978|-0.1975073793038032|-0.321674860284679|0.9099375539136846|-0.4699934720993042|0.1856652349233627|-0.8629221320152283|0|0|0|-1|-1|3
2021-04-22 22:13:38.381 +0100|141392.0139965417|-1.822219848632812|-1.619049072265625|0.9105682373046875|141391.9940375417|-0.6549364365274631|-0.5540932298106852|-0.08938624088956268|3.418537616729736|-0.7588602900505066|1.221572279930115|-2.643989562988281|-1.442492485046387|1.286512970924377|XArbitraryZVertical|-0.1285785787293774|-0.2449001129169359|-0.2975018178065083|0.913774740372943|-0.5240718126296997|0.08926725387573242|-0.8469829559326172|0|0|0|-1|-1|3
2021-04-22 22:13:38.401 +0100|141392.0339555417|-1.487960815429688|-1.190139770507812|0.22216796875|141392.0139965417|-0.602515857789074|-0.5307987894219793|-0.09518886559017312|-0.7620018720626831|2.212998867034912|3.517542600631714|-1.526175737380981|-1.591291069984436|1.802942276000977|XArbitraryZVertical|-0.1215834523917127|-0.2365756291021632|-0.2740915354205895|0.9241880015053335|-0.5039306879043579|0.09504517912864685|-0.8584988713264465|0|0|0|-1|-1|3
2021-04-22 22:13:38.422 +0100|141392.0539145417|-1.606491088867188|-0.215362548828125|-0.5240936279296875|141392.0339555417|-0.5406943203956434|-0.4671263601939311|-0.1635572558264742|-1.997192144393921|3.173689842224121|4.952927589416504|-1.048104763031006|-1.517061233520508|1.344344854354858|XArbitraryZVertical|-0.1381876473503875|-0.201069895302132|-0.2407267859241111|0.9394285070536283|-0.4443125128746033|0.1628290116786957|-0.8809501528739929|0|0|0|-1|-1|3
2021-04-22 22:13:38.442 +0100|141392.0738745417|-1.778396606445312|-0.29156494140625|-0.779327392578125|141392.0539145417|-0.4590831910372165|-0.3856080925664806|-0.2365945026409263|-0.9942442178726196|3.262943744659424|5.176647186279297|-1.174471616744995|-0.7258478403091431|0.4912577271461487|XArbitraryZVertical|-0.1560893643188897|-0.1589258639705974|-0.199733294815691|0.9541935792065719|-0.3656445741653442|0.2343933582305908|-0.900757372379303|0|0|0|-1|-1|3
2021-04-22 22:13:38.461 +0100|141392.0938335417|-1.376251220703125|-1.139236450195312|-0.753143310546875|141392.0738745417|-0.3639509758198205|-0.2971190228279177|-0.268692296495555|0.8107454180717468|3.109592437744141|4.656143665313721|-1.53225302696228|-0.3973976373672485|0.2123112082481384|XArbitraryZVertical|-0.1568248296190822|-0.1202850321288945|-0.1578687187238984|0.9674787179651426|-0.2822618782520294|0.2654708921909332|-0.9218749403953552|0|0|0|-1|-1|3
2021-04-22 22:13:38.481 +0100|141392.1137925417|-0.807281494140625|-1.508056640625|-0.6149444580078125|141392.0938335417|-0.270374347012048|-0.2152896248444856|-0.2776609336001477|0.1867830753326416|2.53277850151062|4.324654102325439|-1.293881177902222|-1.24322235584259|0.150420606136322|XArbitraryZVertical|-0.1506692237176036|-0.08688954476630718|-0.1179744221680455|0.9776661833473339|-0.2054481655359268|0.2741069197654724|-0.9394980072975159|0|0|0|-1|-1|3
2021-04-22 22:13:38.501 +0100|141392.1337515417|-0.502044677734375|-1.190841674804688|-0.5673065185546875|141392.1137925417|-0.1869985636029592|-0.1473100684192657|-0.310167961188508|-1.927675127983093|1.913486361503601|4.178256511688232|-0.8191195726394653|-1.776592254638672|0.307676374912262|XArbitraryZVertical|-0.160159419836604|-0.05800566709136985|-0.08067547038666814|0.9820772842904254|-0.139773964881897|0.3052185773849487|-0.9419686198234558|0|0|0|-1|-1|3
2021-04-22 22:13:38.521 +0100|141392.1537115417|-0.3591766357421875|-0.64715576171875|-0.80743408203125|141392.1337515417|-0.107563414467656|-0.08831272643695566|-0.3659309447550134|-2.514254093170166|1.430190443992615|3.811898708343506|-0.4409423470497131|-1.689238786697388|0.343513011932373|XArbitraryZVertical|-0.1838394421534807|-0.03357132219242669|-0.04478712611777519|0.9813614509107952|-0.08235848695039749|0.3578187525272369|-0.9301520586013794|0|0|0|-1|-1|3
2021-04-22 22:13:38.541 +0100|141392.1736705417|-0.3435821533203125|-0.6090850830078125|-0.970947265625|141392.1537115417|-0.03626321399516515|-0.03211133534797504|-0.4192207190177872|-2.20199179649353|1.414228439331055|3.111711263656616|-0.4016899466514587|-1.131092667579651|0.1999995708465576|XArbitraryZVertical|-0.2083024936314105|-0.01192887601662206|-0.01439133439036306|0.9778858482639703|-0.02932566031813622|0.407048761844635|-0.9129355549812317|0|0|0|-1|-1|3
2021-04-22 22:13:38.561 +0100|141392.1936295417|-0.250457763671875|-0.5433197021484375|-0.9734954833984375|141392.1736705417|0.02238635511869218|0.01780801112964675|-0.4559852127551398|-1.483423233032227|1.198171854019165|2.167210102081299|-0.3284424543380737|-1.032524585723877|-0.03421425819396973|XArbitraryZVertical|-0.2260964737988201|0.006143173067504947|0.008890507692625192|0.9740450681488463|0.01598767936229706|0.4403470754623413|-0.8976852893829346|0|0|0|-1|-1|3
2021-04-22 22:13:38.581 +0100|141392.2135885417|0.135589599609375|-0.7741241455078125|-1.077285766601562|141392.1936295417|0.05985571539781511|0.058105046654756|-0.4839266094888757|-1.527185559272766|1.232285857200623|1.012348175048828|-0.3590676784515381|-1.039766192436218|-0.05467301607131958|XArbitraryZVertical|-0.2402447308144768|0.02102271548762057|0.02208228884191889|0.970233451387407|0.0514041893184185|0.4652584791183472|-0.883681058883667|0|0|0|-1|-1|3
2021-04-22 22:13:38.601 +0100|141392.2335485417|0.1397705078125|-0.50872802734375|-1.020126342773438|141392.2135885417|0.07788030887444851|0.08783271717971383|-0.5174486628970504|-1.965850710868835|0.8133894801139832|0.2657093703746796|0.004772484302520752|-1.19833779335022|-0.2233158946037292|XArbitraryZVertical|-0.2570593175271136|0.03245825423219876|0.02637454890108592|0.9654903237914388|0.07623590528964996|0.4946644306182861|-0.8657339215278625|0|0|0|-1|-1|3
2021-04-22 22:13:38.621 +0100|141392.2535075417|0.16217041015625|-0.306671142578125|-0.97540283203125|141392.2335485417|0.08002010431667288|0.1009831502019489|-0.5613707297505107|-2.52275562286377|0.4626153409481049|-0.5280249118804932|0.08191138505935669|-1.182569026947021|-0.21377032995224|XArbitraryZVertical|-0.2783795451356644|0.0373899272543604|0.02441529898897453|0.9594326130664428|0.08533967286348343|0.5323470830917358|-0.8422136306762695|0|0|0|-1|-1|3
2021-04-22 22:13:38.641 +0100|141392.2734665417|0.130889892578125|0.2104034423828125|-0.8701324462890625|141392.2535075417|0.06705115753460496|0.1026825923330465|-0.6193313769521241|-2.98242974281311|0.4216905832290649|-1.103731036186218|0.05403223633766174|-0.9399260282516479|-0.1910133957862854|XArbitraryZVertical|-0.3058060165853628|0.03864910731843194|0.01625280548462987|0.9511702420840388|0.08346417546272278|0.5804908275604248|-0.8099778294563293|0|0|0|-1|-1|3
2021-04-22 22:13:38.661 +0100|141392.2934255417|0.4164581298828125|0.27972412109375|-0.903839111328125|141392.2734665417|0.03728233498135084|0.09447288744253896|-0.676188270829074|-2.370023012161255|0.6102007031440735|-1.78616726398468|0.03482197970151901|-0.5410764217376709|-0.1055936217308044|XArbitraryZVertical|-0.3320925173519294|0.03836218056593237|0.001905934719404824|0.9424644723208967|0.07357587665319443|0.6258245706558228|-0.776485800743103|0|0|0|-1|-1|3
2021-04-22 22:13:38.681 +0100|141392.3133855417|0.39581298828125|0.48162841796875|-0.9893646240234375|141392.2934255417|-0.01084508186559015|0.07392643415436721|-0.7166467496862556|-1.422554731369019|0.3628261983394623|-2.266382694244385|0.3144106268882751|-0.3786762356758118|-0.1537773609161377|XArbitraryZVertical|-0.3502721589540285|0.0365075439185952|-0.01803466029379513|0.9357626029983634|0.0556907095015049|0.6568599939346313|-0.7519532442092896|0|0|0|-1|-1|3
2021-04-22 22:13:38.701 +0100|141392.3333445417|0.1341552734375|0.936370849609375|-1.065536499023438|141392.3133855417|-0.07641227347410369|0.03388295133868405|-0.7400219611568262|-0.6552125215530396|0.01768117025494576|-2.733895540237427|0.403221070766449|-0.2644370198249817|-0.234396755695343|XArbitraryZVertical|-0.3607065556642573|0.02959361793803099|-0.04172839725573|0.9312754787074126|0.02501620911061764|0.6743041276931763|-0.7380300164222717|0|0|0|-1|-1|3
2021-04-22 22:13:38.721 +0100|141392.3533035417|-0.05810546875|1.5374755859375|-1.068328857421875|141392.3333445417|-0.156268976340844|-0.02232013459145763|-0.7447153507055529|0.2172297686338425|-0.1666899025440216|-3.11126446723938|0.2278047800064087|0.08273625373840332|-0.2871794104576111|XArbitraryZVertical|-0.3634913213761451|0.0180322505597225|-0.06865383289688562|0.9288895426023185|-0.01641020737588406|0.6777625679969788|-0.7350977659225464|0|0|0|-1|-1|3
2021-04-22 22:13:38.741 +0100|141392.3732625417|0.02685546875|1.574951171875|-0.9821319580078125|141392.3533035417|-0.2390648916432761|-0.0795983447137702|-0.7281388307915754|1.078871369361877|0.02741683460772038|-3.139705419540405|0.02301871031522751|0.7609259486198425|-0.3498052358627319|XArbitraryZVertical|-0.3576928209271402|0.005512751709344496|-0.09727686719711748|0.9287425129142511|-0.05935062095522881|0.6654815673828125|-0.744050920009613|0|0|0|-1|-1|3
2021-04-22 22:13:38.761 +0100|141392.3932225417|-0.08941650390625|1.3489990234375|-0.8873291015625|141392.3732625417|-0.3131784338727813|-0.1266813784886397|-0.6939304977498665|1.656418204307556|0.0738014280796051|-2.783343553543091|0.1306778490543365|1.025231957435608|-0.2492774724960327|XArbitraryZVertical|-0.3444945454427773|-0.005874257747358614|-0.1251017813149685|0.9303970222084476|-0.09712454676628113|0.6395636200904846|-0.762578010559082|0|0|0|-1|-1|3
2021-04-22 22:13:38.781 +0100|141392.4131815417|-0.0288848876953125|1.082504272460938|-1.006576538085938|141392.3932225417|-0.3714784440472083|-0.1587452572230568|-0.6520183194394458|1.718266367912292|0.2828392088413239|-2.436332941055298|0.04987512528896332|0.7861530184745789|-0.1132347583770752|XArbitraryZVertical|-0.3276367709189932|-0.01486293596946207|-0.1494383787864579|0.9327922928186759|-0.1256510764360428|0.6067919135093689|-0.7848664522171021|0|0|0|-1|-1|3
2021-04-22 22:13:38.800 +0100|141392.433141125|-0.17340087890625|1.057601928710938|-0.954254150390625|141392.4131815417|-0.417033228392608|-0.1775807521805468|-0.6147280255126086|1.396699786186218|0.4994553327560425|-1.772144198417664|0.05907340347766876|0.4764869213104248|-0.1819391250610352|XArbitraryZVertical|-0.3123237496984291|-0.02030402366989281|-0.1702831452248233|0.9343689456785914|-0.1443098336458206|0.5767363309860229|-0.8040832281112671|0|0|0|-1|-1|3
2021-04-22 22:13:38.821 +0100|141392.453101125|-0.21270751953125|1.250762939453125|-0.8875274658203125|141392.433141125|-0.4495098124485161|-0.1879465113326803|-0.5827040732107061|1.291311740875244|0.4181003868579865|-1.520442724227905|0.07879854738712311|0.4795629382133484|-0.160377562046051|XArbitraryZVertical|-0.2988188130240123|-0.02388419076516748|-0.1862571460102586|0.9356522493610324|-0.1560088694095612|0.5502837896347046|-0.8202736973762512|0|0|0|-1|-1|3
2021-04-22 22:13:38.841 +0100|141392.473060125|-0.025909423828125|0.8336944580078125|-0.7133026123046875|141392.453101125|-0.4794788034933641|-0.1931913544503269|-0.5478403110932289|1.747097969055176|0.5913342237472534|-1.629013538360596|-0.1200575828552246|0.7443687915802002|-0.05387628078460693|XArbitraryZVertical|-0.2835931133804783|-0.02626189028162676|-0.20218811071509|0.9370194171155442|-0.1638941168785095|0.5208448171615601|-0.8377705216407776|0|0|0|-1|-1|3
2021-04-22 22:13:38.860 +0100|141392.493019125|-0.05340576171875|0.4346466064453125|-0.5866241455078125|141392.473060125|-0.5062349319727072|-0.1956997031129768|-0.5065570713245804|1.706735968589783|0.4886773824691772|-1.41902232170105|0.1345864981412888|0.4582666456699371|0.09645330905914307|XArbitraryZVertical|-0.2651187132162954|-0.02911269851705721|-0.2175741289486358|0.9388961955303741|-0.1700335443019867|0.4851695597171783|-0.8577290177345276|0|0|0|-1|-1|3
2021-04-22 22:13:38.880 +0100|141392.512978125|0.0546417236328125|0.4461212158203125|-0.5388336181640625|141392.493019125|-0.531480265537145|-0.1974544614919485|-0.4776697743941305|0.4691602289676666|0.5548650622367859|-1.375068068504333|0.1175895780324936|0.05876791477203369|0.265695333480835|XArbitraryZVertical|-0.2523063339595335|-0.03058090239006559|-0.2314265994089226|0.9390677722382995|-0.1742158681154251|0.4597110152244568|-0.8708126544952393|0|0|0|-1|-1|3
