loggingTime(txt)|accelerometerTimestamp_sinceReboot(s)|accelerometerAccelerationX(G)|accelerometerAccelerationY(G)|accelerometerAccelerationZ(G)|motionTimestamp_sinceReboot(s)|motionYaw(rad)|motionRoll(rad)|motionPitch(rad)|motionRotationRateX(rad/s)|motionRotationRateY(rad/s)|motionRotationRateZ(rad/s)|motionUserAccelerationX(G)|motionUserAccelerationY(G)|motionUserAccelerationZ(G)|motionAttitudeReferenceFrame(txt)|motionQuaternionX(R)|motionQuaternionY(R)|motionQuaternionZ(R)|motionQuaternionW(R)|motionGravityX(G)|motionGravityY(G)|motionGravityZ(G)|motionMagneticFieldX(µT)|motionMagneticFieldY(µT)|motionMagneticFieldZ(µT)|motionHeading(°)|motionMagneticFieldCalibrationAccuracy(Z)|label
2021-04-08 19:16:16.750 +0100|17295.59072304167|-0.094635009765625|-0.11029052734375|-1.000656127929688|17295.58573304167|0.03706268263531647|-0.0897243964013056|0.121007235884235|0.04564913362264633|0.07479718327522278|0.04938933625817299|-0.1381940543651581|-0.01467814296483994|0.009949862957000732|XArbitraryZVertical|-0.06122500736715192|0.04363806456571481|-0.01576646968126452|-0.9970450031169648|-0.08894883096218109|-0.1207121387124062|-0.988694429397583|0|0|0|-1|-1|3
2021-04-08 19:16:16.755 +0100|17295.61068404167|-0.113128662109375|-0.1273193359375|-0.974945068359375|17295.60569404167|0.03884431593575653|-0.09027256121803463|0.1216307539032985|0.02050531469285488|-0.08805377781391144|0.1023576557636261|0.01851481199264526|-0.01058020442724228|-0.008484721183776855|XArbitraryZVertical|-0.06157920813620992|0.04384988105674047|-0.01662344975731986|-0.9970000447902864|-0.08948398381471634|-0.1213310733437538|-0.9885703921318054|0|0|0|-1|-1|3
2021-04-08 19:16:16.756 +0100|17295.63064404167|-0.124114990234375|-0.0992584228515625|-0.974395751953125|17295.62565404167|0.04065745894478331|-0.09069579155869906|0.1214260848021439|-0.01018343865871429|0.06544821709394455|0.06504419445991516|-0.04556345194578171|0.0106399804353714|0.01919668912887573|XArbitraryZVertical|-0.06152063446350629|0.04400737213639047|-0.0175190111693302|-0.9969813115824526|-0.08990461379289627|-0.1211279109120369|-0.9885571002960205|0|0|0|-1|-1|3
2021-04-08 19:16:16.757 +0100|17295.65060504167|-0.0806427001953125|-0.1019744873046875|-0.9816741943359375|17295.64561504167|0.04199843807210044|-0.08988684344600535|0.1214695400433031|0.03209628909826279|0.0122841689735651|0.07304495573043823|-0.01607494801282883|0.01901441067457199|0.008735299110412598|XArbitraryZVertical|-0.0615644201984018|0.04356234402527304|-0.018211363757589|-0.9969858283255914|-0.08910442143678665|-0.1211710497736931|-0.9886242747306824|0|0|0|-1|-1|3
2021-04-08 19:16:16.758 +0100|17295.67056604167|-0.098876953125|-0.102996826171875|-0.9809722900390625|17295.66557504167|0.04329636712241997|-0.09050957229617269|0.1225286248401871|0.1042196378111839|-0.03778453916311264|0.05402758717536926|0.006471171975135803|0.01983674615621567|0.004355132579803467|XArbitraryZVertical|-0.06212641118424996|0.04381991436996654|-0.01881458619353357|-0.996928417609086|-0.08970840275287628|-0.1222222596406937|-0.9884402751922607|0|0|0|-1|-1|3
2021-04-08 19:16:16.758 +0100|17295.69052604167|-0.0778656005859375|-0.1348876953125|-0.983642578125|17295.68553604167|0.0444799969275221|-0.09086595711029885|0.1250672681620304|0.1474367380142212|-0.0235300213098526|0.04698619246482849|-0.009531907737255096|0.02102845907211304|0.009183645248413086|XArbitraryZVertical|-0.06342097773861871|0.0439290699371131|-0.01933423484664423|-0.9968322062706912|-0.09003221243619919|-0.1247414797544479|-0.9880960583686829|0|0|0|-1|-1|3
2021-04-08 19:16:16.772 +0100|17295.71048704167|-0.08203125|-0.1243133544921875|-0.9738922119140625|17295.70549704167|0.04590046329747951|-0.09254075999107801|0.1276057419516178|0.1138135269284248|-0.07070482522249222|0.07065148651599884|0.01980322599411011|-0.01011419296264648|0.004989802837371826|XArbitraryZVertical|-0.0647338591365431|0.04468599725554135|-0.01992866092411544|-0.9967023762950198|-0.09165740013122559|-0.1272597163915634|-0.9876253604888916|0|0|0|-1|-1|3
2021-04-08 19:16:16.792 +0100|17295.73044804167|-0.0825347900390625|-0.119720458984375|-0.97772216796875|17295.72545704167|0.04752418941075879|-0.09437524367234551|0.1285984999810535|0.06257813423871994|-0.03002046421170235|0.06146819144487381|0.005413323640823364|0.009730279445648193|0.009591817855834961|XArbitraryZVertical|-0.0652837431296016|0.04553435414635133|-0.0206543072540003|-0.9966133725815748|-0.09345707297325134|-0.1282443404197693|-0.9873293042182922|0|0|0|-1|-1|3
2021-04-08 19:16:16.812 +0100|17295.75040804167|-0.08612060546875|-0.1187896728515625|-0.9902801513671875|17295.74541804167|0.04894918149944064|-0.09513854484644714|0.1287448200565431|0.02528998255729675|-0.04986096173524857|0.06876561045646667|0.01512204855680466|0.01222525537014008|0.005595266819000244|XArbitraryZVertical|-0.06539721425720356|0.04586616697651923|-0.0213358691294649|-0.9965764045128593|-0.09420888870954514|-0.128389447927475|-0.9872390031814575|0|0|0|-1|-1|3
2021-04-08 19:16:16.832 +0100|17295.77036904167|-0.1021575927734375|-0.157470703125|-0.98101806640625|17295.76537904167|0.05067970540543549|-0.0963069639795356|0.1274823291350861|-0.105628103017807|-0.0248226672410965|0.08778031170368195|0.004740104079246521|-0.009061679244041443|0.007979631423950195|XArbitraryZVertical|-0.06482086990012087|0.04640964542236351|-0.02219126473871973|-0.9965701290953597|-0.0953778475522995|-0.127137303352356|-0.987288773059845|0|0|0|-1|-1|3
2021-04-08 19:16:16.861 +0100|17295.79032904167|-0.10009765625|-0.147369384765625|-0.9978790283203125|17295.78533904167|0.05216041172864114|-0.09619975420473333|0.1237012146719691|-0.2461305409669876|0.03296270966529846|0.08310842514038086|-0.003605768084526062|-0.04273549467325211|0.0155414342880249|XArbitraryZVertical|-0.06297012201465431|0.04636306991733437|-0.02302632915929231|-0.9966720360630095|-0.09531749039888382|-0.1233859732747078|-0.9877704381942749|0|0|0|-1|-1|3
2021-04-08 19:16:16.872 +0100|17295.81029004167|-0.06976318359375|-0.052581787109375|-1.031692504882812|17295.80530004167|0.05294239074631742|-0.09558859410030683|0.1201131958017885|-0.07287538796663284|-0.007169477175921202|0.0414540022611618|0.003614164888858795|-0.004548832774162292|-0.0239441990852356|XArbitraryZVertical|-0.06119321994142381|0.04608644528408739|-0.02352367374109865|-0.9967839036216685|-0.09475543349981308|-0.1198245882987976|-0.9882628321647644|0|0|0|-1|-1|3
2021-04-08 19:16:16.892 +0100|17295.83025104167|-0.0748291015625|-0.0726776123046875|-1.01361083984375|17295.82526104167|0.05378757036131833|-0.09654784737101108|0.121032667327379|0.1380672305822372|-0.08908288180828094|0.0397883765399456|0.02821782231330872|0.07477886974811554|-0.04143387079238892|XArbitraryZVertical|-0.06168232917501555|0.04652499176200555|-0.02389265925026886|-0.9967246495939843|-0.09569272398948669|-0.1207373812794685|-0.9880614280700684|0|0|0|-1|-1|3
2021-04-08 19:16:16.912 +0100|17295.85021104167|-0.0828857421875|-0.15655517578125|-0.993194580078125|17295.84522104167|0.0546005388821932|-0.09856187795673592|0.1236154779868601|0.1116352751851082|-0.1238099113106728|0.02557117864489555|0.01833578199148178|0.03519760817289352|-0.02851450443267822|XArbitraryZVertical|-0.06301251443669544|0.04746456989362759|-0.0241700388936671|-0.9965904149473899|-0.09765150398015976|-0.1233008950948715|-0.9875530600547791|0|0|0|-1|-1|3
2021-04-08 19:16:16.932 +0100|17295.87017204167|-0.10662841796875|-0.1174468994140625|-1.007080078125|17295.86518204167|0.05541499868045989|-0.1006571495774775|0.1257659946789142|0.06445124745368958|-0.05799974128603935|0.03385121375322342|0.009315267205238342|-0.03552928566932678|-0.008143842220306396|XArbitraryZVertical|-0.0641288539947733|0.04844986891553733|-0.02445400870592183|-0.9964648823371954|-0.09969360381364822|-0.1254347115755081|-0.9870802164077759|0|0|0|-1|-1|3
2021-04-08 19:16:16.952 +0100|17295.89013304167|-0.08258056640625|-0.098846435546875|-1.00579833984375|17295.88514304167|0.05603003740530012|-0.1010032742556327|0.1274566485518199|0.08536249399185181|0.0233214795589447|0.008774622343480587|-0.005959101021289825|0.01926368474960327|-0.01949924230575562|XArbitraryZVertical|-0.06499018827789108|0.04857629597283376|-0.02470527295298924|-0.9963966901487902|-0.1000137254595757|-0.1271118372678757|-0.9868332147598267|0|0|0|-1|-1|3
2021-04-08 19:16:16.972 +0100|17295.91009304167|-0.060943603515625|-0.1385498046875|-0.95849609375|17295.90510304167|0.05609733486488448|-0.1004953743433139|0.1279549332744558|0.05792372673749924|-0.0640038400888443|0.01761436276137829|0.02966612577438354|0.03327719867229462|-0.02228879928588867|XArbitraryZVertical|-0.06523373524276209|0.04831330809367954|-0.02474237484960171|-0.9963926961119216|-0.09950613230466843|-0.127606064081192|-0.9868207573890686|0|0|0|-1|-1|3
2021-04-08 19:16:16.992 +0100|17295.93005404167|-0.1138763427734375|-0.2070159912109375|-0.964508056640625|17295.92506404167|0.05627704089701115|-0.1014424496518004|0.1258432760955547|-0.1612421721220016|-0.05448010563850403|0.01288405619561672|0.02354765683412552|-0.03842808306217194|0.02571868896484375|XArbitraryZVertical|-0.06419798737996811|0.04881226737168733|-0.02485628937081505|-0.9964328668120278|-0.1004677414894104|-0.1255113929510117|-0.9869919419288635|0|0|0|-1|-1|3
2021-04-08 19:16:17.012 +0100|17295.95001504167|-0.108917236328125|-0.14849853515625|-1.021240234375|17295.94502504167|0.05602305239844887|-0.1012601124527877|0.1214462791120571|-0.2625676393508911|0.01396701950579882|0.01192496437579393|-0.01583835482597351|-0.08019080013036728|0.009583413600921631|XArbitraryZVertical|-0.06199910447799026|0.04879782962693185|-0.02485040735222787|-0.9965728771969719|-0.1003425940871239|-0.1211479604244232|-0.9875497817993164|0|0|0|-1|-1|3
2021-04-08 19:16:17.032 +0100|17295.96997504167|-0.09442138671875|-0.0069427490234375|-1.059417724609375|17295.96498504167|0.05611949173617533|-0.1002667769381584|0.1181893957770789|0.007038175128400326|0.0965004563331604|-0.01685537397861481|-0.01446106284856796|0.005168206989765167|-0.04248130321502686|XArbitraryZVertical|-0.06036638657009415|0.0483503046694654|-0.0250134127686043|-0.9966907713917045|-0.09940054267644882|-0.1179144307971001|-0.9880362749099731|0|0|0|-1|-1|3
2021-04-08 19:16:17.052 +0100|17295.98993604167|-0.0599822998046875|0.00897216796875|-1.019729614257812|17295.98494604167|0.0560308731930779|-0.09908767311759024|0.1225430149289104|0.4247459769248962|-0.04498620331287384|-0.02074172347784042|0.02420862764120102|0.132674515247345|-0.06624621152877808|XArbitraryZVertical|-0.06251867931936723|0.04769809518776736|-0.02489360395726445|-0.996592546454848|-0.0981837660074234|-0.122236542403698|-0.9876326322555542|0|0|0|-1|-1|3
2021-04-08 19:16:17.071 +0100|17296.00989704167|-0.12762451171875|-0.1614990234375|-0.9473114013671875|17296.00490604167|0.05657209137852942|-0.1005823720665333|0.1316921939544863|0.3981014788150787|-0.1158685758709908|-0.02017038874328136|0.02514101564884186|0.1012377738952637|-0.01101428270339966|XArbitraryZVertical|-0.06710771228507273|0.04828240408521906|-0.02487893462261112|-0.9962662729232054|-0.09954340010881424|-0.1313118785619736|-0.9863307476043701|0|0|0|-1|-1|3
2021-04-08 19:16:17.091 +0100|17296.02985704167|-0.153045654296875|-0.162078857421875|-0.9111785888671875|17296.02486704167|0.05698319743147815|-0.1020618828405363|0.1391975941710364|0.2187505811452866|0.007083973847329617|-0.003837132127955556|-0.03826136887073517|-0.03849661350250244|0.05113786458969116|XArbitraryZVertical|-0.07087350855454096|0.04888611529940051|-0.02483593308438253|-0.9959770736300819|-0.1008993163704872|-0.13874851167202|-0.9851741790771484|0|0|0|-1|-1|3
2021-04-08 19:16:17.111 +0100|17296.04981804167|-0.1477203369140625|-0.1562652587890625|-0.9301300048828125|17296.04482804167|0.05766630998355717|-0.1013054801526373|0.1421339793520719|0.09193982183933258|0.0889725536108017|0.03548666089773178|-0.05021765828132629|-0.01915551722049713|0.07247179746627808|XArbitraryZVertical|-0.07234259800575044|0.04843783375778909|-0.02512582991304943|-0.9958861121726116|-0.1001124680042267|-0.1416558921337128|-0.9848406314849854|0|0|0|-1|-1|3
2021-04-08 19:16:17.131 +0100|17296.06977904167|-0.13330078125|-0.0062103271484375|-0.9675140380859375|17296.06478804167|0.05885211494380587|-0.09875175519907683|0.1418875239280855|0.2311112880706787|0.1437074244022369|0.06294411420822144|-0.04787725210189819|0.003793865442276001|0.04424029588699341|XArbitraryZVertical|-0.07221571146177032|0.04712734945057568|-0.02581499787793952|-0.9959405182291715|-0.09760057181119919|-0.1414119154214859|-0.9851278066635132|0|0|0|-1|-1|3
2021-04-08 19:16:17.151 +0100|17296.08973904167|-0.11773681640625|0.1489105224609375|-0.9771270751953125|17296.08474904167|0.06129495417887986|-0.09546339675662609|0.1490988532747914|0.8656921982765198|0.132736399769783|0.08695650845766068|-0.03525619208812714|0.1937140226364136|0.01171582937240601|XArbitraryZVertical|-0.07581863505762848|0.04527902485033122|-0.02697070755609535|-0.995727888395301|-0.09426093846559525|-0.148547038435936|-0.9844027161598206|0|0|0|-1|-1|3
2021-04-08 19:16:17.171 +0100|17296.10970004167|-0.1811065673828125|0.235748291015625|-0.95440673828125|17296.10471004167|0.06627688038398451|-0.0945757227429271|0.1758952960034711|1.929942846298218|0.0929609015583992|0.1469445675611496|-0.02671276777982712|0.3494138717651367|0.01300710439682007|XArbitraryZVertical|-0.08924806980523042|0.04415478109908512|-0.02881775538988015|-0.9946129545515816|-0.09297769516706467|-0.1749896854162216|-0.9801702499389648|0|0|0|-1|-1|3
2021-04-08 19:16:17.191 +0100|17296.12966004167|-0.2438812255859375|0.307586669921875|-0.8920745849609375|17296.12467004167|0.07486844675805404|-0.09265729670561063|0.2295769000813296|3.565944194793701|0.2984814941883087|0.195726215839386|-0.115286648273468|0.4743926525115967|0.01258480548858643|XArbitraryZVertical|-0.1160553254528579|0.04169308148697635|-0.03183858391887055|-0.9918564332079882|-0.09009717404842377|-0.2275655418634415|-0.9695857167243958|0|0|0|-1|-1|3
2021-04-08 19:16:17.211 +0100|17296.14962104167|-0.245513916015625|0.144134521484375|-0.787078857421875|17296.14463104167|0.08737715099688188|-0.08779155031586225|0.3156050282896599|5.110506057739258|0.5203822255134583|0.1999509781599045|-0.1652942299842834|0.6121809482574463|0.07307666540145874|XArbitraryZVertical|-0.1587399178889889|0.03643830197165511|-0.03620111569638015|-0.985983524899165|-0.08334825187921524|-0.3103916645050049|-0.9469477534294128|0|0|0|-1|-1|3
2021-04-08 19:16:17.231 +0100|17296.16958204167|-0.2810211181640625|-0.1879119873046875|-0.658966064453125|17296.16459204167|0.1018546294564577|-0.08004152433206392|0.4292243290031286|6.268704891204834|0.7738448977470398|0.2312245666980743|-0.1742608249187469|0.4883100390434265|0.1670126914978027|XArbitraryZVertical|-0.2145120713100541|0.02820898149613987|-0.04118782155042192|-0.9754447597250606|-0.07270317524671555|-0.4161656200885773|-0.9063776731491089|0|0|0|-1|-1|3
2021-04-08 19:16:17.251 +0100|17296.18954204167|-0.32635498046875|-0.595611572265625|-0.5396270751953125|17296.18455204167|0.1192566544373892|-0.07123453461004443|0.5585366353761615|6.571629047393799|0.9808657765388489|0.2807886302471161|-0.2430481910705566|0.2509243488311768|0.210840106010437|XArbitraryZVertical|-0.2770278241819616|0.01775275500632325|-0.0474494125803359|-0.9595254621433102|-0.06035805493593216|-0.5299457907676697|-0.8458808660507202|0|0|0|-1|-1|3
2021-04-08 19:16:17.271 +0100|17296.20950304167|-0.2224273681640625|-0.891510009765625|-0.525390625|17296.20451304167|0.1376612614266127|-0.05973482352208841|0.6836420942030325|5.937577724456787|1.222890853881836|0.3418416976928711|-0.2626006007194519|-0.09019547700881958|0.2554309964179993|XArbitraryZVertical|-0.336195481830848|0.005024893612594336|-0.0547819305336929|-0.9401842400347522|-0.0462835282087326|-0.6316208243370056|-0.7738946676254272|0|0|0|-1|-1|3
2021-04-08 19:16:17.291 +0100|17296.22946404167|-0.12420654296875|-0.7205352783203125|-0.5149688720703125|17296.22447404167|0.1546360702634209|-0.04799489708480106|0.7945362609965815|5.38327693939209|1.05580735206604|0.3058129549026489|-0.1501947343349457|-0.1616894602775574|0.1851141452789307|XArbitraryZVertical|-0.3873427660710631|-0.007815661636017995|-0.06194908685991771|-0.9198189498313191|-0.03361307457089424|-0.7135387659072876|-0.6998090147972107|0|0|0|-1|-1|3
2021-04-08 19:16:17.311 +0100|17296.24942475|-0.14447021484375|-0.7397308349609375|-0.434356689453125|17296.24443475|0.1678459604999245|-0.038278412928141|0.9004437295201828|5.21393871307373|0.9701281785964966|0.1506612747907639|-0.1013473570346832|0.1021609306335449|0.1265134215354919|XArbitraryZVertical|-0.4349986163179052|-0.01930051491461385|-0.06715870697707936|-0.8977158025858866|-0.0237751342356205|-0.7836026549339294|-0.620807409286499|0|0|0|-1|-1|3
2021-04-08 19:16:17.331 +0100|17296.26938575|-0.0604248046875|-0.9129486083984375|-0.3982086181640625|17296.26439575|0.1800716300955817|-0.02662081709440422|1.002671055622056|4.914968490600586|1.162962794303894|0.1738588362932205|-0.1264562755823135|0.05033957958221436|0.08572840690612793|XArbitraryZVertical|-0.479657470601206|-0.0315838343955297|-0.07247166567994211|-0.8738874551737075|-0.01432171836495399|-0.8429111838340759|-0.5378623604774475|0|0|0|-1|-1|3
2021-04-08 19:16:17.367 +0100|17296.28934675|0.0225982666015625|-1.011627197265625|-0.42840576171875|17296.28435675|0.1942987796179932|-0.0179876663857672|1.091105140472752|4.048580646514893|1.059638619422913|0.4204806089401245|-0.01379415392875671|-0.103325366973877|0.07996004819869995|XArbitraryZVertical|-0.5171686172469191|-0.04267665703968242|-0.07826857564781753|-0.8512281802550515|-0.008300955407321453|-0.8871374726295471|-0.4614306390285492|0|0|0|-1|-1|3
2021-04-08 19:16:17.382 +0100|17296.30930675|0.0386505126953125|-0.73883056640625|-0.4251251220703125|17296.30431675|0.2196891008166414|-0.02026093380670697|1.173027694555947|4.296749114990234|0.9359288811683655|0.4898866415023804|0.04382764548063278|-0.03296703100204468|-0.05926653742790222|XArbitraryZVertical|-0.5510218548605341|-0.05228291843720517|-0.08572530814445854|-0.828427846549464|-0.007847785949707031|-0.9219276309013367|-0.3872828185558319|0|0|0|-1|-1|3
2021-04-08 19:16:17.391 +0100|17296.32926775|-0.0438079833984375|-0.956298828125|-0.311187744140625|17296.32427775|0.2569206958372019|-0.03725790481027723|1.262189310257681|4.685515880584717|0.9134635925292969|0.54716956615448|0.02359679341316223|0.2330464720726013|-0.08548706769943237|XArbitraryZVertical|-0.5869922752839419|-0.06065796441230415|-0.0925131778607772|-0.8019988549871627|-0.01131380535662174|-0.9527575969696045|-0.3035213649272919|0|0|0|-1|-1|3
2021-04-08 19:16:17.411 +0100|17296.34922875|0.0430450439453125|-1.21697998046875|-0.179901123046875|17296.34423775|0.3225530598055539|-0.08269264915176777|1.350500557451397|3.953155994415283|0.7926334142684937|0.5940394401550293|-0.01364350318908691|-0.07561963796615601|-0.05961829423904419|XArbitraryZVertical|-0.6216342392985947|-0.06844541025092067|-0.09972971449878167|-0.773912308669792|-0.0180493202060461|-0.9758328795433044|-0.2177722007036209|0|0|0|-1|-1|3
2021-04-08 19:16:17.431 +0100|17296.36918875|0.0145111083984375|-1.211044311523438|-0.1291351318359375|17296.36419875|0.4123373198966511|-0.1628453056591636|1.409748444768573|2.260061264038086|0.03804045170545578|0.4238314032554626|0.09241874516010284|-0.2441260814666748|0.01162457466125488|XArbitraryZVertical|-0.6447967926569499|-0.07156198079470977|-0.1038279946093592|-0.753880549550226|-0.02599754557013512|-0.9870597720146179|-0.1582319587469101|0|0|0|-1|-1|3
2021-04-08 19:16:17.451 +0100|17296.38914975|-0.0677642822265625|-1.102828979492188|-0.0423583984375|17296.38415975|0.5088840031424489|-0.2605124109867891|1.443928995027823|1.157070755958557|-0.03829506412148476|0.1916073858737946|-0.006304390728473663|-0.1452744007110596|-0.01526951789855957|XArbitraryZVertical|-0.6587015684380526|-0.07058909495007222|-0.1042326006796136|-0.7417985665639284|-0.03259057551622391|-0.9919631481170654|-0.1222588494420052|0|0|0|-1|-1|3
2021-04-08 19:16:17.471 +0100|17296.40911075|0.093963623046875|-1.204681396484375|-0.28179931640625|17296.40411975|0.6230190480755082|-0.3730101515780457|1.461761679606089|1.002347111701965|-0.123455174267292|0.6216473579406738|0.02508357539772987|-0.2299678921699524|-0.03332322090864182|XArbitraryZVertical|-0.6666964211433755|-0.0696249682919165|-0.1064358805736119|-0.7343975375593282|-0.03965603187680244|-0.9940615892410278|-0.1013364940881729|0|0|0|-1|-1|3
2021-04-08 19:16:17.491 +0100|17296.42907075|0.096649169921875|-0.80804443359375|-0.03717041015625|17296.42408075|0.7543340157091039|-0.508405846677022|1.460684782662184|-0.2316350936889648|-0.3343597948551178|0.6688182353973389|0.1576639413833618|-0.06789994239807129|-0.07869283854961395|XArbitraryZVertical|-0.6692949420514601|-0.06363128880947234|-0.1095654492725253|-0.732113903439725|-0.05349250137805939|-0.9939438700675964|-0.09599068015813828|0|0|0|-1|-1|3
2021-04-08 19:16:17.511 +0100|17296.44903175|-0.063629150390625|-1.021774291992188|0.1065521240234375|17296.44404175|0.785200696802547|-0.5480142142690175|1.439317223329649|-1.420659303665161|-0.5075355172157288|0.6521955728530884|0.1393782496452332|0.1838739514350891|0.1087437868118286|XArbitraryZVertical|-0.6641158236948864|-0.05475861951794547|-0.1122030992790726|-0.737131128528516|-0.06830313801765442|-0.9913690686225891|-0.1119033321738243|0|0|0|-1|-1|3
2021-04-08 19:16:17.531 +0100|17296.46899275|-0.104522705078125|-1.407135009765625|0.00677490234375|17296.46400175|0.7130421032094492|-0.4864288967190152|1.398469876113457|-2.784895181655884|-0.34969761967659|0.433124840259552|-0.01160656660795212|-0.1419476866722107|0.2570995092391968|XArbitraryZVertical|-0.6497341127279838|-0.04530577583105705|-0.1139979882290727|-0.750198390388957|-0.08016012609004974|-0.9851884841918945|-0.1515859365463257|0|0|0|-1|-1|3
2021-04-08 19:16:17.551 +0100|17296.48895275|-0.03167724609375|-0.948699951171875|-0.0785369873046875|17296.48396275|0.6227043039886049|-0.403319769563937|1.341632626056885|-3.144673585891724|-0.2445173263549805|0.4015710055828094|0.01785120368003845|-0.3741503953933716|0.1861240267753601|XArbitraryZVertical|-0.6278105366841136|-0.03722219115154228|-0.1165799093450414|-0.7686857229937937|-0.08915586024522781|-0.9738566875457764|-0.208936870098114|0|0|0|-1|-1|3
2021-04-08 19:16:17.570 +0100|17296.50891375|-0.0347442626953125|-0.89190673828125|-0.1431732177734375|17296.50392375|0.5658595788862051|-0.3533933206800197|1.280130601948591|-3.221018552780151|-0.23000468313694|0.5364523530006409|0.05908370763063431|0.04273980855941772|0.1280405819416046|XArbitraryZVertical|-0.6039312199525074|-0.02875849610434459|-0.1196145334200866|-0.7874848973462922|-0.09918414056301117|-0.9580532908439636|-0.2688800692558289|0|0|0|-1|-1|3
2021-04-08 19:16:17.590 +0100|17296.52887475|-0.0655975341796875|-0.8253173828125|-0.3859710693359375|17296.52388375|0.5393345889420926|-0.3319807009872155|1.219935559149427|-2.704083442687988|-0.2317465990781784|0.7761608958244324|0.07841926068067551|0.05618876218795776|0.1338526904582977|XArbitraryZVertical|-0.5806300749666384|-0.01997522636132851|-0.1241372036860633|-0.8044001786436231|-0.1120194345712662|-0.9390771985054016|-0.3249393999576569|0|0|0|-1|-1|3
2021-04-08 19:16:17.610 +0100|17296.54883475|-0.0812225341796875|-0.73858642578125|-0.3605804443359375|17296.54384475|0.5315581850060136|-0.3283385579543392|1.162596606488287|-2.665772199630737|-0.1662852019071579|0.8129658102989197|0.0549173504114151|0.1162778735160828|0.05505722761154175|XArbitraryZVertical|-0.5585819529896944|-0.01049723955519639|-0.1299760820400846|-0.8191350968944521|-0.1280072778463364|-0.9178369641304016|-0.3757520318031311|0|0|0|-1|-1|3
2021-04-08 19:16:17.630 +0100|17296.56879575|-0.170989990234375|-0.72906494140625|-0.385467529296875|17296.56380575|0.5318495017182582|-0.332696560892266|1.109009427103682|-2.434749126434326|-0.2513324618339539|0.898554801940918|0.04884828627109528|0.2170660495758057|0.04524651169776917|XArbitraryZVertical|-0.5379972525675026|-0.0006373992308329801|-0.1362214335012115|-0.8318668148534076|-0.1455130577087402|-0.8952577710151672|-0.4211170971393585|0|0|0|-1|-1|3
2021-04-08 19:16:17.650 +0100|17296.58875675|-0.2860870361328125|-1.194198608398438|-0.43023681640625|17296.58376575|0.5363476138669768|-0.3418890169805793|1.060222538015392|-2.174851655960083|-0.1971630752086639|0.9084473848342896|-0.0361441969871521|0.01540905237197876|0.07387366890907288|XArbitraryZVertical|-0.5193384442243695|0.009495067352352383|-0.1423321593739165|-0.8425788327228927|-0.163837805390358|-0.8724642395973206|-0.4603948593139648|0|0|0|-1|-1|3
2021-04-08 19:16:17.671 +0100|17296.60871675|-0.3745574951171875|-1.171340942382812|-0.433685302734375|17296.60372675|0.5407893544442214|-0.3465642352824305|1.019133780189367|-1.546184778213501|0.0781455785036087|0.6519190669059753|-0.1324799209833145|-0.3912193179130554|0.0397566556930542|XArbitraryZVertical|-0.5032389443753118|0.0166974098264498|-0.148636184968041|-0.8511046695930486|-0.1780215203762054|-0.8516543507575989|-0.4929435253143311|0|0|0|-1|-1|3
2021-04-08 19:16:17.690 +0100|17296.62867775|-0.3453216552734375|-1.134292602539062|-0.4667205810546875|17296.62368775|0.5416387183437077|-0.3436320735426786|0.9934556518868131|-0.8974843621253967|0.2178536653518677|0.2864049673080444|-0.1955106854438782|-0.2920109629631042|0.1045557856559753|XArbitraryZVertical|-0.4926318948842744|0.01922056118499064|-0.1532200026048689|-0.8564275089588407|-0.1838841587305069|-0.8379170894622803|-0.5138887763023376|0|0|0|-1|-1|3
2021-04-08 19:16:17.710 +0100|17296.64863875|-0.2680816650390625|-1.3555908203125|-0.4686431884765625|17296.64364775|0.5370981046510054|-0.3366428437264199|0.973268491433399|-1.217934012413025|0.1111468821763992|0.161658450961113|-0.1227557063102722|-0.3737252354621887|0.0952904224395752|XArbitraryZVertical|-0.4838093844417835|0.02044198788945004|-0.155679450730576|-0.8609731459008884|-0.1858383566141129|-0.8267289996147156|-0.5310212373733521|0|0|0|-1|-1|3
2021-04-08 19:16:17.730 +0100|17296.66859875|-0.29339599609375|-1.103042602539062|-0.519805908203125|17296.66360875|0.5279047209035653|-0.3256155165278041|0.9457087196338883|-1.430694818496704|0.2297797948122025|0.2465589493513107|-0.08849015831947327|-0.5218207240104675|0.07933694124221802|XArbitraryZVertical|-0.471490650874369|0.02205662559568136|-0.1579350702631244|-0.8673330909021365|-0.1871906965970993|-0.8109118342399597|-0.5544201135635376|0|0|0|-1|-1|3
2021-04-08 19:16:17.750 +0100|17296.68855975|-0.2722015380859375|-1.003555297851562|-0.4924163818359375|17296.68356975|0.5198032365559606|-0.3143145438065964|0.917356259676717|-1.360938668251038|0.2425374090671539|0.1465266346931458|-0.101084440946579|-0.2475061416625977|0.07562005519866943|XArbitraryZVertical|-0.4586836275910388|0.02323939771034991|-0.1606133452811276|-0.8736548210572438|-0.1879478543996811|-0.7939972281455994|-0.578138530254364|0|0|0|-1|-1|3
2021-04-08 19:16:17.770 +0100|17296.70851975|-0.2166595458984375|-1.077316284179688|-0.46771240234375|17296.70352975|0.5098039458081299|-0.3013031474528994|0.8927391045565057|-1.24954080581665|0.2350934892892838|0.03506650030612946|-0.07695254683494568|-0.2248839139938354|0.116081178188324|XArbitraryZVertical|-0.4471486077248212|0.02338416048003042|-0.1621726346013342|-0.8793244392331708|-0.1861550658941269|-0.7787928581237793|-0.5990226268768311|0|0|0|-1|-1|3
2021-04-08 19:16:17.790 +0100|17296.72848075|-0.2058258056640625|-1.093597412109375|-0.437042236328125|17296.72349075|0.4960440918404317|-0.2869733371675489|0.864306966497524|-1.605099439620972|0.1801430433988571|-0.05982263758778572|-0.01092463731765747|-0.3516890406608582|0.1854699850082397|XArbitraryZVertical|-0.433714833345332|0.02411529908095558|-0.1625700684003153|-0.8859351169471453|-0.1837472766637802|-0.7606455683708191|-0.6226198077201843|0|0|0|-1|-1|3
2021-04-08 19:16:17.810 +0100|17296.74844175|-0.2029571533203125|-0.72784423828125|-0.49359130859375|17296.74345175|0.4786600492831945|-0.2688380284030623|0.8332027659530168|-1.561578869819641|0.3024164438247681|-0.2178932279348373|-0.04042944312095642|-0.2562634944915771|0.2164670825004578|XArbitraryZVertical|-0.4186259704487725|0.02400030025378245|-0.1621372220717401|-0.8932457475156389|-0.1786260306835175|-0.7400890588760376|-0.6483525633811951|0|0|0|-1|-1|3
2021-04-08 19:16:17.830 +0100|17296.76840175|-0.17218017578125|-0.80206298828125|-0.490020751953125|17296.76341175|0.4623251203630633|-0.2504685598190363|0.8096027705836886|-1.033996343612671|0.3744707703590393|-0.2156088501214981|-0.0161803662776947|0.007049143314361572|0.1455718278884888|XArbitraryZVertical|-0.4066626252023153|0.02223347138324317|-0.1610590955727287|-0.8989946314777469|-0.1709689646959305|-0.7240132093429565|-0.6682623624801636|0|0|0|-1|-1|3
2021-04-08 19:16:17.850 +0100|17296.78836275|-0.16046142578125|-0.67022705078125|-0.455963134765625|17296.78337275|0.4503192498620838|-0.2325951722353026|0.7961100661800318|-0.5287878513336182|0.5215672254562378|-0.2608920037746429|-0.01346276700496674|-0.07840383052825928|0.1701722145080566|XArbitraryZVertical|-0.3991704521203827|0.01830605632829529|-0.1605732625196457|-0.9025210282125283|-0.1612354069948196|-0.7146404981613159|-0.6806556582450867|0|0|0|-1|-1|3
2021-04-08 19:16:17.882 +0100|17296.80832375|-0.1006622314453125|-0.8231201171875|-0.4565277099609375|17296.80333375|0.4391984562007238|-0.2150063933741353|0.7862372285703447|-0.7927446961402893|0.3327091038227081|-0.2461637407541275|-0.00600135326385498|0.04267674684524536|0.2687668800354004|XArbitraryZVertical|-0.3933034181747462|0.01376553964128307|-0.1599448853018746|-0.9052849063721219|-0.1507372111082077|-0.7076998353004456|-0.6902458667755127|0|0|0|-1|-1|3
2021-04-08 19:16:17.890 +0100|17296.82828375|-0.1082611083984375|-0.8642578125|-0.5453033447265625|17296.82329375|0.4270620036845023|-0.2017814590143568|0.7650984237743964|-1.294901132583618|0.2095107883214951|-0.1834865212440491|0.05572521686553955|-0.1921416521072388|0.2375168800354004|XArbitraryZVertical|-0.3827545632499819|0.01261547024885953|-0.1588510486952019|-0.9100034651787586|-0.1445621699094772|-0.6926079988479614|-0.7066795825958252|0|0|0|-1|-1|3
2021-04-08 19:16:17.910 +0100|17296.84824475|-0.0514984130859375|-0.484832763671875|-0.7098541259765625|17296.84325475|0.4169348769446257|-0.1882235940354672|0.7413681308343231|-0.8728520274162292|0.4463977515697479|-0.08497708290815353|0.02403701841831207|-0.08577954769134521|0.1649327874183655|XArbitraryZVertical|-0.3709694101844435|0.01105348165397062|-0.1587453261345633|-0.9149096398825992|-0.1380051970481873|-0.6752976179122925|-0.7245190143585205|0|0|0|-1|-1|3
2021-04-08 19:16:17.930 +0100|17296.86820575|0.0545501708984375|-0.676239013671875|-0.6647186279296875|17296.86321575|0.4150881061018314|-0.1812733076153988|0.7345235528578815|-0.02707049250602722|0.07478057593107224|0.1048443391919136|0.1265024691820145|0.1933513879776001|-0.0006471872329711914|XArbitraryZVertical|-0.3673204620776723|0.008980358828884287|-0.1597246242327372|-0.9162332006610568|-0.1337964534759521|-0.6702336072921753|-0.7299900650978088|0|0|0|-1|-1|3
2021-04-08 19:16:17.950 +0100|17296.88816575|-0.0869903564453125|-0.9000091552734375|-0.4508209228515625|17296.88317575|0.4179497534855351|-0.1832213487979534|0.7268735032048331|-0.795345664024353|0.07855363190174103|0.2948999404907227|0.1813447177410126|-0.04595768451690674|0.1360993981361389|XArbitraryZVertical|-0.3640353447861134|0.01020733315201034|-0.1612795948622391|-0.9172585475249809|-0.1361484676599503|-0.6645365953445435|-0.7347481846809387|0|0|0|-1|-1|3
2021-04-08 19:16:17.970 +0100|17296.90812675|-0.09417724609375|-0.762908935546875|-0.5728912353515625|17296.90313675|0.4238692183312168|-0.1814459304358041|0.7131021032342877|-0.6495291590690613|0.3594251275062561|0.2706973850727081|0.008216708898544312|-0.2596497535705566|0.2392807602882385|XArbitraryZVertical|-0.3576902725879422|0.009880836430757194|-0.1653957601273839|-0.9190236568556026|-0.1364823579788208|-0.6541831493377686|-0.7439200878143311|0|0|0|-1|-1|3
2021-04-08 19:16:17.990 +0100|17296.92808775|-0.0359649658203125|-0.66461181640625|-0.64703369140625|17296.92309775|0.4273397520039405|-0.1776555425112297|0.69950231192558|-0.4890983998775482|0.2936084270477295|0.28194659948349|0.0871712863445282|-0.1128455996513367|0.1782746315002441|XArbitraryZVertical|-0.3512234487180903|0.009070395566086749|-0.1687177404196719|-0.9209203290441742|-0.1352214813232422|-0.6438369750976562|-0.7531196475028992|0|0|0|-1|-1|3
2021-04-08 19:16:18.010 +0100|17296.94804775|-0.1230621337890625|-0.8011932373046875|-0.7676849365234375|17296.94305775|0.4369097830405485|-0.1777307489737867|0.6912385244604287|-0.2010616660118103|0.317959725856781|0.5655762553215027|0.06878530979156494|-0.009022235870361328|0.1118049025535583|XArbitraryZVertical|-0.3475190347202254|0.008384833403091093|-0.1737496621167721|-0.921396471539368|-0.1362141370773315|-0.6374918818473816|-0.7583204507827759|0|0|0|-1|-1|3
2021-04-08 19:16:18.030 +0100|17296.96800875|-0.0915374755859375|-0.7771453857421875|-0.7078399658203125|17296.96301875|0.4538595426446984|-0.1807454550040131|0.6863508766959959|-0.240329846739769|0.462658703327179|0.7357439398765564|-0.004115357995033264|-0.2379237413406372|-0.05713826417922974|XArbitraryZVertical|-0.3456354476941791|0.007413962466242827|-0.1814150874339109|-0.9206355889035112|-0.1390580832958221|-0.6337185502052307|-0.7609623670578003|0|0|0|-1|-1|3
2021-04-08 19:16:18.050 +0100|17296.98796975|-0.2028045654296875|-0.695770263671875|-0.8040008544921875|17296.98297975|0.4705627615202868|-0.1816943521127081|0.6714360795656109|-0.8632684350013733|0.5126335024833679|0.8693159222602844|0.05060610175132751|-0.09511232376098633|0.06647318601608276|XArbitraryZVertical|-0.339017588776855|0.006814726481497574|-0.1901302522844626|-0.9213420905005724|-0.1414723843336105|-0.6221109628677368|-0.770041286945343|0|0|0|-1|-1|3
2021-04-08 19:16:18.070 +0100|17297.00792975|-0.169921875|-0.529632568359375|-0.7941741943359375|17297.00293975|0.4883427141500775|-0.1789070862546257|0.651069335225822|-0.8231768012046814|0.8232571482658386|0.8103334903717041|-0.08411118388175964|-0.08404058218002319|-0.01305210590362549|XArbitraryZVertical|-0.3295507250974763|0.005124802133921824|-0.2004166051325079|-0.922606877477149|-0.1415512263774872|-0.6060373187065125|-0.7827401161193848|0|0|0|-1|-1|3
2021-04-08 19:16:18.090 +0100|17297.02789075|-0.135406494140625|-0.40838623046875|-0.8216705322265625|17297.02290075|0.5047868061154662|-0.1730002782614029|0.637717790485019|-0.1740772575139999|0.736325740814209|0.7728588581085205|-0.008453279733657837|0.1366696953773499|-0.007579147815704346|XArbitraryZVertical|-0.3229029150495161|0.001447421086929731|-0.2100235789052954|-0.9228336048987887|-0.1383059024810791|-0.5953633189201355|-0.7914631962776184|0|0|0|-1|-1|3
2021-04-08 19:16:18.109 +0100|17297.04785175|-0.1714935302734375|-0.6552276611328125|-0.8247222900390625|17297.04286175|0.5245446790909863|-0.1720133288074254|0.6376413543448464|0.3044836521148682|0.5230373740196228|0.7581728100776672|-0.01134765148162842|0.1295586824417114|-0.04432445764541626|XArbitraryZVertical|-0.3227586299134207|-0.002186515145043474|-0.2192952183911898|-0.9207235416265347|-0.137532502412796|-0.5953019261360168|-0.7916441559791565|0|0|0|-1|-1|3
2021-04-08 19:16:18.129 +0100|17297.06781175|-0.190185546875|-0.684112548828125|-0.810302734375|17297.06282175|0.5442710382300932|-0.1753944281696095|0.639106064603189|0.1896720826625824|0.3703511655330658|0.7323184609413147|-0.03422997891902924|-0.1031517386436462|-0.008757650852203369|XArbitraryZVertical|-0.3237687430814757|-0.004022546921569377|-0.2276995610441992|-0.9183195250050118|-0.1400560289621353|-0.5964781641960144|-0.7903152108192444|0|0|0|-1|-1|3
2021-04-08 19:16:18.149 +0100|17297.08777275|-0.2018890380859375|-0.4136962890625|-0.7856597900390625|17297.08278275|0.5600546025059863|-0.1767793844055972|0.6440040657981746|0.6221205592155457|0.393297404050827|0.4088633358478546|-0.04251638054847717|-0.01640290021896362|0.01077562570571899|XArbitraryZVertical|-0.3260955380684571|-0.006648197691517304|-0.2343055997002037|-0.9158157657431114|-0.1406349688768387|-0.600402295589447|-0.7872350215911865|0|0|0|-1|-1|3
2021-04-08 19:16:18.169 +0100|17297.10773375|-0.224822998046875|-0.55029296875|-0.8291778564453125|17297.10274375|0.5715483308262547|-0.1753941999699872|0.6654784102160263|1.607643246650696|0.4638486206531525|0.1352765560150146|-0.07727611064910889|0.2143601179122925|-0.02471822500228882|XArbitraryZVertical|-0.3355177628415101|-0.01230060283429986|-0.2379666405956471|-0.9113992351414113|-0.1372625529766083|-0.6174355149269104|-0.7745530605316162|0|0|0|-1|-1|3
2021-04-08 19:16:18.189 +0100|17297.12769375|-0.2065582275390625|-0.6179962158203125|-0.8868865966796875|17297.12270375|0.5820921371489586|-0.172263141850364|0.7019661864341186|2.135189056396484|0.5225475430488586|0.03672716021537781|-0.0823097825050354|0.01901203393936157|-0.07661592960357666|XArbitraryZVertical|-0.351320848148168|-0.02091193743269838|-0.2401280592874011|-0.9046960645978677|-0.1308860927820206|-0.6457202434539795|-0.7522727251052856|0|0|0|-1|-1|3
2021-04-08 19:16:18.210 +0100|17297.14765475|-0.171234130859375|-0.337066650390625|-0.829193115234375|17297.14266475|0.5942354873188626|-0.1699715090411735|0.7526762071624157|3.015700101852417|0.4735702872276306|-0.001082713715732098|-0.08297694474458694|0.1419539451599121|-0.1944593191146851|XArbitraryZVertical|-0.3732577474037181|-0.03172390591232132|-0.2414647942770401|-0.8951911373848271|-0.1234592944383621|-0.6835944652557373|-0.7193444967269897|0|0|0|-1|-1|3
2021-04-08 19:16:18.229 +0100|17297.16761575|-0.160491943359375|-0.739166259765625|-0.6609954833984375|17297.16262575|0.6076801482101887|-0.1730206376595261|0.810526596316239|2.687209606170654|0.1706297099590302|-0.03498271480202675|-0.04392974078655243|0.3584246635437012|-0.1231136918067932|XArbitraryZVertical|-0.3985511201030485|-0.04174976858239227|-0.2414190838828491|-0.8838160827591494|-0.1186374574899673|-0.7246501445770264|-0.6788279414176941|0|0|0|-1|-1|3
2021-04-08 19:16:18.249 +0100|17297.18757575|-0.2159576416015625|-0.7083892822265625|-0.616790771484375|17297.18258575|0.6185038461502618|-0.178206399224744|0.8534544206751531|1.731687545776367|0.1838301867246628|-0.02718044817447662|-0.05304001271724701|-0.07096755504608154|0.01686078310012817|XArbitraryZVertical|-0.417348844071438|-0.04830436122410667|-0.2408715498171484|-0.8749101563164331|-0.1165309697389603|-0.7535557746887207|-0.6469732522964478|0|0|0|-1|-1|3
2021-04-08 19:16:18.269 +0100|17297.20753675|-0.1776885986328125|-0.531036376953125|-0.6560516357421875|17297.20254675|0.6246285544296772|-0.1774174030725627|0.8813609956042511|1.184283018112183|0.335665225982666|-0.06329113990068436|-0.1018927842378616|0.1539759635925293|0.004549086093902588|XArbitraryZVertical|-0.428944756211863|-0.05429648921065801|-0.2408522720429613|-0.8689352746926904|-0.11226437240839|-0.7716053128242493|-0.6261165738105774|0|0|0|-1|-1|3
2021-04-08 19:16:18.289 +0100|17297.22749775|-0.1840057373046875|-0.6255035400390625|-0.698638916015625|17297.22250775|0.6288682929354608|-0.1741707731290469|0.9032498617571348|0.9125454425811768|0.2621663808822632|-0.03384971618652344|-0.06558884680271149|0.239002525806427|-0.04652523994445801|XArbitraryZVertical|-0.4376605161139144|-0.06004784807292018|-0.2411179113400897|-0.8641237496656721|-0.1072780340909958|-0.7853429317474365|-0.6096950769424438|0|0|0|-1|-1|3
2021-04-08 19:16:18.309 +0100|17297.2474575|-0.2129364013671875|-0.6198883056640625|-0.872711181640625|17297.2424675|0.6357070926099145|-0.1741734746017961|0.9179034020464115|0.8029701113700867|0.3505790829658508|0.08386963605880737|-0.09505874663591385|0.1064488291740417|-0.122545599937439|XArbitraryZVertical|-0.4435925072831441|-0.06385783377567314|-0.2425239581884357|-0.8604243639086655|-0.1052739471197128|-0.7943297028541565|-0.5982957482337952|0|0|0|-1|-1|3
2021-04-08 19:16:18.329 +0100|17297.2674185|-0.058013916015625|-0.6403961181640625|-0.795806884765625|17297.2624285|0.6460145338132857|-0.1780108273307049|0.944866911562856|1.834794163703918|0.09836068004369736|0.1272219121456146|-0.07401178777217865|0.2091927528381348|-0.3147346377372742|XArbitraryZVertical|-0.4549375635230375|-0.06881335431736622|-0.2431748204069844|-0.8539101660825235|-0.1037378758192062|-0.810418963432312|-0.5765930414199829|0|0|0|-1|-1|3
2021-04-08 19:16:18.349 +0100|17297.2873795|-0.0954742431640625|-1.036087036132812|-0.6827850341796875|17297.2823895|0.6637937608155341|-0.1959659253688073|0.9773114949938216|1.304245471954346|-0.3738029599189758|0.2822681963443756|0.0658188983798027|0.09054827690124512|-0.1932880282402039|XArbitraryZVertical|-0.4698362522127624|-0.07056383754314624|-0.2429053126764254|-0.8457373682461542|-0.1088944971561432|-0.8289968371391296|-0.5485492944717407|0|0|0|-1|-1|3
2021-04-08 19:16:18.380 +0100|17297.3073395|-0.0931243896484375|-0.7869415283203125|-0.830718994140625|17297.3023495|0.6780446073011377|-0.2192512243282182|0.992493175908097|0.4565710425376892|-0.7232495546340942|0.206295058131218|0.004765182733535767|-0.203211784362793|-0.1443997621536255|XArbitraryZVertical|-0.4783274293280071|-0.06666015810090141|-0.2415679187101656|-0.8416676511869285|-0.118885725736618|-0.8373913764953613|-0.5335186123847961|0|0|0|-1|-1|3
2021-04-08 19:16:18.389 +0100|17297.3273005|0.05645751953125|-0.4228363037109375|-0.8642578125|17297.3223105|0.6888598589596826|-0.2436889613227457|1.001084443630711|0.5937820076942444|-0.8533921241760254|0.2563424408435822|0.07251368463039398|0.1696935892105103|-0.2978063821792603|XArbitraryZVertical|-0.4843723559594491|-0.0604722648146049|-0.2391375739619732|-0.8393687479177945|-0.1301462054252625|-0.8420563936233521|-0.5234530568122864|0|0|0|-1|-1|3
2021-04-08 19:16:18.409 +0100|17297.3472615|0.05682373046875|-0.638946533203125|-0.889923095703125|17297.3422715|0.7095404835860988|-0.2809889232569999|1.014098530035884|0.8984443545341492|-1.187623262405396|0.5035987496376038|0.2160891741514206|0.4289917349815369|-0.3743415474891663|XArbitraryZVertical|-0.4933966315517342|-0.05223234956597791|-0.2369112680589035|-0.8352871261167117|-0.1465244293212891|-0.8490045666694641|-0.5076630711555481|0|0|0|-1|-1|3
2021-04-08 19:16:18.429 +0100|17297.3672215|0.0073089599609375|-0.71795654296875|-0.6734161376953125|17297.3622315|0.739490271693668|-0.330091753967895|1.029028812379964|0.7120764255523682|-1.104192137718201|0.4663762450218201|0.1884391754865646|0.1644009947776794|-0.3761103451251984|XArbitraryZVertical|-0.5043059717892001|-0.04206120230630243|-0.2349270671986614|-0.8298890121238393|-0.1671379804611206|-0.8567985892295837|-0.4878126978874207|0|0|0|-1|-1|3
2021-04-08 19:16:18.449 +0100|17297.3871825|0.0529632568359375|-0.8100433349609375|-0.6251983642578125|17297.3821925|0.7634306214036576|-0.3749267039157242|1.032622509850168|0.06783680617809296|-1.317520022392273|0.5317090153694153|0.226401150226593|0.1064035296440125|-0.1739166975021362|XArbitraryZVertical|-0.5104920907988996|-0.03026985663983739|-0.2328956364479307|-0.8271888411597556|-0.1877049803733826|-0.8586461544036865|-0.4769631326198578|0|0|0|-1|-1|3
2021-04-08 19:16:18.469 +0100|17297.4071435|-0.059814453125|-0.9271392822265625|-0.621185302734375|17297.4021535|0.7733534056216969|-0.4118486532791422|1.021122469738331|-0.7769147157669067|-1.470167756080627|0.4066475033760071|0.2408759593963623|0.02122879028320312|-0.112277626991272|XArbitraryZVertical|-0.5103006342694799|-0.0151646135195429|-0.2295266831748459|-0.8286620903301537|-0.2091225385665894|-0.8526949286460876|-0.4787265956401825|0|0|0|-1|-1|3
2021-04-08 19:16:18.489 +0100|17297.4271035|-0.0359039306640625|-0.650115966796875|-0.736541748046875|17297.4221135|0.770495755660204|-0.4374167150979208|0.9994992807052175|-1.12147581577301|-1.364583134651184|0.3212252259254456|0.1570293754339218|-0.04405307769775391|-0.1680389642715454|XArbitraryZVertical|-0.5050668163703934|0.0006860167970953888|-0.225621671400802|-0.8330678959499589|-0.2290510386228561|-0.8412003517150879|-0.4898140728473663|0|0|0|-1|-1|3
2021-04-08 19:16:18.509 +0100|17297.4470645|-0.0608367919921875|-0.695526123046875|-0.7322235107421875|17297.4420745|0.7674904899616874|-0.4620180642752485|0.9834853667019995|-0.2990157306194305|-1.365852355957031|0.2449822723865509|0.2228035181760788|0.2311158180236816|-0.2370819449424744|XArbitraryZVertical|-0.5017560554277162|0.0150714890575163|-0.221023566151974|-0.8361593741556412|-0.2470041662454605|-0.8324337601661682|-0.496027410030365|0|0|0|-1|-1|3
2021-04-08 19:16:18.529 +0100|17297.4670255|-0.1705780029296875|-0.880645751953125|-0.6890106201171875|17297.4620355|0.7731402752879356|-0.4905205403470066|0.980278768897886|0.1549052149057388|-0.8910567760467529|0.1149667501449585|0.1676455438137054|0.05504888296127319|-0.2211576700210571|XArbitraryZVertical|-0.5037278749371447|0.02624669505972153|-0.2168055080624943|-0.835801944652567|-0.2622960209846497|-0.8306525945663452|-0.4911386668682098|0|0|0|-1|-1|3
2021-04-08 19:16:18.549 +0100|17297.4869855|-0.0571136474609375|-0.767730712890625|-0.6833038330078125|17297.4819955|0.7805654898577116|-0.5111036240747701|0.9834253917667959|0.1346021443605423|-0.6478790640830994|0.1044971570372581|0.1202662289142609|-0.01095223426818848|-0.250548779964447|XArbitraryZVertical|-0.507228454769433|0.03228416021472214|-0.2141129744664746|-0.8341659681712825|-0.2710690796375275|-0.8324005007743835|-0.4833540618419647|0|0|0|-1|-1|3
2021-04-08 19:16:18.569 +0100|17297.5069465|-0.1562957763671875|-0.7689361572265625|-0.6433258056640625|17297.5019565|0.7812944932815652|-0.5244892254504203|0.9804061800518625|-0.4269794225692749|-0.5374364852905273|0.04752973839640617|0.2198269367218018|0.02907305955886841|-0.1952386498451233|XArbitraryZVertical|-0.5075451921196973|0.03834113509431252|-0.2115982759305752|-0.8343585977567914|-0.2787718772888184|-0.8307235240936279|-0.4818556606769562|0|0|0|-1|-1|3
2021-04-08 19:16:18.589 +0100|17297.5269075|-0.179931640625|-0.571807861328125|-0.668060302734375|17297.5219175|0.7693564149188302|-0.5216342274446321|0.9709646790977793|-0.6006662249565125|-0.209090456366539|-0.1737890541553497|0.1049143075942993|0.1074287891387939|-0.1624281406402588|XArbitraryZVertical|-0.5034913752188913|0.0422179500834072|-0.2091371967317023|-0.8372430899851753|-0.2812909185886383|-0.825430691242218|-0.4894281625747681|0|0|0|-1|-1|3
2021-04-08 19:16:18.608 +0100|17297.5468685|-0.2230072021484375|-0.4970550537109375|-0.6623077392578125|17297.5418775|0.754052020614379|-0.5112369899894926|0.9701016483732239|0.2325370311737061|-0.003466138150542974|-0.5132850408554077|0.09097310900688171|0.2805253267288208|-0.1798897981643677|XArbitraryZVertical|-0.5017683178118203|0.04189143781591169|-0.2054987573050225|-0.8391925294854662|-0.2765354812145233|-0.8249431848526001|-0.4929473400115967|0|0|0|-1|-1|3
2021-04-08 19:16:18.628 +0100|17297.5668285|-0.3219451904296875|-0.698760986328125|-0.6469268798828125|17297.5618385|0.7481223062756239|-0.5030561892279538|0.9904835022997477|1.198647856712341|0.3262357711791992|-0.8042703866958618|0.01135575771331787|0.3202088475227356|-0.1783165335655212|XArbitraryZVertical|-0.5084770011753437|0.03565009195605247|-0.2012791860906468|-0.8364610539892092|-0.2643314898014069|-0.8362911939620972|-0.4803604185581207|0|0|0|-1|-1|3
2021-04-08 19:16:18.648 +0100|17297.5867895|-0.1809539794921875|-1.206588745117188|-0.59619140625|17297.5817995|0.7349458231427222|-0.4854804971269521|1.015712726746374|0.4983961284160614|0.2343331575393677|-0.958396315574646|-0.0533483624458313|0.03198575973510742|-0.1694567799568176|XArbitraryZVertical|-0.515987309866866|0.02641797114296732|-0.1956265652440052|-0.833540362598478|-0.2459225356578827|-0.8498563766479492|-0.4661183655261993|0|0|0|-1|-1|3
2021-04-08 19:16:18.668 +0100|17297.6067505|-0.254058837890625|-1.147933959960938|-0.4478607177734375|17297.6017595|0.7010116716914054|-0.4564774737742104|1.014306497951835|-1.541988015174866|-0.1521332263946533|-0.5881592631340027|0.05468209087848663|-0.4253296256065369|-0.08951911330223083|XArbitraryZVertical|-0.5122437202657575|0.02330942481790948|-0.1891568957421271|-0.8374262923642544|-0.2328287214040756|-0.8491144180297852|-0.4741260707378387|0|0|0|-1|-1|3
2021-04-08 19:16:18.688 +0100|17297.6267105|-0.244171142578125|-0.7269287109375|-0.411651611328125|17297.6217205|0.6452454214920883|-0.4138794413214117|0.9783376377459893|-2.6224205493927|-0.2205444425344467|-0.6972729563713074|-0.03852275013923645|-0.2059822678565979|0.09305685758590698|XArbitraryZVertical|-0.4936450354654172|0.0262091951895535|-0.1823350383244126|-0.8499305159339983|-0.22456955909729|-0.8295702338218689|-0.5112553238868713|0|0|0|-1|-1|3
2021-04-08 19:16:18.708 +0100|17297.6466715|-0.22393798828125|-0.7448883056640625|-0.570343017578125|17297.6416815|0.5908400085587305|-0.3738511813201703|0.9390000106964804|-2.174296379089355|-0.2686784267425537|-0.6915330290794373|-0.0241352766752243|0.1291576623916626|0.09939199686050415|XArbitraryZVertical|-0.4735515557774586|0.02912110581335182|-0.1746770978382119|-0.8627798658308026|-0.2156874239444733|-0.8069679141044617|-0.549801766872406|0|0|0|-1|-1|3
2021-04-08 19:16:18.728 +0100|17297.6666325|-0.237457275390625|-0.8600311279296875|-0.679290771484375|17297.6616415|0.5491579439149334|-0.3474726520523616|0.9081037025543531|-1.572801113128662|-0.371620774269104|-0.5782070159912109|-0.006499975919723511|-0.03093582391738892|-0.03162014484405518|XArbitraryZVertical|-0.457945688750442|0.03239394505049342|-0.1670211110057525|-0.8725482534296034|-0.2095037549734116|-0.7883384823799133|-0.5784727334976196|0|0|0|-1|-1|3
2021-04-08 19:16:18.748 +0100|17297.6865925|-0.3061065673828125|-0.62158203125|-0.739349365234375|17297.6816025|0.5207294849883235|-0.3315232003563324|0.8906922242214613|-0.4637992084026337|-0.2085659205913544|-0.5127579569816589|-0.05036273598670959|-0.01436227560043335|-0.08759081363677979|XArbitraryZVertical|-0.4488801894374401|0.03451611727079613|-0.1604559637998712|-0.8783901671853681|-0.204688236117363|-0.7775072455406189|-0.5946304202079773|0|0|0|-1|-1|3
2021-04-08 19:16:18.768 +0100|17297.7065535|-0.2685394287109375|-0.863006591796875|-0.7292633056640625|17297.7015635|0.5077771241051964|-0.3234532813331115|0.8972302706398406|0.7044119834899902|-0.02632985450327396|-0.4990756511688232|-0.1105141639709473|0.1530932784080505|-0.159485936164856|XArbitraryZVertical|-0.4507781508855752|0.03292271650798464|-0.1557633031744883|-0.8783239786950402|-0.1982630044221878|-0.7816022038459778|-0.5914303064346313|0|0|0|-1|-1|3
2021-04-08 19:16:18.788 +0100|17297.7265145|-0.209259033203125|-0.9886322021484375|-0.616455078125|17297.7215235|0.5004661125338603|-0.3186456624260124|0.91450452873193|0.6514877676963806|-0.08493074774742126|-0.4538344740867615|-0.05784986913204193|-0.1445371508598328|-0.1147018074989319|XArbitraryZVertical|-0.4575673044868687|0.02997779679126197|-0.1515165699994044|-0.8756576507190671|-0.1911586374044418|-0.7922603487968445|-0.5794669985771179|0|0|0|-1|-1|3
2021-04-08 19:16:18.808 +0100|17297.7464745|-0.1900634765625|-0.841888427734375|-0.513641357421875|17297.7414845|0.4902206208529868|-0.3135457748717128|0.9239821764977475|0.01465651299804449|-0.2167895436286926|-0.4528405666351318|-0.02002587914466858|-0.1564746499061584|-0.01738756895065308|XArbitraryZVertical|-0.4610212527415047|0.02875009417982391|-0.147047573140656|-0.8746484534045653|-0.1858765631914139|-0.7980077862739563|-0.5732656717300415|0|0|0|-1|-1|3
2021-04-08 19:16:18.828 +0100|17297.7664355|-0.1860198974609375|-0.7799072265625|-0.449615478515625|17297.7614455|0.4737737310977815|-0.3047981008033394|0.9229688837721262|-0.3386471271514893|-0.180890828371048|-0.4769487380981445|-0.004327788949012756|-0.02816426753997803|0.06907880306243896|XArbitraryZVertical|-0.459725360842332|0.02884776561905754|-0.141983337735421|-0.8761628065570178|-0.1810973584651947|-0.797396719455719|-0.5756407976150513|0|0|0|-1|-1|3
2021-04-08 19:16:18.848 +0100|17297.7863965|-0.1768798828125|-0.704315185546875|-0.444549560546875|17297.7814055|0.4538187710993568|-0.2918937997501378|0.9190122377746101|-0.4077005982398987|-0.1005653664469719|-0.5813782215118408|-0.01776131987571716|0.04237890243530273|0.1274548768997192|XArbitraryZVertical|-0.4568657279957686|0.02828955009535691|-0.1366427460350379|-0.8785228352358337|-0.1745608001947403|-0.795002818107605|-0.5809468030929565|0|0|0|-1|-1|3
2021-04-08 19:16:18.880 +0100|17297.8063565|-0.1395721435546875|-0.70855712890625|-0.440338134765625|17297.8013665|0.4299442811259808|-0.2746893242632791|0.9130081329979196|-0.5775598287582397|-0.08021370321512222|-0.6355516314506531|0.002746045589447021|0.0702318549156189|0.146964430809021|XArbitraryZVertical|-0.4528263542444641|0.0269157501362934|-0.1307089513094039|-0.8815549770438323|-0.1658323407173157|-0.7913463711738586|-0.5884476900100708|0|0|0|-1|-1|3
2021-04-08 19:16:18.888 +0100|17297.8263175|-0.1453094482421875|-0.630126953125|-0.429473876953125|17297.8213275|0.4049128116608784|-0.2567304839727758|0.9045181317684892|-0.6784036755561829|-0.05561759695410728|-0.6281123757362366|0.02061627805233002|0.109492301940918|0.1416912078857422|XArbitraryZVertical|-0.4477036677826279|0.02564408525223488|-0.1245734490069873|-0.8850905430611441|-0.1569386571645737|-0.7861274480819702|-0.5978075861930847|0|0|0|-1|-1|3
2021-04-08 19:16:18.908 +0100|17297.8462785|-0.152191162109375|-0.6149139404296875|-0.5251312255859375|17297.8412875|0.379051869742893|-0.2351320417340902|0.8935592954969535|-0.5379725098609924|0.2100013494491577|-0.6157563328742981|-0.001090109348297119|0.1436417698860168|0.1882255673408508|XArbitraryZVertical|-0.4413263074012118|0.02305188483791441|-0.1189568511313612|-0.8891283276103416|-0.1459897458553314|-0.7793070673942566|-0.6093993782997131|0|0|0|-1|-1|3
2021-04-08 19:16:18.928 +0100|17297.8662385|-0.141448974609375|-0.571136474609375|-0.4654541015625|17297.8612485|0.3606948039200413|-0.2156947692510774|0.8929795622348463|0.080850750207901|0.2788510918617249|-0.5410568714141846|-0.0152762234210968|0.2234175205230713|0.07722282409667969|XArbitraryZVertical|-0.4397453260664331|0.01850895365879959|-0.115122627523115|-0.8905214223427765|-0.1342145204544067|-0.778943657875061|-0.6125629544258118|0|0|0|-1|-1|3
2021-04-08 19:16:18.948 +0100|17297.8861995|-0.2091827392578125|-1.0096435546875|-0.4510498046875|17297.8812095|0.3465620921372589|-0.1980116841749511|0.8969465683061597|-0.1582094430923462|0.3762779533863068|-0.3645371794700623|-0.03143719583749771|0.09525328874588013|0.1514779925346375|XArbitraryZVertical|-0.440362343869639|0.01334418163901957|-0.1123881751796904|-0.8906582098993258|-0.1227532476186752|-0.7814252376556396|-0.6118058562278748|0|0|0|-1|-1|3
2021-04-08 19:16:18.968 +0100|17297.9061605|-0.1992034912109375|-0.9487152099609375|-0.5809173583984375|17297.9011705|0.332848628171325|-0.1775285977925654|0.8849855766317807|-1.052689790725708|0.5599284768104553|-0.3010995984077454|-0.1147692948579788|-0.2667582631111145|0.1502324938774109|XArbitraryZVertical|-0.4338855453483756|0.008348980050860806|-0.1116788875888108|-0.8939807638304623|-0.1118393689393997|-0.773905873298645|-0.623347282409668|0|0|0|-1|-1|3
2021-04-08 19:16:18.988 +0100|17297.9261205|-0.1694488525390625|-0.7280120849609375|-0.642181396484375|17297.9211305|0.3214014672775172|-0.1588826079497955|0.8686430983151601|-0.5703667998313904|0.3848256766796112|-0.1328836232423782|-0.08142414689064026|-0.1243177056312561|0.03198415040969849|XArbitraryZVertical|-0.4255823221994354|0.003943263918924142|-0.1117330590967252|-0.8979866096906539|-0.1021852269768715|-0.7634532451629639|-0.6377282738685608|0|0|0|-1|-1|3
2021-04-08 19:16:19.008 +0100|17297.9460815|-0.23828125|-0.8995819091796875|-0.5391845703125|17297.9410915|0.3181230281374607|-0.1507938654304376|0.8624757009449879|-0.2767156660556793|0.2394320964813232|0.06012960150837898|-0.08079919219017029|0.0248827338218689|0.01710808277130127|XArbitraryZVertical|-0.4223850519197921|0.001546670241047233|-0.1123936532273651|-0.8994200282922109|-0.09772901237010956|-0.7594555020332336|-0.6431769728660583|0|0|0|-1|-1|3
2021-04-08 19:16:19.028 +0100|17297.9660425|-0.247894287109375|-0.9454803466796875|-0.602142333984375|17297.9610525|0.3185220164620944|-0.1470287228860356|0.8531104921135572|-0.4131067991256714|0.2354628145694733|-0.07896269112825394|-0.1624907553195953|-0.2090873718261719|0.06380075216293335|XArbitraryZVertical|-0.4180021531633234|0.0005839596012164439|-0.1139848630679975|-0.9012666073991823|-0.09634444117546082|-0.7533296346664429|-0.6505477428436279|0|0|0|-1|-1|3
2021-04-08 19:16:19.048 +0100|17297.9860025|-0.1585693359375|-0.7153472900390625|-0.690582275390625|17297.9810125|0.3178417672695665|-0.1417773768187316|0.8454707431902001|-0.3017598092556|0.182291105389595|0.08661571890115738|-0.1193061769008636|-0.09744954109191895|0.08402955532073975|XArbitraryZVertical|-0.4142915238567675|-0.0009809001189183323|-0.1152673075271198|-0.9028151697079335|-0.09373739361763|-0.7482835054397583|-0.6567231416702271|0|0|0|-1|-1|3
2021-04-08 19:16:19.068 +0100|17298.0059635|-0.162567138671875|-1.013076782226562|-0.634765625|17298.0009735|0.3224432783984119|-0.1457721867837301|0.8431893626175853|0.1492473781108856|-0.1585823744535446|0.2671975493431091|-0.04096577316522598|-0.07734322547912598|-0.07167583703994751|XArbitraryZVertical|-0.4135029145163047|6.884359947183458e-05|-0.116666046173929|-0.9029974726750846|-0.09660783410072327|-0.7467681169509888|-0.6580306887626648|0|0|0|-1|-1|3
2021-04-08 19:16:19.088 +0100|17298.0259245|-0.1485595703125|-0.81915283203125|-0.576141357421875|17298.0209345|0.3309858287081865|-0.156027016364319|0.8417250844822592|-0.1642132699489594|-0.2342996746301651|0.2468463182449341|-0.08552104234695435|-0.2007086277008057|0.06593644618988037|XArbitraryZVertical|-0.4134587452162961|0.003062873521254398|-0.1185006818262804|-0.9027736805714699|-0.1035204529762268|-0.7457934617996216|-0.6580849885940552|0|0|0|-1|-1|3
2021-04-08 19:16:19.107 +0100|17298.0458845|-0.0983428955078125|-0.8237457275390625|-0.5680999755859375|17298.0408945|0.3365559794187767|-0.1647450946373939|0.8354143476770097|-0.4140192866325378|-0.2456935793161392|0.248475193977356|-0.01122333109378815|-0.09202772378921509|0.07767993211746216|XArbitraryZVertical|-0.4111752659230009|0.006430347099898484|-0.119659257534347|-0.9036456125954411|-0.1100233644247055|-0.7415745258331299|-0.6617870926856995|0|0|0|-1|-1|3
2021-04-08 19:16:19.128 +0100|17298.0658455|-0.0825958251953125|-0.8077850341796875|-0.5079803466796875|17298.0608555|0.3425429681180702|-0.1750768562493599|0.8271009526058124|-0.2707267105579376|-0.3171675503253937|0.2855653762817383|0.02684451639652252|-0.04523181915283203|0.07314109802246094|XArbitraryZVertical|-0.4081114887577523|0.01065586754449065|-0.1208505327131756|-0.9048352361538324|-0.1179245933890343|-0.7359717488288879|-0.6666629314422607|0|0|0|-1|-1|3
2021-04-08 19:16:19.147 +0100|17298.0858065|-0.04339599609375|-0.6857757568359375|-0.40582275390625|17298.0808165|0.3513189185500799|-0.189091631081085|0.8231417942329264|-0.1301204264163971|-0.3743007183074951|0.2541581094264984|0.05759648978710175|-0.09203112125396729|0.1919096708297729|XArbitraryZVertical|-0.4072544388433336|0.01559075442622977|-0.1222632717339365|-0.9049600192432424|-0.1278025358915329|-0.7332856059074402|-0.6678014993667603|0|0|0|-1|-1|3
2021-04-08 19:16:19.167 +0100|17298.1057675|-0.0263214111328125|-0.555572509765625|-0.376068115234375|17298.1007765|0.3575807408585294|-0.2012633231082259|0.8257888400218897|0.3607118427753448|-0.3681061565876007|0.1520423889160156|0.1048468500375748|0.09648787975311279|0.2575533390045166|XArbitraryZVertical|-0.4092328238235608|0.01955340621278197|-0.1224012324273567|-0.9039714137102994|-0.1355326473712921|-0.7350828051567078|-0.6642923355102539|0|0|0|-1|-1|3
2021-04-08 19:16:19.187 +0100|17298.1257275|-0.1478271484375|-0.6297760009765625|-0.5192718505859375|17298.1207375|0.3671174025970406|-0.2118923445813451|0.8391761027495001|1.137534737586975|0.07488065212965012|0.2677070200443268|0.08544924855232239|0.1980120539665222|0.2845425009727478|XArbitraryZVertical|-0.4159222531452407|0.02100999291800576|-0.123405384405275|-0.900743388157754|-0.140503317117691|-0.7440929412841797|-0.6531345248222351|0|0|0|-1|-1|3
2021-04-08 19:16:19.207 +0100|17298.1456885|-0.03216552734375|-0.65582275390625|-0.4357452392578125|17298.1406985|0.3858990549544824|-0.2211182053266973|0.8621969159251577|1.303048849105835|0.2743058204650879|0.395563542842865|0.004635199904441833|0.08996313810348511|0.0991746187210083|XArbitraryZVertical|-0.4268319179612668|0.01874007093459694|-0.1278971573099889|-0.8950451625273078|-0.1427275985479355|-0.7592740654945374|-0.6349266767501831|0|0|0|-1|-1|3
2021-04-08 19:16:19.227 +0100|17298.1656495|-0.13482666015625|-0.8764495849609375|-0.3358306884765625|17298.1606585|0.4092210238743781|-0.2372304030744558|0.8762928016656996|0.2734991312026978|-0.03822028636932373|0.7016764283180237|0.1299612075090408|0.0855412483215332|0.212380051612854|XArbitraryZVertical|-0.4342658812247282|0.01932554671412005|-0.1335412918751531|-0.8906214980173897|-0.1504083424806595|-0.7683715224266052|-0.6220793128013611|0|0|0|-1|-1|3
2021-04-08 19:16:19.247 +0100|17298.1856095|-0.197998046875|-0.739013671875|-0.2944488525390625|17298.1806195|0.4286044065928551|-0.2509609841105937|0.8670016932704491|-0.7214698791503906|0.1904420852661133|0.7810970544815063|-0.00711512565612793|-0.1582768559455872|0.3129853010177612|XArbitraryZVertical|-0.4313681681334735|0.02234910312293248|-0.1401094629468243|-0.8909497906950291|-0.1607013791799545|-0.7623921036720276|-0.626844048500061|0|0|0|-1|-1|3
2021-04-08 19:16:19.267 +0100|17298.2055705|-0.1840057373046875|-0.383941650390625|-0.5430908203125|17298.2005805|0.4498035795859586|-0.2625450571088312|0.8428829058512586|-1.13495135307312|0.147347554564476|1.118456721305847|-0.03151850402355194|0.126310408115387|0.3155792355537415|XArbitraryZVertical|-0.4219799657097388|0.02599101466621735|-0.1495485243179688|-0.8938079440380177|-0.1726749092340469|-0.7465642690658569|-0.6425147652626038|0|0|0|-1|-1|3
2021-04-08 19:16:19.287 +0100|17298.2255315|-0.32598876953125|-0.014404296875|-0.63458251953125|17298.2205405|0.4808725426296128|-0.2875339840709814|0.8187890551954348|-0.4024854898452759|-0.3496443033218384|1.59162712097168|0.008494198322296143|0.4214971661567688|0.07376253604888916|XArbitraryZVertical|-0.4139126240247845|0.03384252626035417|-0.1608048490624618|-0.8953619716619775|-0.1937209367752075|-0.7303191423416138|-0.6550620198249817|0|0|0|-1|-1|3
2021-04-08 19:16:19.307 +0100|17298.245491625|-0.7100067138671875|-0.1961212158203125|-0.227630615234375|17298.2405015|0.5342731275755757|-0.3302878885621142|0.8233440602115127|2.434571981430054|0.1591278910636902|1.591397166252136|-0.1725144982337952|0.7793833017349243|0.1091548204421997|XArbitraryZVertical|-0.4204682019427859|0.04112716711006797|-0.1751774595035967|-0.8892851207457536|-0.2204606533050537|-0.733423113822937|-0.6430301070213318|0|0|0|-1|-1|3
2021-04-08 19:16:19.328 +0100|17298.265452625|-0.9733428955078125|-1.830963134765625|0.793243408203125|17298.260462625|0.6104470588406786|-0.3867650879870297|0.8468930479667311|0.1518907248973846|-0.1097014471888542|2.381898164749146|-0.5243947505950928|0.2838185429573059|0.6102935075759888|XArbitraryZVertical|-0.4372580010598077|0.04592991146097182|-0.193540722732481|-0.8770621246643659|-0.2498212307691574|-0.7492262721061707|-0.6133917570114136|0|0|0|-1|-1|3
2021-04-08 19:16:19.347 +0100|17298.285413625|-1.151138305664062|-0.8058013916015625|0.4874420166015625|17298.280423625|0.6604622452491249|-0.4178462070634202|0.7871469821185436|-3.752273559570312|1.125578761100769|3.048523187637329|-0.8004928231239319|-1.461761951446533|1.41888165473938|XArbitraryZVertical|-0.4169936284476763|0.05955188001714322|-0.2177171793878037|-0.8804369964354665|-0.2864367067813873|-0.7083423137664795|-0.645139753818512|0|0|0|-1|-1|3
2021-04-08 19:16:19.380 +0100|17298.305373625|-0.5628814697265625|1.235610961914062|0.0958251953125|17298.300383625|0.6942065684492443|-0.410947901409407|0.7000322670685366|-2.410599946975708|1.092006325721741|2.878643035888672|-0.6689577102661133|0.6661547422409058|1.058397769927979|XArbitraryZVertical|-0.3808771387540881|0.06603328904119021|-0.2470352019779974|-0.8885640420988044|-0.3055297434329987|-0.6442423462867737|-0.7011443972587585|0|0|0|-1|-1|3
2021-04-08 19:16:19.387 +0100|17298.325334625|-1.501495361328125|0.1797943115234375|0.7360382080078125|17298.320344625|0.7640297740560884|-0.449700172199042|0.6577023953834363|0.2337670922279358|0.1081098765134811|3.716086864471436|-0.3282390236854553|1.739673137664795|0.8427202701568604|XArbitraryZVertical|-0.370795841970732|0.07843750791632928|-0.277117488256415|-0.8829292048324229|-0.3440175652503967|-0.6113001704216003|-0.7127159833908081|0|0|0|-1|-1|3
2021-04-08 19:16:19.407 +0100|17298.345295625|-1.730926513671875|-0.3857574462890625|0.4576873779296875|17298.340305625|0.8539961282588888|-0.4906531881351978|0.6264240417031869|0.3716931045055389|0.7604666352272034|4.157782554626465|-1.286234259605408|0.5059757828712463|1.485122561454773|XArbitraryZVertical|-0.3677439671612046|0.0865286384286289|-0.3140809053221687|-0.8709939087884707|-0.3817345499992371|-0.5862514972686768|-0.7145543098449707|0|0|0|-1|-1|3
2021-04-08 19:16:19.427 +0100|17298.365255625|-1.942657470703125|-1.216232299804688|0.285858154296875|17298.360265625|0.9483895477823072|-0.5326130090841802|0.5903929949342203|0.2538924813270569|0.4629999995231628|4.501345634460449|-1.314804077148438|0.05079841613769531|1.20208728313446|XArbitraryZVertical|-0.364674563137965|0.09584330178587372|-0.3533555858423215|-0.856134661749488|-0.4218291342258453|-0.5566875338554382|-0.7156530618667603|0|0|0|-1|-1|3
2021-04-08 19:16:19.447 +0100|17298.385216625|-1.910354614257812|-1.371978759765625|0.01519775390625|17298.380226625|1.046859484443267|-0.5780693579554315|0.5435168571752956|0.1701756715774536|0.2524027526378632|5.028872013092041|-1.531172156333923|-0.8533486127853394|0.92649906873703|XArbitraryZVertical|-0.3600856769551256|0.1091969597413936|-0.3952710474750579|-0.8379589592368081|-0.4676680266857147|-0.5171492695808411|-0.7168286442756653|0|0|0|-1|-1|3
2021-04-08 19:16:19.467 +0100|17298.405177625|-1.902801513671875|-1.296905517578125|-0.1275177001953125|17298.400187625|1.158874812509121|-0.6342054745589197|0.4950079204572451|1.476789832115173|-0.3424011766910553|5.772975444793701|-1.333400011062622|-0.8379489183425903|0.6504228115081787|XArbitraryZVertical|-0.3603080482657028|0.1255125594425517|-0.4404792033382963|-0.8126517964471858|-0.5214124321937561|-0.47503861784935|-0.7088494300842285|0|0|0|-1|-1|3
2021-04-08 19:16:19.487 +0100|17298.425138625|-2.041763305664062|-1.883529663085938|-0.2934417724609375|17298.420147625|1.294588297044145|-0.7057392487480875|0.4547629157371972|2.751589298248291|-0.5651376247406006|6.182019710540771|-1.376047968864441|-0.9763994216918945|0.5296450853347778|XArbitraryZVertical|-0.3717853754841174|0.1410256065348943|-0.4891618313177479|-0.7762785519230164|-0.5826767086982727|-0.4392493367195129|-0.6837748289108276|0|0|0|-1|-1|3
2021-04-08 19:16:19.507 +0100|17298.445098625|-1.91375732421875|-1.927825927734375|-0.453033447265625|17298.440108625|1.44141600367233|-0.7774440097020618|0.4153890522551119|3.256755352020264|-0.3573647141456604|6.227232933044434|-1.394416570663452|-1.57611346244812|0.3206322193145752|XArbitraryZVertical|-0.3881080434497102|0.152716483829549|-0.5388397321566392|-0.7319164804811978|-0.641807496547699|-0.4035459160804749|-0.6520996689796448|0|0|0|-1|-1|3
2021-04-08 19:16:19.527 +0100|17298.465059625|-1.618301391601562|-1.580230712890625|-0.5746002197265625|17298.460069625|1.583471508538858|-0.8359329679034263|0.3731009475452611|3.267903566360474|-0.03779385983943939|5.877245903015137|-1.151130795478821|-1.459469318389893|0.1281713843345642|XArbitraryZVertical|-0.4029142790669674|0.1596289157644732|-0.5861411946931127|-0.6845562224390563|-0.690879225730896|-0.3645047843456268|-0.6243574023246765|0|0|0|-1|-1|3
2021-04-08 19:16:19.547 +0100|17298.485020625|-1.478744506835938|-1.612579345703125|-0.5157470703125|17298.480029625|1.711761812294911|-0.8773765673557454|0.3284041939586798|2.806922674179077|0.3217400908470154|5.397128105163574|-0.8357861042022705|-1.229499220848083|0.02620011568069458|XArbitraryZVertical|-0.4134498626350704|0.1629506546755054|-0.6289312521527142|-0.6379279358704534|-0.7279646396636963|-0.3225329220294952|-0.6050125956535339|0|0|0|-1|-1|3
2021-04-08 19:16:19.567 +0100|17298.504980625|-1.18499755859375|-1.6947021484375|-0.588348388671875|17298.499990625|1.816703021602571|-0.8966728905817389|0.2788653581483128|1.929816484451294|0.8887113928794861|4.742366313934326|-0.6951084136962891|-1.408267498016357|0.09242242574691772|XArbitraryZVertical|-0.4154996607951076|0.1652598483625159|-0.6666151937508706|-0.5963837225602799|-0.7510733604431152|-0.2752650082111359|-0.6000984311103821|0|0|0|-1|-1|3
2021-04-08 19:16:19.587 +0100|17298.524941625|-0.77850341796875|-1.42156982421875|-0.818450927734375|17298.519951625|1.902366225780408|-0.8977271715405442|0.2311177243134401|1.721603035926819|1.134698987007141|4.207542896270752|-0.3084576725959778|-1.391097068786621|-0.02229195833206177|XArbitraryZVertical|-0.4112426545929685|0.1657490800102419|-0.6995110204436137|-0.5604383233930204|-0.7611218094825745|-0.2290656715631485|-0.6068134307861328|0|0|0|-1|-1|3
2021-04-08 19:16:19.606 +0100|17298.544902625|-0.4885101318359375|-1.25469970703125|-0.89349365234375|17298.539911625|1.986060833998414|-0.8927521029677701|0.1948094006843185|2.398616313934326|1.116367816925049|3.795326948165894|0.07083296775817871|-1.16353702545166|-0.2669190168380737|XArbitraryZVertical|-0.4078236223132569|0.1611734817091588|-0.7290955871954524|-0.5254738440266645|-0.764069676399231|-0.1935795396566391|-0.6154059767723083|0|0|0|-1|-1|3
2021-04-08 19:16:19.626 +0100|17298.564862625|-0.22601318359375|-1.269790649414062|-0.859039306640625|17298.559872625|2.075027290750111|-0.8860059762449078|0.1732293138208072|2.978279113769531|1.200881481170654|3.415700435638428|0.3397115468978882|-1.107558250427246|-0.2653539776802063|XArbitraryZVertical|-0.4074805068314123|0.1497918681042957|-0.7562482028041533|-0.4895005764668968|-0.7629592418670654|-0.1723642200231552|-0.6230440735816956|0|0|0|-1|-1|3
2021-04-08 19:16:19.646 +0100|17298.584823625|0.17535400390625|-1.244476318359375|-0.95501708984375|17298.579833625|2.166065517932042|-0.8760957254954552|0.1639120209782642|3.37071967124939|1.298703193664551|3.007509708404541|0.6122426986694336|-1.099119663238525|-0.2338583469390869|XArbitraryZVertical|-0.408192431799098|0.1326323990655283|-0.7810166323999803|-0.453652765205106|-0.7579482793807983|-0.163179025053978|-0.6315751671791077|0|0|0|-1|-1|3
2021-04-08 19:16:19.666 +0100|17298.604784625|0.54229736328125|-1.201263427734375|-1.102676391601562|17298.599794625|2.256174296101176|-0.8618964833836872|0.1648736581625972|3.608549356460571|1.655793905258179|2.666296720504761|1.025747776031494|-1.06795871257782|-0.3236348628997803|XArbitraryZVertical|-0.408228766107829|0.1107420639062677|-0.8034552557081298|-0.4189811188231982|-0.7487847805023193|-0.1641277074813843|-0.6421709656715393|0|0|0|-1|-1|3
2021-04-08 19:16:19.686 +0100|17298.624744625|0.8691558837890625|-1.110336303710938|-1.414260864257812|17298.619754625|2.349073880434283|-0.839891086686214|0.1771998658820054|4.184009075164795|2.013104915618896|2.493991374969482|1.361299514770508|-0.9986683130264282|-0.4872578978538513|XArbitraryZVertical|-0.4058271721934423|0.08221198961058185|-0.8251270617759383|-0.3843318992743778|-0.7329113483428955|-0.176273986697197|-0.657090961933136|0|0|0|-1|-1|3
2021-04-08 19:16:19.706 +0100|17298.644705625|1.082550048828125|-1.402069091796875|-1.562637329101562|17298.639715625|2.447027358845067|-0.815939028766468|0.200457388739314|4.546111106872559|2.241977214813232|2.301507711410522|1.653466939926147|-0.9411568641662598|-0.7043755054473877|XArbitraryZVertical|-0.4024488175924151|0.04798704179430151|-0.8452860101110901|-0.3481723878353611|-0.7137842178344727|-0.199117586016655|-0.6714643836021423|0|0|0|-1|-1|3
2021-04-08 19:16:19.727 +0100|17298.664666625|1.267059326171875|-2.178863525390625|-1.64703369140625|17298.659676625|2.542856890990179|-0.7872610202638147|0.2307323039638368|4.305360317230225|2.671926498413086|1.987012982368469|1.827039957046509|-1.3025141954422|-0.8579906821250916|XArbitraryZVertical|-0.3954004878495127|0.01078254903184369|-0.8635609266213756|-0.3127376745473497|-0.6896490454673767|-0.2286904752254486|-0.6870843768119812|0|0|0|-1|-1|3
2021-04-08 19:16:19.746 +0100|17298.684627625|1.0592041015625|-3.203750610351562|-1.318740844726562|17298.679636625|2.625514304910689|-0.7534531256481636|0.2647056368370946|3.722130298614502|2.645642280578613|1.246250867843628|1.930458784103394|-2.167208433151245|-0.9086214900016785|XArbitraryZVertical|-0.3839023875295258|-0.02559356467848494|-0.8788359146880677|-0.2821551630231066|-0.6603317260742188|-0.2616251707077026|-0.7039278745651245|0|0|0|-1|-1|3
2021-04-08 19:16:19.766 +0100|17298.704587625|0.590484619140625|-4.205703735351562|-0.3970947265625|17298.699597625|2.677464394061193|-0.7165235198820336|0.3070132398125865|2.764498472213745|2.550307989120483|-0.6076474189758301|1.544133305549622|-3.12739896774292|-0.3931826949119568|XArbitraryZVertical|-0.3701678412565649|-0.05966176930519881|-0.8883554995037091|-0.2650300004412925|-0.626056969165802|-0.3022128939628601|-0.7188324928283691|0|0|0|-1|-1|3
2021-04-08 19:16:19.786 +0100|17298.724548625|0.105987548828125|-4.983230590820312|-0.41058349609375|17298.719558625|2.675184781647381|-0.6741309418137356|0.3672192490540521|2.083058834075928|1.258223056793213|-3.513099670410156|1.106070280075073|-4.109073162078857|0.4529635906219482|XArbitraryZVertical|-0.3561774562253449|-0.09249846591423118|-0.8887956384823399|-0.273174224682822|-0.5826015472412109|-0.3590214550495148|-0.7291632890701294|0|0|0|-1|-1|3
2021-04-08 19:16:19.806 +0100|17298.744509625|-1.274658203125|-5.16156005859375|-0.582244873046875|17298.739518625|2.621270616962431|-0.6478528907337395|0.4766078356074703|3.658155679702759|-0.5680732131004333|-7.090860843658447|0.3716264367103577|-4.544727325439453|0.2064579725265503|XArbitraryZVertical|-0.3564518456885891|-0.1366856437310475|-0.8708755261537984|-0.309572430036375|-0.5362221598625183|-0.4587676823139191|-0.7085182070732117|0|0|0|-1|-1|3
2021-04-08 19:16:19.826 +0100|17298.764469625|-2.63934326171875|-5.708831787109375|-0.95147705078125|17298.759479625|2.502733715288772|-0.6000595929722007|0.6453124168920077|3.969090938568115|-0.9790911674499512|-10.95815753936768|-1.19687032699585|-4.778206348419189|0.1324878931045532|XArbitraryZVertical|-0.3612433931118073|-0.1995780213091526|-0.8307691196706989|-0.3734899411918443|-0.4511389434337616|-0.6014480590820312|-0.6593436598777771|0|0|0|-1|-1|3
2021-04-08 19:16:19.846 +0100|17298.784430625|-3.554946899414062|-4.680404663085938|-1.09246826171875|17298.779440625|2.259490283390609|-0.4529239270384218|0.8284920059851885|2.302895545959473|-0.6975750327110291|-13.66961288452148|-2.621761083602905|-4.79523754119873|-0.445760190486908|XArbitraryZVertical|-0.3533069611559559|-0.2669451333526266|-0.7681011039385787|-0.4625313913095439|-0.2958099246025085|-0.7369128465652466|-0.6078289747238159|0|0|0|-1|-1|3
2021-04-08 19:16:19.879 +0100|17298.804391625|-4.144363403320312|-2.996932983398438|-1.603912353515625|17298.799401625|1.83295445797314|-0.1260385422666918|0.9320401823373002|-0.07900195568799973|0.08253084868192673|-14.98133945465088|-3.631688356399536|-3.603701829910278|-0.5383234024047852|XArbitraryZVertical|-0.3175722967761792|-0.3215801152437354|-0.6902208103705487|-0.5650924060739979|-0.07494505494832993|-0.8028379678726196|-0.5914681553840637|0|0|0|-1|-1|3
2021-04-08 19:16:19.891 +0100|17298.824351625|-4.376144409179688|-0.7663726806640625|-2.412109375|17298.819361625|1.34099385234132|0.272421768293763|0.9100705341881656|-0.2399973273277283|0.0297561027109623|-14.77199172973633|-4.537359714508057|-1.691318035125732|-1.359549045562744|XArbitraryZVertical|-0.2653688609366383|-0.3661284767901503|-0.5997370891311552|-0.6601855483555398|0.1651223599910736|-0.7895470261573792|-0.591058611869812|0|0|0|-1|-1|3
2021-04-08 19:16:19.906 +0100|17298.844312625|-3.597412109375|-0.23992919921875|-1.47210693359375|17298.839322625|0.9561628040176038|0.560414522030516|0.7816565571945163|-1.227473139762878|0.09165904670953751|-13.4691162109375|-4.505308151245117|0.1216472983360291|-1.672943472862244|XArbitraryZVertical|-0.2074074714783843|-0.3954638335344874|-0.5023354313356287|-0.7404389283884735|0.377257376909256|-0.7044561505317688|-0.6011809706687927|0|0|0|-1|-1|3
2021-04-08 19:16:19.926 +0100|17298.864273625|-2.507064819335938|1.451873779296875|-1.141921997070312|17298.859283625|0.709434423737392|0.7302081201976954|0.6156508978972376|-0.2902558445930481|0.8154272437095642|-11.58231258392334|-3.894517183303833|0.7744359970092773|-0.71934574842453|XArbitraryZVertical|-0.1472148453821816|-0.4173787949776785|-0.4106273849757496|-0.7971876385365484|0.544557511806488|-0.5774900317192078|-0.6082454323768616|0|0|0|-1|-1|3
2021-04-08 19:16:19.945 +0100|17298.884234625|-1.391021728515625|1.559738159179688|-0.948089599609375|17298.879243625|0.5194804392214064|0.8450016383153597|0.482521489833043|2.257320642471313|0.6731076240539551|-9.139359474182129|-2.879966020584106|2.039271354675293|-0.5703596472740173|XArbitraryZVertical|-0.1083467102456678|-0.4407785103892083|-0.3221451776554132|-0.8307816194712788|0.6625746488571167|-0.4640142619609833|-0.587950587272644|0|0|0|-1|-1|3
2021-04-08 19:16:19.966 +0100|17298.904194625|-0.86566162109375|2.017410278320312|-0.43878173828125|17298.899204625|0.3576046689954712|0.9242557111239137|0.405320795531018|4.190114498138428|0.350309818983078|-6.243771076202393|-1.949825048446655|2.001583814620972|-0.2400990724563599|XArbitraryZVertical|-0.09961827582304991|-0.461808787334213|-0.2442465052302062|-0.8468487225718985|0.7335015535354614|-0.3943135738372803|-0.5536177158355713|0|0|0|-1|-1|3
2021-04-08 19:16:19.986 +0100|17298.924155625|-0.5481719970703125|1.024658203125|0.03643798828125|17298.919165625|0.2146858621468289|0.9794833107566876|0.3741163934413876|4.183476448059082|-0.1651245951652527|-4.048857688903809|-1.515078783035278|2.330218553543091|0.232149600982666|XArbitraryZVertical|-0.1136469632427415|-0.4771139794365146|-0.1798701664403035|-0.8526978471543626|0.7727847099304199|-0.3654501736164093|-0.5188932418823242|0|0|0|-1|-1|3
2021-04-08 19:16:20.006 +0100|17298.944116625|-0.5269012451171875|0.6034088134765625|-0.2223358154296875|17298.939125625|0.122478899825847|1.01153521749915|0.3518057976584245|1.956079959869385|0.1432766020298004|-2.632132768630981|-1.345504760742188|1.109899044036865|0.5113236904144287|XArbitraryZVertical|-0.1236079046429127|-0.4854780538781558|-0.1373363373488097|-0.8545004040998234|0.7957306504249573|-0.3445935547351837|-0.4980642795562744|0|0|0|-1|-1|3
2021-04-08 19:16:20.025 +0100|17298.964076625|-0.3813018798828125|0.4829864501953125|-0.3588714599609375|17298.959086625|0.0726663206111057|1.032933382359108|0.3305894854632849|1.193867802619934|0.2262799292802811|-1.673938512802124|-1.299484729766846|0.9748700857162476|0.2215603590011597|XArbitraryZVertical|-0.1252939129361613|-0.491956056790822|-0.1123562067704803|-0.8541995871015541|0.8123022317886353|-0.3246006369590759|-0.4845613539218903|0|0|0|-1|-1|3
2021-04-08 19:16:20.045 +0100|17298.984037625|-0.31085205078125|0.0096893310546875|-0.5250244140625|17298.979047625|0.03846801408726091|1.04556507126536|0.3202170744938892|1.087123394012451|-0.0680718719959259|-0.8793951272964478|-1.171416163444519|0.6686248183250427|0.08232384920120239|XArbitraryZVertical|-0.1286258839242481|-0.4954724598677113|-0.09603604787218829|-0.8536624493868722|0.8212270140647888|-0.3147726058959961|-0.4759248495101929|0|0|0|-1|-1|3
2021-04-08 19:16:20.066 +0100|17299.003998625|-0.256805419921875|-0.1341094970703125|-0.6135101318359375|17298.999008625|0.01159826272749807|1.051017166240678|0.3221631608525799|1.299446105957031|-0.198534220457077|-0.2819191813468933|-1.141696691513062|0.2485048472881317|-0.1089434325695038|XArbitraryZVertical|-0.1358710314288504|-0.4959550942508882|-0.08540838646440013|-0.8533891322709758|0.8232763409614563|-0.3166191577911377|-0.4711352288722992|0|0|0|-1|-1|3
2021-04-08 19:16:20.086 +0100|17299.023958625|-0.03521728515625|-0.11956787109375|-0.536956787109375|17299.018968625|-0.01619142770322843|1.054443870361023|0.3353680266874948|1.695654273033142|-0.3840429782867432|0.09792056679725647|-1.025020480155945|0.2082984745502472|-0.1314961314201355|XArbitraryZVertical|-0.1482470509556158|-0.4948935021601605|-0.07707183326234332|-0.8527387735779871|0.8211784362792969|-0.3291167020797729|-0.4662064611911774|0|0|0|-1|-1|3
2021-04-08 19:16:20.106 +0100|17299.043919625|0.1762542724609375|-0.2988433837890625|-0.4716339111328125|17299.038929625|-0.04874181307366403|1.05587673401276|0.3587097410379296|2.02274489402771|-0.5895096659660339|0.40306156873703|-0.7973885536193848|0.1977011561393738|-0.07351824641227722|XArbitraryZVertical|-0.1661389542440542|-0.4917702322917858|-0.06912733652856679|-0.8519280132756278|0.8149361610412598|-0.351066380739212|-0.4611197710037231|0|0|0|-1|-1|3
2021-04-08 19:16:20.125 +0100|17299.063880625|0.2808990478515625|-0.3694305419921875|-0.5153045654296875|17299.058890625|-0.07941964380565261|1.053338277993004|0.3860442048167664|1.816059947013855|-0.7858930826187134|0.5716934204101562|-0.5891625285148621|0.04283306002616882|-0.01280239224433899|XArbitraryZVertical|-0.1852845359901278|-0.4863495259873619|-0.06266424197867862|-0.8515909024988273|0.8051202297210693|-0.3765267133712769|-0.4582675695419312|0|0|0|-1|-1|3
2021-04-08 19:16:20.145 +0100|17299.083841625|0.327545166015625|-0.5132293701171875|-0.5946044921875|17299.078850625|-0.1015257334624812|1.04412797600211|0.4120698402870557|1.330100178718567|-1.016709923744202|0.6161730289459229|-0.500085711479187|0.01767981052398682|-0.07407280802726746|XArbitraryZVertical|-0.2018679829546587|-0.4784966332568856|-0.05883496806733102|-0.8525425703316689|0.7921237349510193|-0.4005067646503448|-0.460580587387085|0|0|0|-1|-1|3
2021-04-08 19:16:20.165 +0100|17299.103801625|0.419952392578125|-0.3472747802734375|-0.63812255859375|17299.098811625|-0.1175246016732686|1.030740188041595|0.4332294394660507|1.054891467094421|-0.934168815612793|0.4313414096832275|-0.4499974250793457|-0.1043345630168915|-0.123804122209549|XArbitraryZVertical|-0.2149537456449138|-0.4695256389583046|-0.05583819693698505|-0.8545306853586411|0.7784428596496582|-0.4198040664196014|-0.4666811227798462|0|0|0|-1|-1|3
2021-04-08 19:16:20.185 +0100|17299.123762625|0.620452880859375|-0.4731597900390625|-0.669586181640625|17299.118772625|-0.1326681909923939|1.017125215321565|0.4512895277888052|0.9830036163330078|-1.166938185691833|0.5038425326347351|-0.285721480846405|0.141754537820816|-0.1588173806667328|XArbitraryZVertical|-0.2264480190786659|-0.4605815549506198|-0.05227282565230439|-0.8566525038272959|0.7654425501823425|-0.436126321554184|-0.4731718599796295|0|0|0|-1|-1|3
2021-04-08 19:16:20.205 +0100|17299.143723625|0.561614990234375|-0.679931640625|-0.711029052734375|17299.138732625|-0.1402885977356642|0.9923357629183726|0.4676180884553559|0.5028181076049805|-1.621103763580322|0.52204430103302|-0.1091713309288025|-0.1296822726726532|-0.1569949388504028|XArbitraryZVertical|-0.2357030801568022|-0.4476871296283932|-0.0500660694924553|-0.8611119882433138|0.747416079044342|-0.4507613778114319|-0.4880405962467194|0|0|0|-1|-1|3
2021-04-08 19:16:20.225 +0100|17299.163683625|0.4813995361328125|-0.3377685546875|-0.7342376708984375|17299.158693625|-0.1427825067070909|0.9605237572153417|0.4820219892130764|0.6266273856163025|-1.663342714309692|0.5322889089584351|-0.2073349356651306|-0.1373339295387268|-0.2493339776992798|XArbitraryZVertical|-0.2431469052746486|-0.432415635923287|-0.04856120693839451|-0.8669130986310027|0.7261185646057129|-0.4635717272758484|-0.507792592048645|0|0|0|-1|-1|3
2021-04-08 19:16:20.245 +0100|17299.183644625|0.5612640380859375|-0.56976318359375|-0.674713134765625|17299.178654625|-0.1469456966947225|0.9298611361957664|0.5008248563329105|0.705841600894928|-1.650160431861877|0.7075982093811035|-0.2074006199836731|0.1154343485832214|-0.2051204442977905|XArbitraryZVertical|-0.252788432540312|-0.4169449862206229|-0.04723727959597915|-0.8717933743022248|0.7030977010726929|-0.4801492691040039|-0.5245097875595093|0|0|0|-1|-1|3
2021-04-08 19:16:20.265 +0100|17299.203605625|0.4890594482421875|-0.5075225830078125|-0.694854736328125|17299.198615625|-0.1475591355067476|0.8950533306942664|0.5199427771671945|0.5466238856315613|-1.803274273872375|0.8030561208724976|-0.1102370619773865|-0.1002147197723389|-0.1114481091499329|XArbitraryZVertical|-0.2619342564320488|-0.3999762239827366|-0.04671326950136521|-0.8770561169182934|0.6771315932273865|-0.4968304634094238|-0.5428189039230347|0|0|0|-1|-1|3
2021-04-08 19:16:20.285 +0100|17299.223565625|0.4550933837890625|-0.5112762451171875|-0.737579345703125|17299.218575625|-0.1467845086411444|0.8598527454220878|0.5421652557132667|0.8016828298568726|-1.700833678245544|0.9737660884857178|-0.1838860511779785|0.05122524499893188|-0.1552190184593201|XArbitraryZVertical|-0.2721975849897464|-0.3826536707303818|-0.0470897088899425|-0.8816276670901222|0.6490806937217712|-0.5159919261932373|-0.558969259262085|0|0|0|-1|-1|3
2021-04-08 19:16:20.305 +0100|17299.2435255|0.394439697265625|-0.7302093505859375|-0.752105712890625|17299.238536625|-0.1436569402282995|0.823663915380547|0.5681327553862354|0.7280067205429077|-1.79545259475708|1.131124496459961|-0.1603373289108276|-0.04963254928588867|-0.1632211208343506|XArbitraryZVertical|-0.2837423040684656|-0.3648241458852975|-0.04876560884362733|-0.8854466243676441|0.6183908581733704|-0.5380590558052063|-0.5727872848510742|0|0|0|-1|-1|3
2021-04-08 19:16:20.325 +0100|17299.2634865|0.30572509765625|-0.621307373046875|-0.7356719970703125|17299.2584965|-0.1338101916992183|0.7841665537994832|0.5936358328309501|0.4705968499183655|-1.560458779335022|1.265031218528748|-0.2301369309425354|-0.1542286276817322|-0.1397579908370972|XArbitraryZVertical|-0.2941085286967335|-0.346517911096534|-0.05243000420446422|-0.8892000370787391|0.5854072570800781|-0.5593785047531128|-0.5868510007858276|0|0|0|-1|-1|3
2021-04-08 19:16:20.345 +0100|17299.2834475|0.391204833984375|-0.61517333984375|-0.7154998779296875|17299.2784565|-0.1176131677997719|0.7452902310046283|0.6185166560096943|0.3937490582466125|-1.505663275718689|1.445616722106934|-0.2265555262565613|-0.02536612749099731|-0.1410172581672668|XArbitraryZVertical|-0.3033566334360894|-0.3295487075876302|-0.05847494087425437|-0.8921620923864628|0.5525442361831665|-0.5798272490501404|-0.598744809627533|0|0|0|-1|-1|3
2021-04-08 19:16:20.365 +0100|17299.3034075|0.310943603515625|-0.679840087890625|-0.6799774169921875|17299.2984175|-0.09354410174296122|0.7001308967497201|0.6439590689362374|0.3022542297840118|-1.532937169075012|1.686248183250427|-0.1312288641929626|-0.03615343570709229|-0.07453131675720215|XArbitraryZVertical|-0.3121385984720265|-0.3110810352614529|-0.06674667532536481|-0.8951777482790917|0.5152772068977356|-0.6003662943840027|-0.6115961670875549|0|0|0|-1|-1|3
2021-04-08 19:16:20.385 +0100|17299.3233685|0.3119354248046875|-0.703277587890625|-0.6278228759765625|17299.3183785|-0.06469818722278142|0.654228242895968|0.6720995041618413|0.4512920379638672|-1.297438502311707|1.865574479103088|-0.1792009472846985|-0.05331820249557495|-0.04268014430999756|XArbitraryZVertical|-0.3219219722509149|-0.2930800879414351|-0.07698515326472564|-0.8969636633283836|0.4761979579925537|-0.62263023853302|-0.620940625667572|0|0|0|-1|-1|3
2021-04-08 19:16:20.405 +0100|17299.3433295|0.27569580078125|-0.785675048828125|-0.59130859375|17299.3383395|-0.03160252371366206|0.6062216980550097|0.7025877532519577|0.4875619411468506|-1.457195997238159|1.99471378326416|-0.1090856492519379|-0.09001064300537109|0.004407346248626709|XArbitraryZVertical|-0.3328129801996336|-0.2750369926426396|-0.08854233311330273|-0.8976361386139652|0.4348302185535431|-0.6461947560310364|-0.6271803379058838|0|0|0|-1|-1|3
2021-04-08 19:16:20.425 +0100|17299.3632895|0.162384033203125|-0.74066162109375|-0.645172119140625|17299.3582995|0.007635468270023154|0.5527747713663256|0.7315663627448797|0.2971307337284088|-1.252681136131287|2.031905889511108|-0.1605572998523712|-0.1041954159736633|0.04744458198547363|XArbitraryZVertical|-0.343130488544216|-0.2561409442804722|-0.1010337211707033|-0.8980232083049401|0.3907055258750916|-0.6680360436439514|-0.6333065629005432|0|0|0|-1|-1|3
2021-04-08 19:16:20.445 +0100|17299.3832505|0.2654876708984375|-0.76727294921875|-0.6069488525390625|17299.3782605|0.05176909795143562|0.5002466087573856|0.7565565343910595|0.2153589278459549|-1.039469838142395|2.088316917419434|-0.1676147878170013|-0.06113654375076294|-0.03541284799575806|XArbitraryZVertical|-0.3517551273869429|-0.2392080921410429|-0.1146883611093148|-0.8977163379713948|0.3487975895404816|-0.6864213943481445|-0.6380956172943115|0|0|0|-1|-1|3
2021-04-08 19:16:20.465 +0100|17299.4032115|0.28021240234375|-0.74725341796875|-0.5742645263671875|17299.3982215|0.1038432405439658|0.4441875264298372|0.7780129199478256|0.006715615745633841|-0.99270099401474|2.224112033843994|-0.02364149689674377|-0.0565263032913208|0.04816997051239014|XArbitraryZVertical|-0.3588775707421991|-0.2227403518393926|-0.130271262659313|-0.8970079329356172|0.3060968518257141|-0.7018653750419617|-0.6431872248649597|0|0|0|-1|-1|3
2021-04-08 19:16:20.485 +0100|17299.4231725|0.1674041748046875|-0.7895050048828125|-0.5244293212890625|17299.4181815|0.1637619639851456|0.3824244500109887|0.7962980500312996|-0.0005347565747797489|-0.9259120225906372|2.370214462280273|-0.0006802678108215332|-0.04934173822402954|0.08249181509017944|XArbitraryZVertical|-0.3650431014680343|-0.2057295359938783|-0.1474555401176322|-0.8959217221324012|0.2609798610210419|-0.7147719860076904|-0.6488378047943115|0|0|0|-1|-1|3
2021-04-08 19:16:20.505 +0100|17299.4431325|0.0206451416015625|-0.78411865234375|-0.520477294921875|17299.4381425|0.2281693369305284|0.3181235293450536|0.8141239081821146|0.1784872859716415|-0.8602986335754395|2.437375068664551|-0.07839134335517883|-0.05607807636260986|0.1360982060432434|XArbitraryZVertical|-0.3718163857991142|-0.189004566715546|-0.1655175777609348|-0.8936632501353642|0.2147285789251328|-0.7271244525909424|-0.6520596742630005|0|0|0|-1|-1|3
2021-04-08 19:16:20.525 +0100|17299.4630935|-0.1068267822265625|-0.8204193115234375|-0.4775390625|17299.4581035|0.2933831984897602|0.2548370824359731|0.8332668302389997|0.3598312735557556|-0.6373391151428223|2.316740989685059|-0.1958102583885193|-0.04055267572402954|0.1183640360832214|XArbitraryZVertical|-0.380107358124168|-0.1736271988142929|-0.1834514637485058|-0.8897852041913897|0.1695193201303482|-0.7401321530342102|-0.6507439613342285|0|0|0|-1|-1|3
2021-04-08 19:16:20.545 +0100|17299.4830545|-0.0165863037109375|-0.8982391357421875|-0.37518310546875|17299.4780645|0.3568389712535911|0.1978047727934576|0.8469214908228235|-0.03584704175591469|-0.320559024810791|2.150095224380493|-0.225305899977684|-0.09548085927963257|0.211664080619812|XArbitraryZVertical|-0.3864423777893606|-0.1611615993640273|-0.2009381880733352|-0.8856146271349941|0.1301520764827728|-0.7492451071739197|-0.6493784785270691|0|0|0|-1|-1|3
2021-04-08 19:16:20.565 +0100|17299.5030145|0.0696258544921875|-0.980926513671875|-0.43994140625|17299.4980245|0.4211389009975849|0.1445669342971607|0.8498437342967006|-0.3599137663841248|-0.2343062162399292|2.126937389373779|-0.0810738205909729|-0.1551178693771362|0.2769932150840759|XArbitraryZVertical|-0.3883381906910424|-0.1502867474914055|-0.219047111919173|-0.8823977703847808|0.09509666264057159|-0.7511772513389587|-0.653214693069458|0|0|0|-1|-1|3
2021-04-08 19:16:20.585 +0100|17299.5229755|0.0456695556640625|-1.044921875|-0.546905517578125|17299.5179855|0.4862370559328025|0.09043529320485563|0.8471965706802325|-0.3492259383201599|-0.2976299226284027|2.103771448135376|0.008931189775466919|-0.2656935453414917|0.185701847076416|XArbitraryZVertical|-0.3886277584985609|-0.1388448008852745|-0.2372631648447223|-0.879429879258803|0.05979442968964577|-0.7494272589683533|-0.6593811511993408|0|0|0|-1|-1|3
2021-04-08 19:16:20.605 +0100|17299.5429365|0.0115814208984375|-0.9701995849609375|-0.5625762939453125|17299.5379465|0.5493482319007796|0.03772393177881734|0.8466987533962042|0.07525025308132172|-0.2503665685653687|2.078146457672119|0.007074102759361267|-0.2864090204238892|0.1055759191513062|XArbitraryZVertical|-0.3906820014127234|-0.1279584185088684|-0.2547021741578764|-0.8752834413979286|0.02498465962707996|-0.7490975260734558|-0.6619884371757507|0|0|0|-1|-1|3
2021-04-08 19:16:20.625 +0100|17299.5628975|-0.0137176513671875|-0.9486846923828125|-0.4911041259765625|17299.5579065|0.6121901753072038|-0.01509379042326743|0.8517742110133329|0.3247641623020172|-0.3290458917617798|2.087509155273438|0.0221787691116333|-0.195165753364563|0.121174156665802|XArbitraryZVertical|-0.3959853378110951|-0.1179344441607413|-0.2714391390486244|-0.8692570882471429|-0.009941135533154011|-0.752450168132782|-0.6585741639137268|0|0|0|-1|-1|3
2021-04-08 19:16:20.644 +0100|17299.5828575|-0.12762451171875|-1.050750732421875|-0.3904876708984375|17299.5778675|0.6760751688181336|-0.07105571342724748|0.853144092549022|-0.1149207204580307|-0.3752560317516327|2.089788198471069|0.01130317151546478|-0.2164047360420227|0.1894659996032715|XArbitraryZVertical|-0.4008149614284107|-0.106621390788298|-0.2878627621943323|-0.8632001633678651|-0.04668819904327393|-0.7533517479896545|-0.6559584736824036|0|0|0|-1|-1|3
2021-04-08 19:16:20.664 +0100|17299.6028185|-0.1160430908203125|-0.9885711669921875|-0.445556640625|17299.5978285|0.7365368444854178|-0.1210099833074557|0.8411847846445523|-0.6648334264755249|-0.09512857347726822|2.055030822753906|-0.05945684760808945|-0.312854528427124|0.2544935941696167|XArbitraryZVertical|-0.4000998333502433|-0.09522246663983124|-0.304990260614066|-0.8589725485142304|-0.0804661363363266|-0.7454333901405334|-0.6617056131362915|0|0|0|-1|-1|3
2021-04-08 19:16:20.684 +0100|17299.6227795|-0.1156005859375|-0.8567047119140625|-0.524810791015625|17299.6177895|0.7938351709280489|-0.1638978769604262|0.8195730627488985|-0.8290221691131592|-0.01882879622280598|2.068232297897339|0.002006016671657562|-0.2305706143379211|0.1936189532279968|XArbitraryZVertical|-0.3952307587228722|-0.08425777939451247|-0.3233035503609584|-0.8556682445363696|-0.1113656014204025|-0.7308545112609863|-0.6733865737915039|0|0|0|-1|-1|3
2021-04-08 19:16:20.704 +0100|17299.6427395|-0.2719573974609375|-0.8440093994140625|-0.455078125|17299.6377495|0.8495893713080281|-0.2060415544399118|0.7974702726617227|-0.5899854302406311|-0.142257958650589|2.156950950622559|-0.001638531684875488|-0.113311231136322|0.1628086566925049|XArbitraryZVertical|-0.3909292193743285|-0.07281543154049998|-0.3414104754697921|-0.8516521459586248|-0.1429078280925751|-0.7155913114547729|-0.683744490146637|0|0|0|-1|-1|3
2021-04-08 19:16:20.724 +0100|17299.6627005|-0.336212158203125|-0.6688079833984375|-0.2926788330078125|17299.6577105|0.9082958793413254|-0.249673836163833|0.7781448874287767|-0.4275208413600922|-0.07767985761165619|2.322666168212891|-0.123946338891983|-0.133611261844635|0.291618824005127|XArbitraryZVertical|-0.3887677517179265|-0.06158689795749873|-0.3603064403038401|-0.8457222471736204|-0.1759802252054214|-0.7019593715667725|-0.6901333928108215|0|0|0|-1|-1|3
2021-04-08 19:16:20.744 +0100|17299.6826615|-0.409637451171875|-0.58355712890625|-0.2029571533203125|17299.6776715|0.9707483116688564|-0.2970163201949398|0.7562121510742164|-0.4873954355716705|-0.4128469228744507|2.697223901748657|-0.1232062429189682|0.05601418018341064|0.4295051693916321|XArbitraryZVertical|-0.3870835408857538|-0.0487033099343924|-0.3804997351438571|-0.8384595035702569|-0.2128988653421402|-0.6861709356307983|-0.6955886483192444|0|0|0|-1|-1|3
2021-04-08 19:16:20.764 +0100|17299.7026225|-0.921844482421875|-0.478363037109375|-0.177978515625|17299.6976315|1.046549104740588|-0.3616916908324835|0.7270104436218683|-0.4343008697032928|-0.8808262944221497|3.632512807846069|-0.223250687122345|0.1087313890457153|0.5014039278030396|XArbitraryZVertical|-0.3869599085619719|-0.02916507790083378|-0.4040557834297599|-0.8283419889196851|-0.2643894553184509|-0.6646389365196228|-0.6988228559494019|0|0|0|-1|-1|3
2021-04-08 19:16:20.784 +0100|17299.7225825|-1.642105102539062|-0.5481414794921875|-0.2462615966796875|17299.7175925|1.145686042766261|-0.4434583504955396|0.692448746305246|0.315729558467865|-0.7586539387702942|4.511914253234863|-0.7927094697952271|0.1587796807289124|0.503722071647644|XArbitraryZVertical|-0.3903214689727723|-0.005588405337968448|-0.4346629963207458|-0.8115947520927481|-0.3302455544471741|-0.6384238600730896|-0.6952358484268188|0|0|0|-1|-1|3
2021-04-08 19:16:20.804 +0100|17299.7425435|-1.773880004882812|-0.7269439697265625|-0.328216552734375|17299.7375535|1.257767786869694|-0.5282083534758312|0.6657683535342641|1.494362592697144|-0.7656994462013245|4.416335105895996|-1.320516347885132|0.0297430157661438|0.4120771884918213|XArbitraryZVertical|-0.4002192894887524|0.01395877809352383|-0.4676915748849534|-0.7879685002710141|-0.3963565230369568|-0.617663562297821|-0.6792593598365784|0|0|0|-1|-1|3
2021-04-08 19:16:20.824 +0100|17299.7625045|-1.918014526367188|-0.664642333984375|-0.0780029296875|17299.7575145|1.380705738496628|-0.6190251281007071|0.6537937029110704|2.710694789886475|-0.6828235387802124|4.345915794372559|-1.346863627433777|-0.1364720463752747|0.3652865290641785|XArbitraryZVertical|-0.4195115575286186|0.0276454632230446|-0.499017360242911|-0.7577780274405441|-0.460585355758667|-0.6082021594047546|-0.6464915871620178|0|0|0|-1|-1|3
2021-04-08 19:16:20.844 +0100|17299.7824645|-1.889602661132812|-0.3455047607421875|0.3681182861328125|17299.7774745|1.513051382098859|-0.7085946022069513|0.6500642502875954|3.321490526199341|-0.1835791766643524|4.190945625305176|-1.41004490852356|0.007993757724761963|0.6382161974906921|XArbitraryZVertical|-0.4434725393058599|0.0335069950046253|-0.5294913520811412|-0.722390705725666|-0.5180400609970093|-0.6052375435829163|-0.6044187545776367|0|0|0|-1|-1|3
2021-04-08 19:16:20.864 +0100|17299.8024255|-1.63916015625|-0.2004547119140625|0.539886474609375|17299.7974355|1.643291842098721|-0.7843788389768346|0.6413521337322143|3.013209342956543|0.4320387244224548|4.08486270904541|-1.264700412750244|0.3093088269233704|1.016589403152466|XArbitraryZVertical|-0.4639779825370592|0.03373219291781039|-0.5601284482258784|-0.685450798890623|-0.5660180449485779|-0.5982794165611267|-0.5671731233596802|0|0|0|-1|-1|3
2021-04-08 19:16:20.884 +0100|17299.8223865|-1.431167602539062|-0.39404296875|0.2487945556640625|17299.8173965|1.761471172448653|-0.8405396997254092|0.6180809513954947|2.336645126342773|0.9144452214241028|4.241233825683594|-0.9786126613616943|0.3602494597434998|1.057259321212769|XArbitraryZVertical|-0.4765163863931203|0.03327905711690009|-0.5917443856636881|-0.6493560634707736|-0.6071717143058777|-0.5794722437858582|-0.5436492562294006|0|0|0|-1|-1|3
2021-04-08 19:16:20.904 +0100|17299.8423475|-1.219070434570312|-0.6161956787109375|-0.27337646484375|17299.8373565|1.86893638044811|-0.8815252803329783|0.5756258221034893|1.693431973457336|0.9820915460586548|4.882233142852783|-0.7182803750038147|0.09538543224334717|0.6431679725646973|XArbitraryZVertical|-0.4815756417955767|0.03661379084309797|-0.6255303989181489|-0.6127448072617082|-0.6473502516746521|-0.5443598628044128|-0.5334886908531189|0|0|0|-1|-1|3
2021-04-08 19:16:20.924 +0100|17299.8623075|-1.414230346679688|-0.6346588134765625|-0.5044097900390625|17299.8573175|1.977695966750938|-0.9172632947432433|0.5099438890081597|1.521491289138794|1.185748934745789|6.098342418670654|-0.532686710357666|-0.1637729108333588|0.1543281078338623|XArbitraryZVertical|-0.4821956421316646|0.0465485399330517|-0.6634706244476353|-0.5701995261057872|-0.692929208278656|-0.488128274679184|-0.5306411981582642|0|0|0|-1|-1|3
2021-04-08 19:16:20.944 +0100|17299.8822685|-1.486053466796875|-1.006332397460938|-0.7464752197265625|17299.8772785|2.092972483720574|-0.9415123808138253|0.4243354542458683|1.724137425422668|1.53889274597168|6.853579521179199|-0.7484179735183716|-0.2542241215705872|-0.02581274509429932|XArbitraryZVertical|-0.4777817333383728|0.05950460309706523|-0.7063930921591063|-0.5188379027344863|-0.7367499470710754|-0.4117152690887451|-0.536367654800415|0|0|0|-1|-1|3
2021-04-08 19:16:20.964 +0100|17299.9022295|-1.691146850585938|-1.150802612304688|-1.019454956054688|17299.8972395|2.218729815404068|-0.9551059508457147|0.3305644831638055|2.560516357421875|1.820516467094421|7.55424165725708|-0.7048133015632629|-0.7912678718566895|-0.255168080329895|XArbitraryZVertical|-0.4709898135778905|0.07100115851070259|-0.7507334249155911|-0.4577412027692009|-0.7721759080886841|-0.3245770037174225|-0.5462548732757568|0|0|0|-1|-1|3
2021-04-08 19:16:20.984 +0100|17299.9221895|-1.839736938476562|-0.756622314453125|-1.132904052734375|17299.9171995|2.368309235056605|-0.9519084630307116|0.2476522579921859|4.406092166900635|2.731887102127075|7.29566764831543|-1.001951813697815|-0.7825359702110291|-0.491266131401062|XArbitraryZVertical|-0.4625113488227255|0.06977185980813805|-0.7955987033635428|-0.3850168503042711|-0.7896735668182373|-0.2451285272836685|-0.5624302625656128|0|0|0|-1|-1|3
2021-04-08 19:16:21.004 +0100|17299.9421505|-1.644256591796875|-0.9708709716796875|-1.05120849609375|17299.9371605|2.533069967310654|-0.9223155701499834|0.1939421102883732|5.279056549072266|4.106261730194092|6.252269268035889|-1.033750295639038|-0.6035823225975037|-0.5143575668334961|XArbitraryZVertical|-0.4485277411312009|0.04996347750443775|-0.8374834203336641|-0.3081367429604004|-0.7820602655410767|-0.192728579044342|-0.5926530361175537|0|0|0|-1|-1|3
2021-04-08 19:16:21.024 +0100|17299.9621115|-0.7853240966796875|-1.641403198242188|-1.842269897460938|17299.9571215|2.681288638628283|-0.8504175283680108|0.1757776822527484|4.988823890686035|5.678657054901123|4.342257499694824|-0.7531273365020752|-0.8952256441116333|-0.4987046718597412|XArbitraryZVertical|-0.4183243562540664|0.01588993074400168|-0.8752490609545129|-0.2422631865853613|-0.7399750947952271|-0.1748738884925842|-0.6495044827461243|0|0|0|-1|-1|3
2021-04-08 19:16:21.044 +0100|17299.9820725|-0.5120086669921875|-3.26458740234375|-2.093887329101562|17299.9770815|2.799835889879621|-0.7566965824640447|0.1717910022920902|3.322145223617554|5.927566051483154|4.048923969268799|0.1083337068557739|-1.851727962493896|-1.190013289451599|XArbitraryZVertical|-0.3762209117227859|-0.01597962675075627|-0.9069769851869841|-0.1886670165649046|-0.6764177680015564|-0.1709472686052322|-0.7164049744606018|0|0|0|-1|-1|3
2021-04-08 19:16:21.064 +0100|17300.0020325|-0.21905517578125|-3.717514038085938|-1.293045043945312|17299.9970425|2.892044643127416|-0.6415046854526598|0.1675703943479904|2.545130729675293|7.24802303314209|2.863423347473145|0.04439669847488403|-3.294135808944702|-1.257649183273315|XArbitraryZVertical|-0.3216159036550535|-0.03970241012396637|-0.935034148412993|-0.1438688980091759|-0.5900198221206665|-0.1667872667312622|-0.7899738550186157|0|0|0|-1|-1|3
2021-04-08 19:16:21.084 +0100|17300.0219935|0.7967376708984375|-6.032180786132812|0.140289306640625|17300.0170035|2.946120609749816|-0.4873383186355692|0.1866204340505159|1.147623896598816|8.946541786193848|0.5015510320663452|0.4804246425628662|-3.772774696350098|0.04306042194366455|XArbitraryZVertical|-0.2478924877104532|-0.06655052864896337|-0.9594328722861679|-0.1166585270968814|-0.4601450264453888|-0.1855390816926956|-0.8682406544685364|0|0|0|-1|-1|3
2021-04-08 19:16:21.104 +0100|17300.0419545|0.3948822021484375|-7.629547119140625|-0.57501220703125|17300.0369645|2.923821476681426|-0.3599417283792903|0.1952873928716834|-0.5259922742843628|2.227850675582886|-3.359570980072021|1.274526238441467|-6.7863450050354|0.9371092319488525|XArbitraryZVertical|-0.1875162614147263|-0.07598656436621566|-0.9714674047714434|-0.1237533527723526|-0.3455246984958649|-0.1940484791994095|-0.9181273579597473|0|0|0|-1|-1|3
2021-04-08 19:16:21.124 +0100|17300.0619155|-2.163177490234375|-8.2896728515625|0.378326416015625|17300.0569245|2.821647812347492|-0.3461758043288468|0.2439366060172205|2.020318508148193|-1.022290706634521|-8.087790489196777|0.1874434351921082|-7.217796325683594|0.3559737801551819|XArbitraryZVertical|-0.1878535184791506|-0.09108780660364284|-0.9619179013040884|-0.1764315266983489|-0.3292578160762787|-0.2415245473384857|-0.9128281474113464|0|0|0|-1|-1|3
2021-04-08 19:16:21.143 +0100|17300.0818755|-3.317276000976562|-7.514419555664062|0.3948822021484375|17300.0768855|2.617396971556651|-0.2817866471746314|0.3544555408711293|1.931494474411011|1.371709108352661|-13.95171070098877|-2.456421852111816|-8.248578071594238|1.441496849060059|XArbitraryZVertical|-0.1787356511383749|-0.1327772568514135|-0.9348842119580755|-0.2764336064099828|-0.2607860863208771|-0.3470798134803772|-0.9008475542068481|0|0|0|-1|-1|3
2021-04-08 19:16:21.163 +0100|17300.1018365|-3.820770263671875|-5.859359741210938|-0.955535888671875|17300.0968465|2.276510474810075|-0.117991224305659|0.4651745968476781|2.922029256820679|1.226905226707458|-18.21829223632812|-3.110930442810059|-6.265349388122559|0.8706986904144287|XArbitraryZVertical|-0.148540846206851|-0.1848540821203312|-0.8762229107265402|-0.4195212711856835|-0.1052093431353569|-0.4485788643360138|-0.887529194355011|0|0|0|-1|-1|3
2021-04-08 19:16:21.183 +0100|17300.1217975|-6.31866455078125|-6.029220581054688|-1.762954711914062|17300.1168075|1.846835933156138|0.1296629845750474|0.5321891023158809|3.166711807250977|2.909097194671631|-19.14737319946289|-4.515347003936768|-5.474497318267822|-0.2645841836929321|XArbitraryZVertical|-0.1084016022401486|-0.2470155189757096|-0.7782518256511561|-0.5670596264159684|0.1114175692200661|-0.5074208974838257|-0.8544648289680481|0|0|0|-1|-1|3
2021-04-08 19:16:21.203 +0100|17300.1417575|-9.259963989257812|-3.905593872070312|-3.472564697265625|17300.1367675|1.41949197545828|0.4222408175690918|0.4833841353149821|2.120849609375|4.634623050689697|-17.67265510559082|-7.33277702331543|-5.267780303955078|-1.242889642715454|XArbitraryZVertical|-0.04493343159250185|-0.3068381521305475|-0.6566976319600898|-0.6874442751837697|0.3628529012203217|-0.4647782444953918|-0.8076626658439636|0|0|0|-1|-1|3
2021-04-08 19:16:21.223 +0100|17300.1617185|-7.899032592773438|-0.81927490234375|-3.856307983398438|17300.1567285|1.091103737756353|0.6426764501454219|0.3073645623793291|-0.5293169021606445|4.600611209869385|-17.08758735656738|-9.832557678222656|-2.54577898979187|-3.024267673492432|XArbitraryZVertical|0.03779360693232404|-0.3421728772019171|-0.527856826367844|-0.7764383792250954|0.5712515115737915|-0.3025477528572083|-0.762978732585907|0|0|0|-1|-1|3
2021-04-08 19:16:21.243 +0100|17300.1816795|-5.104019165039062|1.726638793945312|-1.810546875|17300.1766895|0.8395429634340037|0.7910437424460418|0.08668386228346452|0.7344672083854675|4.98663854598999|-15.24712085723877|-7.965726375579834|0.28594771027565|-2.690268039703369|XArbitraryZVertical|0.1203660952551996|-0.3678045690918447|-0.3909784385885033|-0.8350855246623621|0.7084176540374756|-0.08657534420490265|-0.700463593006134|0|0|0|-1|-1|3
2021-04-08 19:16:21.263 +0100|17300.2016405|-3.519149780273438|2.155410766601562|-1.517898559570312|17300.1966495|0.6365687273214574|0.8954472829364246|-0.09919046344426995|2.619048833847046|5.320051193237305|-11.97837734222412|-5.34131908416748|1.931612849235535|-0.7196081876754761|XArbitraryZVertical|0.1777526437633921|-0.3966806528675657|-0.2613622076332489|-0.8618227768881624|0.7766525149345398|0.09902789443731308|-0.6220968961715698|0|0|0|-1|-1|3
2021-04-08 19:16:21.283 +0100|17300.2216005|-2.211944580078125|2.128692626953125|-1.602386474609375|17300.2166105|0.4548662522623936|0.9598765753827637|-0.2107319288394014|4.346980094909668|4.048268795013428|-7.642900466918945|-3.981725692749023|1.899681568145752|-1.035778522491455|XArbitraryZVertical|0.194417948066311|-0.4263049194794915|-0.1515850585458738|-0.8703378692599099|0.8010003566741943|0.2091756910085678|-0.5609315633773804|0|0|0|-1|-1|3
2021-04-08 19:16:21.303 +0100|17300.2415615|-1.606002807617188|2.405563354492188|-0.8870697021484375|17300.2365715|0.3098219580016082|0.9902698764549311|-0.2481718853370675|5.173848628997803|2.271590948104858|-3.477783441543579|-2.761362075805664|1.996525764465332|-1.040955543518066|XArbitraryZVertical|0.180348003608614|-0.4490479938835898|-0.07661444083070702|-0.8717573231946433|0.8105562925338745|0.2456322610378265|-0.5316609740257263|0|0|0|-1|-1|3
2021-04-08 19:16:21.323 +0100|17300.261522875|-1.70159912109375|1.683242797851562|-0.3750152587890625|17300.256532875|0.192802446381927|0.9974002847955957|-0.2235323486896755|5.528861045837402|1.581116676330566|-1.02354109287262|-2.46705174446106|1.959889888763428|-0.155731737613678|XArbitraryZVertical|0.1432431876481911|-0.4636655650726884|-0.03090445702987398|-0.8738081499210092|0.8191632032394409|0.2216754704713821|-0.5289912819862366|0|0|0|-1|-1|3
2021-04-08 19:16:21.343 +0100|17300.281483875|-1.1763916015625|1.4869384765625|-0.6972503662109375|17300.276492875|0.092908061434473|1.011235956124759|-0.173745929033367|5.457807064056396|1.64589262008667|-0.005423932336270809|-2.426266670227051|1.516504764556885|0.08634394407272339|XArbitraryZVertical|0.0982325733858597|-0.4784761767000881|0.00150485642786463|-0.872587382353374|0.8347288966178894|0.1728730797767639|-0.522821843624115|0|0|0|-1|-1|3
2021-04-08 19:16:21.363 +0100|17300.301443875|-1.015350341796875|0.542633056640625|-0.728790283203125|17300.296453875|0.0127126534776491|1.029621685473159|-0.1145675982006824|4.340865612030029|1.464293479919434|0.7312266826629639|-1.96159291267395|1.14160418510437|-0.1944720149040222|XArbitraryZVertical|0.05295525043712127|-0.4912359227255438|0.02266549893871647|-0.8691198385192931|0.8514852523803711|0.1143171340227127|-0.5117660164833069|0|0|0|-1|-1|3
2021-04-08 19:16:21.383 +0100|17300.321404875|-0.6133575439453125|0.488616943359375|-0.768798828125|17300.316414875|-0.04699206110400283|1.05513776454909|-0.06127382418537502|3.660998106002808|1.543858528137207|0.8503494262695312|-1.82272732257843|0.3900899291038513|-0.2647911906242371|XArbitraryZVertical|0.0146378064277088|-0.5036809159753933|0.03570696174694133|-0.8630275035247935|0.8683356046676636|0.06123549118638039|-0.4921825528144836|0|0|0|-1|-1|3
2021-04-08 19:16:21.403 +0100|17300.341365875|-0.120269775390625|0.28680419921875|-0.69110107421875|17300.336375875|-0.09884196675009987|1.080653723580246|-0.01083853750194333|3.228636741638184|1.137263178825378|1.128074645996094|-1.362621903419495|0.4785271883010864|-0.2684883773326874|XArbitraryZVertical|-0.02077068953606537|-0.5140102475880362|0.04514696827944576|-0.8563433421146712|0.8822139501571655|0.01083832513540983|-0.4707240760326385|0|0|0|-1|-1|3
2021-04-08 19:16:21.423 +0100|17300.361325875|0.1791534423828125|0.0572357177734375|-0.7912445068359375|17300.356335875|-0.1372045183090969|1.098059711013823|0.03894815883836295|2.467482566833496|0.5648854374885559|1.507245421409607|-0.9142477512359619|0.2277972102165222|-0.2429888546466827|XArbitraryZVertical|-0.05233778280255351|-0.5193950039041632|0.0483246936115244|-0.8515599681435319|0.8896504044532776|-0.03893831372261047|-0.4549791812896729|0|0|0|-1|-1|3
2021-04-08 19:16:21.443 +0100|17300.381286875|0.3073577880859375|-0.01483154296875|-0.8695526123046875|17300.376296875|-0.160372340403925|1.103816603240322|0.08841348335592839|1.880158066749573|-0.1630196869373322|1.890015840530396|-0.6560003161430359|0.1388210356235504|-0.3730549812316895|XArbitraryZVertical|-0.07946657985200618|-0.5191035857217008|0.04504461234194448|-0.849816243377794|0.8894444108009338|-0.08829834312200546|-0.4484330713748932|0|0|0|-1|-1|3
2021-04-08 19:16:21.463 +0100|17300.401247875|0.2734527587890625|-0.151123046875|-0.7747802734375|17300.396257875|-0.1704757174737687|1.097504964727058|0.137926286841974|1.260025501251221|-0.4251975119113922|1.967827320098877|-0.5879495739936829|0.08698363602161407|-0.3874850571155548|XArbitraryZVertical|-0.1028802853957137|-0.5134889254743438|0.0366484324253829|-0.851117975795939|0.8816201090812683|-0.1374893933534622|-0.4514895379543304|0|0|0|-1|-1|3
2021-04-08 19:16:21.483 +0100|17300.421208875|0.41094970703125|-0.0960540771484375|-0.769866943359375|17300.416217875|-0.1723598086393569|1.090411341859755|0.1808612189261278|0.9573146104812622|-0.3691703081130981|1.769891977310181|-0.5723341703414917|0.0214608907699585|-0.3151929080486298|XArbitraryZVertical|-0.1213828200066001|-0.507912079825521|0.02663464375320347|-0.8523979189710598|0.8723523616790771|-0.1798768043518066|-0.4545830488204956|0|0|0|-1|-1|3
2021-04-08 19:16:21.503 +0100|17300.441168875|0.474365234375|-0.1521148681640625|-0.8004608154296875|17300.436178875|-0.1750284097825447|1.08130942427076|0.2208267807700397|1.104067325592041|-0.633697509765625|1.693698763847351|-0.4199957251548767|0.1334048807621002|-0.3208316266536713|XArbitraryZVertical|-0.138823487331094|-0.5013483388188522|0.01798311962347571|-0.8538469264245531|0.8611424565315247|-0.2190364003181458|-0.458755761384964|0|0|0|-1|-1|3
2021-04-08 19:16:21.523 +0100|17300.461129875|0.372039794921875|-0.4088592529296875|-0.77630615234375|17300.456139875|-0.1749717448629305|1.064220756892599|0.2594320796844836|0.7419962286949158|-1.037534236907959|1.705163836479187|-0.381679356098175|0.04315358400344849|-0.3167873024940491|XArbitraryZVertical|-0.1549989609231787|-0.4914271324877236|0.009284787300809947|-0.8569646827873864|0.8451496362686157|-0.256531685590744|-0.4689493775367737|0|0|0|-1|-1|3
2021-04-08 19:16:21.543 +0100|17300.481090875|0.2739410400390625|-0.40484619140625|-0.73956298828125|17300.476100875|-0.1676987722922917|1.041784115110825|0.2953971093820202|0.4898280203342438|-0.9424099326133728|1.774264693260193|-0.4920663833618164|-0.1467761695384979|-0.2868936061859131|XArbitraryZVertical|-0.1684216999607946|-0.4798160221986806|-0.001125725340659674|-0.8610514567134242|0.8259133696556091|-0.291119784116745|-0.4828214347362518|0|0|0|-1|-1|3
2021-04-08 19:16:21.563 +0100|17300.501050875|0.3454742431640625|-0.368499755859375|-0.6678009033203125|17300.496060875|-0.1594835015685769|1.021417026956189|0.333661962861042|0.8464624285697937|-0.9349567890167236|1.952445387840271|-0.5220155119895935|-0.05257517099380493|-0.2120080292224884|XArbitraryZVertical|-0.1828040451146118|-0.4689374722767592|-0.01238251126987689|-0.8640180052053283|0.8058136701583862|-0.3275052309036255|-0.4933606684207916|0|0|0|-1|-1|3
2021-04-08 19:16:21.583 +0100|17300.521011875|0.281829833984375|-0.612548828125|-0.467681884765625|17300.516021875|-0.1509448889207928|0.9938488899650421|0.3783984283692832|0.7795368432998657|-1.51419997215271|2.250541687011719|-0.4194346070289612|-0.04740622639656067|-0.09285181760787964|XArbitraryZVertical|-0.2001589438257519|-0.4544185662796353|-0.02430491565180802|-0.8676691006549516|0.778840184211731|-0.369432657957077|-0.5068803429603577|0|0|0|-1|-1|3
2021-04-08 19:16:21.603 +0100|17300.540972875|0.148101806640625|-0.6138916015625|-0.467864990234375|17300.535982875|-0.1348264710077383|0.9557605240524261|0.4248529551708169|0.6004794836044312|-1.630255341529846|2.444230556488037|-0.5078911781311035|-0.2289715111255646|0.08073103427886963|XArbitraryZVertical|-0.2170713832598672|-0.4359281946096798|-0.03826994978881926|-0.8725722106340744|0.744143009185791|-0.4121868014335632|-0.5256932377815247|0|0|0|-1|-1|3
2021-04-08 19:16:21.623 +0100|17300.560933875|0.1561126708984375|-0.640167236328125|-0.4138336181640625|17300.555943875|-0.1101068596742069|0.9116267627588975|0.4710456347990114|0.3455757796764374|-1.750087976455688|2.627702951431274|-0.5567364692687988|-0.142891138792038|0.08640891313552856|XArbitraryZVertical|-0.2327627171155203|-0.415862300601763|-0.05452031165592203|-0.8774438042470319|0.7044110298156738|-0.453818291425705|-0.5457601547241211|0|0|0|-1|-1|3
2021-04-08 19:16:21.643 +0100|17300.580893875|0.047088623046875|-0.5888519287109375|-0.48602294921875|17300.575903875|-0.07267500344272002|0.8554984549275764|0.5141427892047101|-0.2397049069404602|-2.073440790176392|2.833511590957642|-0.5164315700531006|-0.1384901702404022|0.129202127456665|XArbitraryZVertical|-0.2457642445227533|-0.3925228385896213|-0.07342902249821301|-0.8832519718284384|0.6573007106781006|-0.4917886555194855|-0.5710515379905701|0|0|0|-1|-1|3
2021-04-08 19:16:21.662 +0100|17300.600854875|0.0350341796875|-0.523529052734375|-0.6313934326171875|17300.595864875|-0.02123586741478246|0.7885583755372587|0.5529904337625099|-0.1280954778194427|-2.051101922988892|3.065481424331665|-0.5927674770355225|-0.06315910816192627|0.05304455757141113|XArbitraryZVertical|-0.2559500624499523|-0.366855344905445|-0.09542879010116938|-0.8892695285175548|0.6036165356636047|-0.5252342820167542|-0.5998134613037109|0|0|0|-1|-1|3
2021-04-08 19:16:21.682 +0100|17300.620815875|0.131378173828125|-0.6776275634765625|-0.584259033203125|17300.615825875|0.03685551358718186|0.7140722241092868|0.595526322483411|-0.04282277449965477|-2.298410654067993|3.402359247207642|-0.4726864099502563|0.03122121095657349|0.02928042411804199|XArbitraryZVertical|-0.2686774924880665|-0.3391275475658065|-0.1190243457445944|-0.8936656297954494|0.5421749353408813|-0.5609445571899414|-0.625609815120697|0|0|0|-1|-1|3
2021-04-08 19:16:21.702 +0100|17300.640776875|0.07958984375|-0.6841278076171875|-0.69769287109375|17300.635785875|0.1060250660484179|0.6249436390204213|0.6396794336300961|-0.1926013976335526|-2.606415510177612|3.753676652908325|-0.343128114938736|-0.08648687601089478|0.03530997037887573|XArbitraryZVertical|-0.2833061224207913|-0.3072649539557276|-0.1443836282937216|-0.896927718354313|0.4693793654441833|-0.5969383120536804|-0.650651752948761|0|0|0|-1|-1|3
2021-04-08 19:16:21.722 +0100|17300.660736875|0.026947021484375|-0.4331512451171875|-0.9964752197265625|17300.655746875|0.1871437073166949|0.5247646214576511|0.680537564796924|0.4675018489360809|-2.456134796142578|3.808875799179077|-0.3296025395393372|-0.0641782283782959|-0.1102624535560608|XArbitraryZVertical|-0.2980621635614242|-0.2735566166824027|-0.1712513056629969|-0.8983311851931587|0.3894018232822418|-0.6292109489440918|-0.672651469707489|0|0|0|-1|-1|3
2021-04-08 19:16:21.742 +0100|17300.680697875|0.000762939453125|-0.7170867919921875|-0.8375396728515625|17300.675707875|0.2705161256509905|0.4224499677852829|0.7289069618296805|0.8042303919792175|-2.424467325210571|4.101559638977051|-0.2771002948284149|0.25602126121521|-0.2690283060073853|XArbitraryZVertical|-0.3189190169714562|-0.2410941649309757|-0.1972366124503998|-0.8951324781633129|0.3058174252510071|-0.6660547256469727|-0.6803285479545593|0|0|0|-1|-1|3
