loggingTime(txt)|accelerometerTimestamp_sinceReboot(s)|accelerometerAccelerationX(G)|accelerometerAccelerationY(G)|accelerometerAccelerationZ(G)|motionTimestamp_sinceReboot(s)|motionYaw(rad)|motionRoll(rad)|motionPitch(rad)|motionRotationRateX(rad/s)|motionRotationRateY(rad/s)|motionRotationRateZ(rad/s)|motionUserAccelerationX(G)|motionUserAccelerationY(G)|motionUserAccelerationZ(G)|motionAttitudeReferenceFrame(txt)|motionQuaternionX(R)|motionQuaternionY(R)|motionQuaternionZ(R)|motionQuaternionW(R)|motionGravityX(G)|motionGravityY(G)|motionGravityZ(G)|motionMagneticFieldX(µT)|motionMagneticFieldY(µT)|motionMagneticFieldZ(µT)|motionHeading(°)|motionMagneticFieldCalibrationAccuracy(Z)|label
2021-04-09 09:36:10.975 +0100|28055.6662905|-0.0564727783203125|0.1100311279296875|-0.9738922119140625|28055.6463275|0.8756488403844704|-0.005796180966998317|-0.1213306294626497|-0.07250083237886429|-0.08724804222583771|-0.04945273324847221|-0.02178819850087166|-0.02184998244047165|0.003572463989257812|XArbitraryZVertical|-0.05368276094933283|-0.02832429142752618|0.4233475048779257|0.9039319459190225|-0.005753538105636835|0.1210331618785858|-0.9926317930221558|0|0|0|-1|-1|3
2021-04-09 09:36:10.987 +0100|28055.6862525|0.0283050537109375|0.1167755126953125|-0.9846038818359375|28055.6662905|0.8742345124731866|-0.006281520363346972|-0.1201819442606249|0.08451398462057114|0.02600974775850773|-0.02084061689674854|-0.06282473355531693|0.01446184515953064|0.02389532327651978|XArbitraryZVertical|-0.05308076260748236|-0.02826315935697372|0.4227342390408944|0.9042563265547381|-0.006236169952899218|0.119892843067646|-0.9927672743797302|0|0|0|-1|-1|3
2021-04-09 09:36:10.996 +0100|28055.7062145|0.0080413818359375|0.1399688720703125|-0.994293212890625|28055.6862525|0.8740182258755247|-0.006173409292643976|-0.119163967707746|0.08562062680721283|-0.0173784177750349|-0.009011300280690193|0.03226827085018158|-0.002181872725486755|0.008102595806121826|XArbitraryZVertical|-0.05264629835611492|-0.02799358901453916|0.4226450421319307|0.9043317880446853|-0.006129590794444084|0.1188821420073509|-0.9928894639015198|0|0|0|-1|-1|3
2021-04-09 09:36:10.997 +0100|28055.7261765|0.0083465576171875|0.0915069580078125|-1.00421142578125|28055.7062145|0.8741083825756425|-0.006462789459623285|-0.1164188104478968|0.1626285016536713|-0.04327595606446266|0.01396281458437443|0.01250763237476349|0.02100629359483719|0.004044115543365479|XArbitraryZVertical|-0.0513423696371668|-0.02754707845060704|0.4227236022134622|0.9043837625327951|-0.006418997887521982|0.1161560118198395|-0.9932102560997009|0|0|0|-1|-1|3
2021-04-09 09:36:10.997 +0100|28055.7461395|-0.003662109375|0.12078857421875|-1.004959106445312|28055.7261765|0.8744000447124151|-0.007660051313000924|-0.1127487228500771|0.1377802044153214|-0.05067714676260948|0.01829622127115726|0.0216192826628685|-0.00882546603679657|-0.006042718887329102|XArbitraryZVertical|-0.04942533582215061|-0.02732059214192736|0.422924262077066|0.9044036675963515|-0.007611339911818504|0.1125099956989288|-0.9936214685440063|0|0|0|-1|-1|3
2021-04-09 09:36:10.998 +0100|28055.7661015|-0.0016937255859375|0.1107635498046875|-0.9987640380859375|28055.7661015|0.8750563669831594|-0.008751112807928726|-0.1100677920275045|0.05674679949879646|-0.01844346895813942|-0.006051551084965467|0.007157281041145325|0.0107913613319397|-0.009156286716461182|XArbitraryZVertical|-0.04797303990865517|-0.0272633322963406|0.4232742295377613|0.9043199170250169|-0.008698046207427979|0.1098456829786301|-0.9939106106758118|0|0|0|-1|-1|3
2021-04-09 09:36:11.006 +0100|28055.7860635|0.0019073486328125|0.107391357421875|-0.9901580810546875||||||||||||||||||||||||3
2021-04-09 09:36:11.026 +0100|28055.8060265|-0.00494384765625|0.1186981201171875|-0.98370361328125|28055.7860635|0.8749571375870749|-0.008491405129061651|-0.1100446637535435|-0.002592271892353892|-0.00716658029705286|-0.006916634738445282|0.008608162403106689|-0.01094468683004379|1.901388168334961e-05|XArbitraryZVertical|-0.04801889318805146|-0.02713863842380108|0.4232233871813546|0.9043448923667143|-0.008439940400421619|0.1098226979374886|-0.9939153790473938|0|0|0|-1|-1|3
2021-04-09 09:36:11.046 +0100|28055.8259885|-0.010955810546875|0.0973358154296875|-0.99102783203125|28055.8060265|0.87468623157915|-0.008389454717898426|-0.1100103564084732|0.02077205665409565|-0.02226787619292736|-0.0184983666986227|0.006935209035873413|0.01292364299297333|0.01113200187683105|XArbitraryZVertical|-0.04802861734484053|-0.02707877699371333|0.4230987549798335|0.904404559036733|-0.008338642306625843|0.1097885966300964|-0.9939199686050415|0|0|0|-1|-1|3
2021-04-09 09:36:11.066 +0100|28055.8459505|-0.0157318115234375|0.116729736328125|-0.99755859375|28055.8259885|0.8744448161329226|-0.008601976504474921|-0.1096295228547942|-0.009238656610250473|-0.01367438770830631|-0.01227296143770218|-0.004236257635056973|-0.00943341851234436|0.002520263195037842|XArbitraryZVertical|-0.04781467744263528|-0.02708862632454868|0.4229983819331728|0.9044624967915486|-0.008550230413675308|0.1094100549817085|-0.993959903717041|0|0|0|-1|-1|3
2021-04-09 09:36:11.085 +0100|28055.8659135|-0.015350341796875|0.1038360595703125|-0.99981689453125|28055.8459505|0.8742002123164234|-0.008662964489089977|-0.1101391800181607|0.005201219115406275|-0.004257662687450647|-0.009474600665271282|-0.008234959095716476|-0.0007389485836029053|-0.001030445098876953|XArbitraryZVertical|-0.04803564054259148|-0.02721801558149908|0.4228842993628495|0.9045002285930173|-0.00861036591231823|0.1099166423082352|-0.9939035177230835|0|0|0|-1|-1|3
2021-04-09 09:36:11.105 +0100|28055.8858755|-0.0010833740234375|0.1096038818359375|-0.9985809326171875|28055.8659135|0.8738768486182438|-0.008753178208557129|-0.1093164803344605|0.02727769315242767|-0.005303645506501198|-0.03025639988481998|-0.002071510069072247|0.003939263522624969|-0.009180843830108643|XArbitraryZVertical|-0.04764879046189825|-0.0270773337866227|0.4227481342872121|0.9045885655342788|-0.008700818754732609|0.1090988889336586|-0.993992805480957|0|0|0|-1|-1|3
2021-04-09 09:36:11.125 +0100|28055.9058375|-0.0072174072265625|0.115997314453125|-0.9944610595703125|28055.8858755|0.8733792278271323|-0.008457060318330803|-0.1094344936698063|-0.008435063995420933|0.01319957058876753|-0.02846142835915089|0.003020390868186951|-0.003670096397399902|-0.004918754100799561|XArbitraryZVertical|-0.04777147777376498|-0.02695643385217733|0.4225148436465067|0.9046947258896213|-0.00840636994689703|0.1092161983251572|-0.9939824938774109|0|0|0|-1|-1|3
2021-04-09 09:36:11.145 +0100|28055.9257995|-0.00164794921875|0.1343994140625|-0.9819183349609375|28055.9058375|0.8727384397331226|-0.008264500948966443|-0.1097184278744944|-0.02949289418756962|0.01671718060970306|-0.03250810503959656|0.003606931306421757|0.005325011909008026|-0.006046831607818604|XArbitraryZVertical|-0.04794924571418512|-0.02691389091685171|0.4222175977120777|0.9048253849411126|-0.008214713074266911|0.1094984263181686|-0.9939530491828918|0|0|0|-1|-1|3
2021-04-09 09:36:11.166 +0100|28055.9457625|-0.002105712890625|0.1022186279296875|-0.9770050048828125|28055.9257995|0.8722215088613609|-0.008108554587381623|-0.1099713249074008|-0.005830609239637852|0.01140891574323177|-0.01990709081292152|0.003848433494567871|0.02068338543176651|0.006194770336151123|XArbitraryZVertical|-0.04810355525470889|-0.02688424445027709|0.4219775121474846|0.9049300552705937|-0.008059484884142876|0.1097498014569283|-0.9939265847206116|0|0|0|-1|-1|3
2021-04-09 09:36:11.185 +0100|28055.9657245|-0.0025634765625|0.1032257080078125|-0.98724365234375|28055.9457625|0.8717693381156393|-0.008179563363056034|-0.1101670856363712|-0.01128459628671408|-0.003589688334614038|-0.02420090511441231|0.00893897283822298|-0.0009040236473083496|0.01648765802383423|XArbitraryZVertical|-0.04818326035136537|-0.0269467453107558|0.4217727123046429|0.9050194065345056|-0.008129886351525784|0.1099443733692169|-0.9939044713973999|0|0|0|-1|-1|3
2021-04-09 09:36:11.206 +0100|28055.9856865|-0.0083770751953125|0.1254425048828125|-0.9973602294921875|28055.9657245|0.8712523211624608|-0.008441913847286783|-0.1102949651849353|0.004247258417308331|-0.02041058614850044|-0.01713687181472778|0.002592548727989197|-0.01220054924488068|0.01250410079956055|XArbitraryZVertical|-0.04819281313706058|-0.02707994153480275|0.4215438026831498|0.9051216328814906|-0.008390518836677074|0.1100714802742004|-0.993888258934021|0|0|0|-1|-1|3
2021-04-09 09:36:11.226 +0100|28056.0056495|-0.016510009765625|0.0991668701171875|-0.9950103759765625|28055.9856865|0.8709387012197624|-0.009010561754474939|-0.1093719046730476|0.08158822357654572|-0.04155789688229561|-0.01690588518977165|0.005630556493997574|0.01722036302089691|-0.001544535160064697|XArbitraryZVertical|-0.04765937281490504|-0.02713545864320374|0.4214243567281717|0.9052038302366172|-0.008956600911915302|0.1091539785265923|-0.9939845204353333|0|0|0|-1|-1|3
2021-04-09 09:36:11.245 +0100|28056.0256115|-0.013580322265625|0.105621337890625|-0.9881134033203125|28056.0056495|0.8706506776443271|-0.009670350924535987|-0.1084415171759342|0.02552518248558044|-0.0183187797665596|-0.009800304658710957|-0.007491334341466427|-0.003217071294784546|-0.002914369106292725|XArbitraryZVertical|-0.0471030658788848|-0.02723146176009097|0.4213183217185401|0.9052794708212542|-0.009613397531211376|0.1082291081547737|-0.9940794706344604|0|0|0|-1|-1|3
2021-04-09 09:36:11.265 +0100|28056.0455735|-0.0067291259765625|0.1114959716796875|-0.9833221435546875|28056.0256115|0.8703397687885772|-0.009690684583547783|-0.1088309201567965|-0.02742341905832291|-0.004274013917893171|-0.02759252861142159|-0.001657929271459579|-0.00876164436340332|-0.001812398433685303|XArbitraryZVertical|-0.04727933382205928|-0.02731526193066919|0.4211744967536428|0.9053345481835182|-0.009633201174438|0.1086162105202675|-0.9940370917320251|0|0|0|-1|-1|3
2021-04-09 09:36:11.285 +0100|28056.06553529167|-0.00628662109375|0.1099700927734375|-0.9830474853515625|28056.0455735|0.8697798120108117|-0.009709437593551218|-0.1090857354055351|-0.01155292615294456|-0.006514105945825577|-0.02647675387561321|-0.001700595021247864|0.00422968715429306|0.01166373491287231|XArbitraryZVertical|-0.04739842295067845|-0.02736408245160434|0.4209190929647327|0.9054455965008256|-0.009651573374867439|0.1088695153594017|-0.9940091967582703|0|0|0|-1|-1|3
2021-04-09 09:36:11.305 +0100|28056.08549729167|-0.0108184814453125|0.1165313720703125|-0.98590087890625|28056.06553529167|0.8694208748274416|-0.00986549029829293|-0.1095859014880455|-0.01347175054252148|-0.01850120723247528|-0.0171668753027916|0.007365114986896515|-0.0004484057426452637|0.01244688034057617|XArbitraryZVertical|-0.04759701122233935|-0.02753132770969733|0.4207556284074797|0.9055061578355882|-0.009806152433156967|0.1093666926026344|-0.9939531087875366|0|0|0|-1|-1|3
2021-04-09 09:36:11.325 +0100|28056.10545929167|-0.0171051025390625|0.1081695556640625|-0.9864654541015625|28056.08549729167|0.8690287051968668|-0.01045172471149569|-0.1100049254102038|-0.02336050197482109|-0.02792011573910713|-0.02571171522140503|0.001263972371816635|0.006215177476406097|0.009007573127746582|XArbitraryZVertical|-0.04766890640085216|-0.02787544359728977|0.4205881407141183|0.9055696994915331|-0.01038836035877466|0.1097831949591637|-0.993901252746582|0|0|0|-1|-1|3
2021-04-09 09:36:11.345 +0100|28056.12542129167|-0.018035888671875|0.095062255859375|-0.98077392578125|28056.10545929167|0.8683625932340504|-0.01117177259861207|-0.1102037578884795|-0.02621913701295853|-0.03190601617097855|-0.04013131186366081|-0.004032578319311142|0.003255710005760193|0.01029026508331299|XArbitraryZVertical|-0.04761693923866735|-0.02822737282914595|0.4203018621734269|0.9056943978660588|-0.01110377069562674|0.1099808216094971|-0.9938716888427734|0|0|0|-1|-1|3
2021-04-09 09:36:11.365 +0100|28056.14538429167|-0.02130126953125|0.0960235595703125|-0.9761199951171875|28056.12542129167|0.8674486735171332|-0.01193863115367934|-0.1113139959268054|-0.08306905627250671|-0.02940551936626434|-0.04804711788892746|-0.004553626291453838|-0.01132124662399292|0.01467537879943848|XArbitraryZVertical|-0.04797184803491304|-0.0287857171488868|0.4198962854346071|0.9058461587998645|-0.01186446100473404|0.1110842600464821|-0.9937401413917542|0|0|0|-1|-1|3
2021-04-09 09:36:11.385 +0100|28056.16534629167|-0.023223876953125|0.079986572265625|-0.9705810546875|28056.14538429167|0.866402999090266|-0.01237882815923972|-0.1132642432954072|-0.1120646223425865|-0.02534142881631851|-0.05734873935580254|-0.007033322006464005|-0.01759269833564758|0.01509237289428711|XArbitraryZVertical|-0.04877835469311018|-0.02936842989368936|0.4194156665037375|0.9060070404694572|-0.01229919586330652|0.1130222231149673|-0.9935163259506226|0|0|0|-1|-1|3
2021-04-09 09:36:11.405 +0100|28056.18530829167|-0.0335845947265625|0.0769195556640625|-0.9583587646484375|28056.16534629167|0.8651411584061564|-0.01285257575327536|-0.1156700398445621|-0.1366914957761765|-0.01627214066684246|-0.0659719705581665|-0.01057924330234528|-0.02742904424667358|0.01951140165328979|XArbitraryZVertical|-0.04978813353261831|-0.03005534113139305|0.4188336606545983|0.9061988587811539|-0.01276633888483047|0.1154122799634933|-0.9932356476783752|0|0|0|-1|-1|3
2021-04-09 09:36:11.430 +0100|28056.20527129167|-0.052825927734375|0.0968475341796875|-0.9697723388671875|28056.18530829167|0.8635312977826052|-0.01349112547065028|-0.1187787703937816|-0.1626880019903183|-0.02852502465248108|-0.1062867194414139|-0.01284909155219793|-0.04864387959241867|0.03235363960266113|XArbitraryZVertical|-0.05108833565377451|-0.03095345968509228|0.4180913788565412|0.90643901935675|-0.01339566148817539|0.1184996739029884|-0.9928637146949768|0|0|0|-1|-1|3
2021-04-09 09:36:11.445 +0100|28056.22523329167|-0.086761474609375|0.0800323486328125|-0.9595184326171875|28056.20527129167|0.8605045521752397|-0.01506800560750816|-0.1204295827018272|-0.02986500598490238|-0.0809757187962532|-0.1912261992692947|-0.03394575417041779|-0.02808135747909546|0.0197746753692627|XArbitraryZVertical|-0.05155552020878846|-0.03193458623673225|0.4167443845269176|0.9069986132874537|-0.01495830342173576|0.1201386898756027|-0.9926444292068481|0|0|0|-1|-1|3
2021-04-09 09:36:11.465 +0100|28056.24519529167|-0.1235504150390625|0.004547119140625|-0.9405059814453125|28056.22523329167|0.8558764555942374|-0.01734486393553625|-0.1189185575989955|0.04020734131336212|-0.06957796961069107|-0.2906893193721771|-0.05377728492021561|-0.003738731145858765|0.02124589681625366|XArbitraryZVertical|-0.05047091622761111|-0.03253622706041789|0.4147157595788261|0.9079674667369863|-0.01722150295972824|0.1186384707689285|-0.9927881360054016|0|0|0|-1|-1|3
2021-04-09 09:36:11.485 +0100|28056.26515729167|-0.159912109375|0.107330322265625|-0.92510986328125|28056.24519529167|0.8491077789534287|-0.01896663593491579|-0.1204250162330004|-0.2598705291748047|0.0005439100787043571|-0.4068243801593781|-0.09010399878025055|-0.129776656627655|0.04278063774108887|XArbitraryZVertical|-0.05093220557341653|-0.03341191576604138|0.4116693322676021|0.9092953378044093|-0.01882814429700375|0.1201341599225998|-0.9925791025161743|0|0|0|-1|-1|3
2021-04-09 09:36:11.505 +0100|28056.28512029167|-0.1815338134765625|0.0401763916015625|-0.873504638671875|28056.26515729167|0.8391192580850066|-0.01926736910451992|-0.1230570194364696|-0.1004700139164925|0.05731280893087387|-0.5507650375366211|-0.1598189920186996|-0.01712427288293839|0.07530754804611206|XArbitraryZVertical|-0.05223711432925086|-0.03382852801452836|0.4071095844842004|0.9112567159990922|-0.01912048645317554|0.1227466762065887|-0.992253839969635|0|0|0|-1|-1|3
2021-04-09 09:36:11.525 +0100|28056.30508229167|-0.207489013671875|0.061767578125|-0.83917236328125|28056.28512029167|0.8260005625809254|-0.02052864747880426|-0.1241460695397453|-0.1682109236717224|0.05476197972893715|-0.7313924431800842|-0.1493539661169052|-0.07264837622642517|0.09500008821487427|XArbitraryZVertical|-0.05270280750564878|-0.03427930073899173|0.4011482160796689|0.9138532091595979|-0.02036922425031662|0.1238274201750755|-0.9920946955680847|0|0|0|-1|-1|3
2021-04-09 09:36:11.545 +0100|28056.32504429167|-0.179351806640625|0.0685272216796875|-0.867767333984375|28056.30508229167|0.8094955507790509|-0.02200318082203973|-0.128862217068737|-0.37873375415802|0.08346728980541229|-0.9056429862976074|-0.1845863461494446|-0.07912735641002655|0.1499618887901306|XArbitraryZVertical|-0.05485742913261805|-0.03544453199676641|0.393597141794955|0.9169600669823083|-0.0218189861625433|0.1285058706998825|-0.9914686679840088|0|0|0|-1|-1|3
2021-04-09 09:36:11.565 +0100|28056.34500729167|-0.171173095703125|0.17401123046875|-0.907073974609375|28056.32504429167|0.7889138980979155|-0.02311951619075853|-0.1378069683522334|-0.5279721021652222|0.07111895084381104|-1.081041216850281|-0.1643877923488617|-0.08378127217292786|0.1358392238616943|XArbitraryZVertical|-0.0591256441689378|-0.03710383825311542|0.3841040992808858|0.9206473315835225|-0.02289829403162003|0.1373712122440338|-0.9902549386024475|0|0|0|-1|-1|3
2021-04-09 09:36:11.585 +0100|28056.36496929167|-0.1636962890625|0.181915283203125|-0.9169769287109375|28056.34500729167|0.7649504429926114|-0.02495973880868317|-0.1470618908725686|-0.4370459020137787|0.0780121237039566|-1.282653331756592|-0.1495521068572998|0.01673775911331177|0.1046205759048462|XArbitraryZVertical|-0.06350609815067129|-0.03896274118596214|0.373031036406117|0.9248226098161233|-0.0246877558529377|0.1465323716402054|-0.9888977408409119|0|0|0|-1|-1|3
2021-04-09 09:36:11.605 +0100|28056.38493129167|-0.163726806640625|0.149871826171875|-0.9411163330078125|28056.36496929167|0.7370510882786847|-0.02742093866066168|-0.1546707410220942|-0.4655234217643738|0.09581092745065689|-1.438651204109192|-0.1404052972793579|0.03321743011474609|0.08047974109649658|XArbitraryZVertical|-0.06714022067543475|-0.04058025057020119|0.3601179599688937|0.9296024343191467|-0.02709020115435123|0.1540547758340836|-0.9876908659934998|0|0|0|-1|-1|3
2021-04-09 09:36:11.625 +0100|28056.40489429167|-0.1119842529296875|0.105072021484375|-0.9476165771484375|28056.38493129167|0.7062934758993463|-0.02927573539296693|-0.1662579487774923|-0.7619499564170837|0.2238794267177582|-1.582623243331909|-0.1358657628297806|-0.0003460943698883057|0.06768250465393066|XArbitraryZVertical|-0.07285597916283701|-0.04240077702442766|0.3457612016624175|0.9345284958217653|-0.0288679264485836|0.1654930710792542|-0.9857883453369141|0|0|0|-1|-1|3
2021-04-09 09:36:11.645 +0100|28056.42485629167|-0.0816192626953125|0.0976715087890625|-0.828765869140625|28056.40489429167|0.6715841804179015|-0.030114354087927|-0.1816388486616878|-0.8431133627891541|0.2527013719081879|-1.782296776771545|-0.09628564119338989|-0.07677401602268219|-0.00562053918838501|XArbitraryZVertical|-0.08067862350647899|-0.04403914490938386|0.3294111785813023|0.9397020137156125|-0.02961446531116962|0.180641695857048|-0.9831030368804932|0|0|0|-1|-1|3
2021-04-09 09:36:11.665 +0100|28056.44481829167|-0.084869384765625|0.0520172119140625|-0.90814208984375|28056.42485629167|0.6333601624977182|-0.03332881742686954|-0.196601812105334|-0.7098429799079895|0.1503899246454239|-1.955381274223328|-0.04904523491859436|-0.103448212146759|0.1413396596908569|XArbitraryZVertical|-0.08808528918674338|-0.04631727210370078|0.311421077698611|0.9450465094008393|-0.03268072009086609|0.1953377425670624|-0.9801914095878601|0|0|0|-1|-1|3
2021-04-09 09:36:11.685 +0100|28056.46478029167|-0.1127777099609375|0.2790985107421875|-0.9860687255859375|28056.44481829167|0.5912411444370851|-0.03925866026493846|-0.2081920527573392|-0.7577318549156189|0.122706726193428|-2.096149444580078|-0.05255651473999023|-0.1256660521030426|0.07498836517333984|XArbitraryZVertical|-0.0936942418145164|-0.04894108368858961|0.2916517542105025|0.9506658176044117|-0.0384010523557663|0.2066913247108459|-0.9776523113250732|0|0|0|-1|-1|3
2021-04-09 09:36:11.705 +0100|28056.48474329167|-0.071502685546875|0.2743072509765625|-1.06414794921875|28056.46478029167|0.5464474724273222|-0.04446219487550804|-0.2265689333905926|-1.140590310096741|0.3356215953826904|-2.231799125671387|-0.05562637373805046|-0.02300471067428589|0.02603137493133545|XArbitraryZVertical|-0.1028623996609367|-0.05176295250052459|0.2704607605518116|0.9558195199543517|-0.04331159591674805|0.2246354669332504|-0.9734798669815063|0|0|0|-1|-1|3
2021-04-09 09:36:11.725 +0100|28056.50470529167|-0.1297149658203125|0.0517120361328125|-0.9051361083984375|28056.48474329167|0.4976305409514397|-0.04762527705034034|-0.2415012480125585|-0.565784215927124|0.4235008060932159|-2.442724943161011|-0.05155263096094131|0.0528632253408432|-0.1077573299407959|XArbitraryZVertical|-0.1108940321962169|-0.05256402775628108|0.2471732509896496|0.9611686478972671|-0.04622571542859077|0.2391605824232101|-0.9698790907859802|0|0|0|-1|-1|3
2021-04-09 09:36:11.744 +0100|28056.52466729167|-0.1776580810546875|-0.0374298095703125|-0.787994384765625|28056.50470529167|0.4446423214643465|-0.05232068264677098|-0.245774896677547|-0.261206716299057|0.3933265507221222|-2.660497426986694|-0.04644281044602394|-0.1427972614765167|0.01410853862762451|XArbitraryZVertical|-0.1137965476672249|-0.05233974559297561|0.2218839741384686|0.9669946543914685|-0.05072524771094322|0.2433080077171326|-0.9686217904090881|0|0|0|-1|-1|3
2021-04-09 09:36:11.764 +0100|28056.54463029167|-0.1427764892578125|0.0059967041015625|-0.73590087890625|28056.52466729167|0.3871891603114682|-0.05885062723494981|-0.2501353401078553|-0.5159433484077454|0.3510729372501373|-2.877814531326294|-0.1264550983905792|-0.2727262377738953|0.1612631678581238|XArbitraryZVertical|-0.1167425414162814|-0.05263433488109179|0.1944036994597982|0.9725266732513004|-0.05698622390627861|0.2475350946187973|-0.9672015905380249|0|0|0|-1|-1|3
2021-04-09 09:36:11.785 +0100|28056.56459229167|-0.1381378173828125|0.075927734375|-0.669891357421875|28056.54463029167|0.3245470687957321|-0.06898689082774688|-0.2596332736586972|-0.7942653894424438|0.1874632388353348|-3.10725212097168|-0.08395208418369293|-0.2634694278240204|0.2202891111373901|XArbitraryZVertical|-0.1221507987714798|-0.05464933785659312|0.1645132656330315|0.9772553854833883|-0.06662186235189438|0.2567261457443237|-0.9641852378845215|0|0|0|-1|-1|3
2021-04-09 09:36:11.804 +0100|28056.58455429167|-0.135223388671875|0.12841796875|-0.6378936767578125|28056.56459229167|0.2578516710941617|-0.085189270745908|-0.2728556751855339|-1.005366325378418|-0.07790035754442215|-3.227156639099121|-0.0591445192694664|-0.1932485699653625|0.2834574580192566|XArbitraryZVertical|-0.1293300818083022|-0.05930612428037209|0.1330020410866364|0.9808502681544161|-0.08193852752447128|0.2694825530052185|-0.9595130085945129|0|0|0|-1|-1|3
2021-04-09 09:36:11.825 +0100|28056.60451629167|-0.1475372314453125|0.397216796875|-0.6692962646484375|28056.58455429167|0.1881264071954611|-0.1090824451050964|-0.2905048609391857|-1.377882480621338|-0.3598999381065369|-3.2714524269104|-0.02692125737667084|-0.1855132877826691|0.3230717182159424|XArbitraryZVertical|-0.1388217517146259|-0.0672762883095224|0.1006528876641075|0.9828894240092507|-0.1043046861886978|0.2864359617233276|-0.9524048566818237|0|0|0|-1|-1|3
2021-04-09 09:36:11.844 +0100|28056.62447929167|-0.2381439208984375|0.6032257080078125|-0.9001007080078125|28056.60451629167|0.1165996444577464|-0.1403956822862963|-0.3123920806252685|-1.588470816612244|-0.631958544254303|-3.240052461624146|-0.002000540494918823|0.02187356352806091|0.292275071144104|XArbitraryZVertical|-0.1508778237853115|-0.07821036853838532|0.06830830380834048|0.9830834562018063|-0.1331622153520584|0.3073358237743378|-0.9422380328178406|0|0|0|-1|-1|3
2021-04-09 09:36:11.864 +0100|28056.64444129167|-0.3934783935546875|0.8343353271484375|-1.264328002929688|28056.62447929167|0.04491928652502728|-0.1768622979361577|-0.3321713846594841|-1.344937086105347|-0.7298837900161743|-3.14104962348938|-0.05178549885749817|0.2386627793312073|0.09793335199356079|XArbitraryZVertical|-0.1626795457197749|-0.0907769622994455|0.03665915954561693|0.9818101869981265|-0.166324108839035|0.3260964751243591|-0.9305897951126099|0|0|0|-1|-1|3
2021-04-09 09:36:11.884 +0100|28056.66440329167|-0.6163787841796875|0.8073272705078125|-1.535919189453125|28056.64444129167|-0.02150361675654592|-0.212903500337|-0.3422660384667747|-0.9601967334747314|-0.6141793131828308|-2.806695461273193|-0.1390773504972458|0.4376785159111023|-0.2508416175842285|XArbitraryZVertical|-0.1704508108160247|-0.1028720712077436|0.007558777004041144|0.9799524471061841|-0.1990426778793335|0.3356225490570068|-0.9207277297973633|0|0|0|-1|-1|3
2021-04-09 09:36:11.904 +0100|28056.68436629167|-0.582977294921875|0.8652801513671875|-1.485992431640625|28056.66440329167|-0.08044101228587186|-0.239416981606968|-0.3499480187756247|-1.08966588973999|0.04436500370502472|-2.421434879302979|-0.3554840683937073|0.4812943935394287|-0.5716872215270996|XArbitraryZVertical|-0.1774255455668522|-0.1105545043826127|-0.01853973063792456|0.9777292148211284|-0.2227635830640793|0.3428489863872528|-0.9125957489013672|0|0|0|-1|-1|3
2021-04-09 09:36:11.931 +0100|28056.70432829167|-0.4949188232421875|0.78955078125|-1.166000366210938|28056.68436629167|-0.1312268396743133|-0.2492011782296721|-0.3603527021243198|-1.047435164451599|0.6812035441398621|-1.943852782249451|-0.3679354786872864|0.4906277656555176|-0.6336452960968018|XArbitraryZVertical|-0.1854477168636646|-0.1103449208942487|-0.04178173443448322|0.9755447913733432|-0.2307894825935364|0.3526042997837067|-0.9068663120269775|0|0|0|-1|-1|3
2021-04-09 09:36:11.946 +0100|28056.72429029167|-0.291168212890625|0.63275146484375|-0.897705078125|28056.72429029167|-0.2057369680505921|-0.2377126854230215|-0.3856209322656554|-1.011711716651917|1.066903948783875|-1.200566172599792|-0.1246778964996338|0.3060867190361023|-0.05830675363540649|XArbitraryZVertical|-0.2012109930715806|-0.09622630780410706|-0.07747195061720949|0.9717267852131313|-0.2181877791881561|0.3761345446109772|-0.900509238243103|0|0|0|-1|-1|3
2021-04-09 09:36:11.964 +0100|28056.74425229167|-0.0698699951171875|0.4892120361328125|-0.6754150390625||||||||||||||||||||||||3
2021-04-09 09:36:11.984 +0100|28056.76421529167|0.0828399658203125|0.4512481689453125|-0.687530517578125|28056.74425229167|-0.2344310191620379|-0.2289378456343558|-0.3995495312367305|-0.9539175629615784|0.8665807843208313|-1.07508659362793|0.08441857993602753|0.1224719882011414|0.1900771260261536|XArbitraryZVertical|-0.208888953460748|-0.08812312054749648|-0.09136013293639871|0.9696665786042296|-0.2090683281421661|0.3890033960342407|-0.8971994519233704|0|0|0|-1|-1|3
2021-04-09 09:36:12.004 +0100|28056.78417729167|0.0673980712890625|0.39996337890625|-0.786529541015625|28056.76421529167|-0.2600285487454078|-0.2259246500409036|-0.4112318240011252|-0.7012379169464111|0.4242099225521088|-0.964973509311676|0.2666715085506439|0.05508071184158325|0.2148383855819702|XArbitraryZVertical|-0.2154630361360311|-0.08311485261834706|-0.1032881277924141|0.9674706140579586|-0.2053319066762924|0.3997387588024139|-0.893335223197937|0|0|0|-1|-1|3
2021-04-09 09:36:12.024 +0100|28056.80413929167|0.012725830078125|0.4186553955078125|-0.9145050048828125|28056.78417729167|-0.283011827331028|-0.2307277262057702|-0.4192094373601548|-0.6183841824531555|0.07570295035839081|-0.9219666719436646|0.2927001118659973|0.005498915910720825|0.1319889426231384|XArbitraryZVertical|-0.2205031274576887|-0.08231306288852738|-0.1133188743546282|0.9652781887477946|-0.2088843435049057|0.4070384800434113|-0.8892058730125427|0|0|0|-1|-1|3
2021-04-09 09:36:12.044 +0100|28056.82410229167|-0.1468658447265625|0.4995574951171875|-1.026779174804688|28056.80413929167|-0.3060362536363566|-0.2403478436641875|-0.426691270692134|-0.5703367590904236|-0.06689393520355225|-0.9570698738098145|0.2489083558320999|-0.0184287428855896|0.003374755382537842|XArbitraryZVertical|-0.2256064606921906|-0.08375819794600557|-0.1228048684659375|0.9628111536511199|-0.2166977971792221|0.4138610064983368|-0.8841725587844849|0|0|0|-1|-1|3
2021-04-09 09:36:12.064 +0100|28056.84406429167|-0.2655487060546875|0.5136871337890625|-1.057449340820312|28056.82410229167|-0.3298566580378919|-0.2513714413644312|-0.4321136015472455|-0.4989813268184662|-0.005429879762232304|-0.9967769384384155|0.1239096969366074|0.07821890711784363|-0.1233092546463013|XArbitraryZVertical|-0.2299050438994061|-0.08585952754585299|-0.132590577257782|0.9603081829343086|-0.2258697003126144|0.4187910556793213|-0.8795436024665833|0|0|0|-1|-1|3
2021-04-09 09:36:12.084 +0100|28056.86402629167|-0.258087158203125|0.5933074951171875|-0.936859130859375|28056.84406429167|-0.3534809619819535|-0.2589633451665084|-0.4379616242782851|-0.5697569847106934|0.2486299872398376|-0.9372731447219849|-0.01655024290084839|0.07927852869033813|-0.1797084212303162|XArbitraryZVertical|-0.2342206334717674|-0.08619840770005816|-0.1425739136387645|0.9578012826086745|-0.2319093942642212|0.4240943491458893|-0.8754210472106934|0|0|0|-1|-1|3
2021-04-09 09:36:12.104 +0100|28056.88398929167|-0.2734832763671875|0.4864959716796875|-0.8172760009765625|28056.86402629167|-0.3752734633811807|-0.261712099924706|-0.4416944802604944|-0.299753725528717|0.3624048233032227|-0.8766306638717651|-0.03217993676662445|0.1558111608028412|-0.1001735925674438|XArbitraryZVertical|-0.2371203081832292|-0.08456623913527676|-0.1523695621636535|0.9557228181101021|-0.2339036017656326|0.427471935749054|-0.8732450008392334|0|0|0|-1|-1|3
2021-04-09 09:36:12.124 +0100|28056.90395129167|-0.2824554443359375|0.49774169921875|-0.788848876953125|28056.88398929167|-0.394945586640554|-0.2628636219926666|-0.4426197880263143|-0.3305190801620483|0.3727307915687561|-0.817654550075531|-0.03248289227485657|0.08675283193588257|0.03194081783294678|XArbitraryZVertical|-0.238469894787151|-0.08267838869431177|-0.1615478177231178|0.9540434552456633|-0.2348061352968216|0.4283082485198975|-0.8725928068161011|0|0|0|-1|-1|3
2021-04-09 09:36:12.144 +0100|28056.92391329167|-0.27593994140625|0.49066162109375|-0.7950592041015625|28056.90395129167|-0.4140142962034292|-0.2635446270480009|-0.4471517520140204|-0.5375792980194092|0.3739911615848541|-0.7347100377082825|-0.05072258412837982|0.04857385158538818|0.08608061075210571|XArbitraryZVertical|-0.2414361345557411|-0.0802107201456622|-0.1701690009486299|0.9520071087801119|-0.2348922491073608|0.4323990643024445|-0.8705496788024902|0|0|0|-1|-1|3
2021-04-09 09:36:12.164 +0100|28056.94387529167|-0.2808837890625|0.515594482421875|-0.822357177734375|28056.92391329167|-0.4324491029330223|-0.2644417735568786|-0.4552983976480928|-0.682254433631897|0.3486822843551636|-0.6475940942764282|-0.04165390133857727|0.0594310462474823|0.07169830799102783|XArbitraryZVertical|-0.2460634871120659|-0.07744658733938399|-0.1781230372303594|0.9495930936761492|-0.2347446382045746|0.4397303462028503|-0.8669095635414124|0|0|0|-1|-1|3
2021-04-09 09:36:12.184 +0100|28056.96383829167|-0.2550048828125|0.439056396484375|-0.8378143310546875|28056.94387529167|-0.4491342669477635|-0.2647781711622101|-0.46505048675146|-0.6487118601799011|0.3584884703159332|-0.5402714610099792|-0.05064386129379272|0.05997079610824585|0.04606175422668457|XArbitraryZVertical|-0.2512874290672039|-0.07435952013943621|-0.1851408795294958|0.9471263698075088|-0.2339028716087341|0.4484679400920868|-0.8626505732536316|0|0|0|-1|-1|3
2021-04-09 09:36:12.204 +0100|28056.98380029167|-0.225250244140625|0.3186492919921875|-0.8311920166015625|28056.96383829167|-0.4638829861147991|-0.2643969944406694|-0.4767576856108776|-0.763210654258728|0.4047815203666687|-0.4447889626026154|-0.03150197863578796|0.008262872695922852|0.01757121086120605|XArbitraryZVertical|-0.2572422665032836|-0.07085200043368503|-0.1911268625204556|0.9446042530825468|-0.2321860194206238|0.4589008390903473|-0.8576128482818604|0|0|0|-1|-1|3
2021-04-09 09:36:12.224 +0100|28057.00376229167|-0.1875457763671875|0.28466796875|-0.8470001220703125|28056.98380029167|-0.4784910505547625|-0.2629757864077252|-0.4928027673514838|-1.094467401504517|0.548276424407959|-0.339381217956543|0.00111706554889679|-0.1413550674915314|0.02133089303970337|XArbitraryZVertical|-0.2650531843590401|-0.06622610950063672|-0.1967598767673643|0.9416191200593327|-0.229023203253746|0.4730969965457916|-0.8507218360900879|0|0|0|-1|-1|3
2021-04-09 09:36:12.244 +0100|28057.02372529167|-0.161163330078125|0.386077880859375|-0.8433380126953125|28057.00376229167|-0.4941855386503164|-0.258992110744829|-0.5191001418482833|-1.754835247993469|0.6800116896629333|-0.2845636010169983|0.01974613964557648|-0.2009171843528748|-0.004624485969543457|XArbitraryZVertical|-0.2772937353154877|-0.05877201086947902|-0.2022792809613533|0.9374098232335536|-0.2223684787750244|0.4960990250110626|-0.8393080830574036|0|0|0|-1|-1|3
2021-04-09 09:36:12.264 +0100|28057.04368729167|-0.1392974853515625|0.5128173828125|-0.7601165771484375|28057.02372529167|-0.5109585275868433|-0.2532345406658389|-0.5551159805781872|-2.016844511032104|0.7461169958114624|-0.1898798048496246|0.04845578968524933|-0.1814450025558472|-0.03996533155441284|XArbitraryZVertical|-0.2936824896988243|-0.04881434320104005|-0.2076133141349725|0.9318071436661277|-0.2129158973693848|0.5270418524742126|-0.8227354884147644|0|0|0|-1|-1|3
2021-04-09 09:36:12.283 +0100|28057.06365066667|-0.1082916259765625|0.522857666015625|-0.6679840087890625|28057.04368729167|-0.5253298575683278|-0.2468836642740269|-0.5919786722589285|-1.778053283691406|0.6495723128318787|-0.07882704585790634|0.05910569429397583|-0.06589233875274658|0.01793384552001953|XArbitraryZVertical|-0.3101191123109525|-0.03857324083850482|-0.2117906784093067|0.9260038721984353|-0.2027986198663712|0.5580040812492371|-0.8046764731407166|0|0|0|-1|-1|3
2021-04-09 09:36:12.303 +0100|28057.08361366667|-0.0835418701171875|0.5141754150390625|-0.67425537109375|28057.06365066667|-0.5348496434208471|-0.24139806786149|-0.6228082062252608|-1.448017954826355|0.4434842169284821|0.04969382286071777|0.0813661515712738|-0.05615723133087158|0.1004605293273926|XArbitraryZVertical|-0.3236415696238129|-0.03016555789907477|-0.2141288469561207|0.9211379088443971|-0.1941752731800079|0.5833184123039246|-0.7886923551559448|0|0|0|-1|-1|3
2021-04-09 09:36:12.323 +0100|28057.10357566667|-0.031707763671875|0.6724395751953125|-0.7168731689453125|28057.08361366667|-0.5412542672473999|-0.2390653489291958|-0.6499453228188372|-1.289999008178711|0.1656357645988464|0.09736236184835434|0.09757295250892639|-0.09963393211364746|0.1195908188819885|XArbitraryZVertical|-0.3356774714263948|-0.02414697694853786|-0.2148473958409449|0.9168305290603526|-0.188516229391098|0.6051428914070129|-0.7734751105308533|0|0|0|-1|-1|3
2021-04-09 09:36:12.343 +0100|28057.12353766667|0.007781982421875|0.6842498779296875|-0.833251953125|28057.10357566667|-0.5429188888740769|-0.2402223339288681|-0.6686283098311886|-0.5952057242393494|-0.2149380892515182|0.2071844786405563|0.1402395814657211|0.003900110721588135|0.05942857265472412|XArbitraryZVertical|-0.3441784519730593|-0.02169593561174365|-0.213590927828409|0.9140292617470505|-0.1866882294416428|0.6199102401733398|-0.7621409296989441|0|0|0|-1|-1|3
2021-04-09 09:36:12.364 +0100|28057.14349966667|-0.0302886962890625|0.393280029296875|-0.8574371337890625|28057.12353766667|-0.5363346432542581|-0.2432523383165326|-0.6742160009291757|0.08127528429031372|-0.484046995639801|0.3902105987071991|0.1869530826807022|0.07909989356994629|-0.08875566720962524|XArbitraryZVertical|-0.3469189820832552|-0.02341323553952403|-0.2095084291223806|0.913895785995206|-0.1881594210863113|0.6242850422859192|-0.758198082447052|0|0|0|-1|-1|3
2021-04-09 09:36:12.383 +0100|28057.16346266667|-0.088836669921875|0.331329345703125|-0.7924346923828125|28057.14349966667|-0.5268996542835607|-0.2477051569270016|-0.6770896950361996|-0.3282386958599091|-0.510153591632843|0.4052211940288544|0.1801973581314087|-0.1524515748023987|-0.1053357124328613|XArbitraryZVertical|-0.3485441905955779|-0.02667924718746458|-0.2041374283994142|0.9144032142787718|-0.1910930126905441|0.6265273690223694|-0.7556103467941284|0|0|0|-1|-1|3
2021-04-09 09:36:12.403 +0100|28057.18342466667|-0.081634521484375|0.4722442626953125|-0.7013397216796875|28057.16346266667|-0.5206767915663567|-0.2536232365847292|-0.6922494070802709|-0.9428229331970215|-0.4813370406627655|0.4477146863937378|0.114114448428154|-0.3246712684631348|-0.06896162033081055|XArbitraryZVertical|-0.3558147642252692|-0.0283369934034624|-0.1987370718837214|0.9127412689366338|-0.1931558549404144|0.6382704377174377|-0.7451857328414917|0|0|0|-1|-1|3
2021-04-09 09:36:12.431 +0100|28057.20338666667|-0.1014404296875|0.542633056640625|-0.6631317138671875|28057.18342466667|-0.5166919593383108|-0.2610671802873216|-0.7126817438874526|-0.8417189121246338|-0.533632218837738|0.3654134273529053|0.1064069122076035|-0.2091014981269836|0.0009326338768005371|XArbitraryZVertical|-0.3655663591451564|-0.02957215303036312|-0.1934951370078747|0.9099706195039985|-0.195290207862854|0.6538651585578918|-0.7309734225273132|0|0|0|-1|-1|3
2021-04-09 09:36:12.445 +0100|28057.22334966667|-0.1821136474609375|0.569549560546875|-0.71209716796875|28057.22334966667|-0.5068263955405161|-0.2822309923475|-0.7300015767617728|0.0001646158052608371|-0.8244323134422302|0.2597190737724304|0.04877682030200958|-0.09878557920455933|0.02089875936508179|XArbitraryZVertical|-0.3750537869640579|-0.03858496514296929|-0.1832650061012642|0.9078875902342644|-0.2075300961732864|0.6668708324432373|-0.7156916856765747|0|0|0|-1|-1|3
2021-04-09 09:36:12.463 +0100|28057.24331166667|-0.2397918701171875|0.596588134765625|-0.78765869140625||||||||||||||||||||||||3
2021-04-09 09:36:12.483 +0100|28057.26327366667|-0.27508544921875|0.726593017578125|-0.8336334228515625|28057.26327366667|-0.4935619208483428|-0.3068502024685531|-0.7332081265452705|-0.003473612014204264|-0.8526762127876282|0.2596704065799713|-0.03984491527080536|0.02242457866668701|-0.1182133555412292|XArbitraryZVertical|-0.3783563179607246|-0.05181216695026181|-0.1722525475878923|0.9080149264591659|-0.2244381159543991|0.6692568063735962|-0.7083240151405334|0|0|0|-1|-1|3
2021-04-09 09:36:12.503 +0100|28057.28323566667|-0.322998046875|0.7979736328125|-0.8697052001953125||||||||||||||||||||||||3
2021-04-09 09:36:12.523 +0100|28057.30319866667|-0.33599853515625|0.80816650390625|-0.8984222412109375|28057.28323566667|-0.4872134922952234|-0.3197830846060385|-0.7344241525661463|0.03443413972854614|-0.8602148294448853|0.2334455400705338|-0.08061137795448303|0.1173925995826721|-0.1507567763328552|XArbitraryZVertical|-0.3798125662671381|-0.05871804293583743|-0.166780748627586|0.9080083213660964|-0.23332379758358|0.6701598763465881|-0.7045891880989075|0|0|0|-1|-1|3
2021-04-09 09:36:12.543 +0100|28057.32316066667|-0.3188323974609375|0.7190399169921875|-0.8646087646484375|28057.30319866667|-0.4808046499030038|-0.3320215337194747|-0.7353738531575388|0.01266253087669611|-0.786416232585907|0.260827362537384|-0.09415565431118011|0.1461221575737|-0.192764937877655|XArbitraryZVertical|-0.3810359442354875|-0.06536175089227943|-0.1614330315803425|0.9080082157583664|-0.241721585392952|0.670864462852478|-0.7010788917541504|0|0|0|-1|-1|3
2021-04-09 09:36:12.563 +0100|28057.34312266667|-0.2433929443359375|0.632476806640625|-0.77606201171875|28057.32316066667|-0.4731555018099319|-0.3410620833172147|-0.7382399119739472|-0.1065716147422791|-0.6270338296890259|0.3756956160068512|-0.08335994184017181|0.06656116247177124|-0.1875163912773132|XArbitraryZVertical|-0.3827535625765209|-0.07053115098421391|-0.1558965054838738|0.9078664264340265|-0.247405618429184|0.6729871034622192|-0.697050154209137|0|0|0|-1|-1|3
2021-04-09 09:36:12.583 +0100|28057.36308566667|-0.193634033203125|0.5796966552734375|-0.6800994873046875|28057.34312266667|-0.4642703647147257|-0.346242478699491|-0.744218490600432|-0.2143437266349792|-0.5053267478942871|0.4364266097545624|-0.009375348687171936|-0.02096354961395264|-0.1074756979942322|XArbitraryZVertical|-0.385456661718474|-0.07377101095667875|-0.1501581797836279|0.9074324512959464|-0.2496433556079865|0.6773971319198608|-0.6919620037078857|0|0|0|-1|-1|3
2021-04-09 09:36:12.603 +0100|28057.38304766667|-0.1634979248046875|0.6015625|-0.640838623046875|28057.36308566667|-0.4548364246991841|-0.3492482445784031|-0.7518854774388735|-0.2690746188163757|-0.4535629451274872|0.4654358923435211|0.04342430830001831|-0.1000240445137024|-0.01959311962127686|XArbitraryZVertical|-0.3886920214671698|-0.0759237072292914|-0.144382262717435|0.9068120321402197|-0.2499375343322754|0.6830171346664429|-0.6863082051277161|0|0|0|-1|-1|3
2021-04-09 09:36:12.623 +0100|28057.40300966667|-0.185302734375|0.662506103515625|-0.610748291015625|28057.38304766667|-0.446253817807186|-0.3527178489546771|-0.7604710739855411|-0.3299444913864136|-0.4873858690261841|0.4067058265209198|0.08602058887481689|-0.0926131010055542|0.033241868019104|XArbitraryZVertical|-0.3923746255144381|-0.07802481686615659|-0.138787772677558|0.9059207131547099|-0.2502821981906891|0.6892628073692322|-0.6799085736274719|0|0|0|-1|-1|3
2021-04-09 09:36:12.643 +0100|28057.42297166667|-0.2105712890625|0.7590789794921875|-0.628021240234375|28057.40300966667|-0.4405463050717192|-0.3584196161787447|-0.7703031648752001|-0.4475052654743195|-0.4675447642803192|0.3198560774326324|0.07369446754455566|-0.05884009599685669|0.05707162618637085|XArbitraryZVertical|-0.3968444814896258|-0.08042792138091907|-0.1338954655168686|0.9044988066673235|-0.2517652809619904|0.6963528394699097|-0.6720916032791138|0|0|0|-1|-1|3
2021-04-09 09:36:12.663 +0100|28057.44293466667|-0.227081298828125|0.809326171875|-0.6518096923828125|28057.42297166667|-0.4376982719394957|-0.3652425500282779|-0.7807984021697427|-0.4472718834877014|-0.4122966229915619|0.247855469584465|0.04903843998908997|0.0344502329826355|0.04157817363739014|XArbitraryZVertical|-0.4017646528574907|-0.08268986132616163|-0.1299682695165356|0.9026937799373372|-0.2537205517292023|0.70384681224823|-0.6634951233863831|0|0|0|-1|-1|3
2021-04-09 09:36:12.683 +0100|28057.46289666667|-0.2345733642578125|0.850189208984375|-0.682525634765625|28057.44293466667|-0.4357364201888156|-0.3715803051506344|-0.7897230926324172|-0.315503865480423|-0.359576404094696|0.2106735706329346|0.03018015623092651|0.08726650476455688|0.007786750793457031|XArbitraryZVertical|-0.4059782445057532|-0.08476069550669646|-0.1267029346575997|0.9010793224299228|-0.2556294798851013|0.7101583480834961|-0.6559945940971375|0|0|0|-1|-1|3
2021-04-09 09:36:12.703 +0100|28057.48285866667|-0.2342529296875|0.8299407958984375|-0.66424560546875|28057.46289666667|-0.4314342935310356|-0.374486452469239|-0.7943660180998711|-0.07620318979024887|-0.3027077913284302|0.1941604614257812|0.02515453100204468|0.1313991546630859|-0.02911579608917236|XArbitraryZVertical|-0.407995802366768|-0.08633013807269602|-0.1235967918852834|0.9004501340341899|-0.256325900554657|0.713419497013092|-0.6521730422973633|0|0|0|-1|-1|3
2021-04-09 09:36:12.723 +0100|28057.50282166667|-0.23406982421875|0.77655029296875|-0.629608154296875|28057.48285866667|-0.4247387627240348|-0.3740289450709365|-0.794732825987462|0.08948717266321182|-0.2315408289432526|0.1708545237779617|0.02050334215164185|0.1241231560707092|-0.01764547824859619|XArbitraryZVertical|-0.4078365183124317|-0.08744153686877679|-0.1206294412757661|0.9008174796139431|-0.2559319138526917|0.7136764526367188|-0.6520466804504395|0|0|0|-1|-1|3
2021-04-09 09:36:12.743 +0100|28057.52278366667|-0.2472991943359375|0.75592041015625|-0.59588623046875|28057.50282166667|-0.4201801865468895|-0.3745766607489188|-0.79478579417354|-0.03144234418869019|-0.1467965990304947|0.1245741918683052|0.02453926205635071|0.07753139734268188|0.01359689235687256|XArbitraryZVertical|-0.4076917167878467|-0.08861077515074996|-0.1184577183179768|0.9010568693371616|-0.2562751471996307|0.7137135863304138|-0.6518712043762207|0|0|0|-1|-1|3
2021-04-09 09:36:12.763 +0100|28057.54274566667|-0.2276763916015625|0.8595123291015625|-0.5645599365234375|28057.52278366667|-0.4188824039982816|-0.3752022454100462|-0.8003601354558894|-0.3601037263870239|-0.04786756262183189|0.07855174690485001|0.01033198833465576|0.03570473194122314|0.04195117950439453|XArbitraryZVertical|-0.410097244568339|-0.08843509122694437|-0.1170558721819527|0.9001653344563222|-0.2552209794521332|0.7176069617271423|-0.6479989886283875|0|0|0|-1|-1|3
2021-04-09 09:36:12.783 +0100|28057.56270866667|-0.2071075439453125|0.902679443359375|-0.5617828369140625|28057.54274566667|-0.4209248984687913|-0.3763149291077275|-0.8095554849254822|-0.3954267799854279|0.009271834045648575|0.03895010054111481|0.01427808403968811|0.09683597087860107|0.06486052274703979|XArbitraryZVertical|-0.4142465238208367|-0.08731935663516203|-0.1166034707901821|0.898431305604924|-0.253506064414978|0.7239806056022644|-0.6415503025054932|0|0|0|-1|-1|3
2021-04-09 09:36:12.803 +0100|28057.58267066667|-0.2096405029296875|0.8625335693359375|-0.566162109375|28057.56270866667|-0.4229564438447208|-0.3777307214138588|-0.8164549232334957|-0.2119995951652527|-0.03770318627357483|0.01701976917684078|0.04326033592224121|0.1763834357261658|0.07438445091247559|XArbitraryZVertical|-0.4174071922424604|-0.08663077479423466|-0.1163598270918877|0.8970657570747034|-0.252565860748291|0.7287226915359497|-0.6365326642990112|0|0|0|-1|-1|3
2021-04-09 09:36:12.823 +0100|28057.60263266667|-0.2015838623046875|0.847900390625|-0.556365966796875|28057.58267066667|-0.4242067973264633|-0.37929025208005|-0.8212495194093898|-0.2341224849224091|-0.05268927291035652|0.02058148011565208|0.0419948399066925|0.1425756216049194|0.06678485870361328|XArbitraryZVertical|-0.4196257998327684|-0.08643868900919557|-0.1159924956058336|0.8960962197587388|-0.2522616386413574|0.7319977283477783|-0.6328850984573364|0|0|0|-1|-1|3
2021-04-09 09:36:12.843 +0100|28057.62259466667|-0.2074432373046875|0.9094696044921875|-0.552490234375|28057.62259466667|-0.4306058314613816|-0.3852607152692512|-0.8363294019912579|-0.3267547488212585|-0.007440992631018162|0.02679401263594627|0.04813778400421143|0.1508482694625854|0.07193452119827271|XArbitraryZVertical|-0.4267466895758323|-0.08575419141009825|-0.1156775800935239|0.8928338692095923|-0.2518585324287415|0.7421880960464478|-0.6210669875144958|0|0|0|-1|-1|3
2021-04-09 09:36:12.862 +0100|28057.64255766667|-0.233642578125|0.9619598388671875|-0.5765228271484375||||||||||||||||||||||||3
2021-04-09 09:36:12.882 +0100|28057.66251966667|-0.25909423828125|0.9298248291015625|-0.586883544921875|28057.64255766667|-0.431427795258867|-0.3855606926538906|-0.8432138330448833|-0.08073589205741882|0.02106074243783951|0.05917663127183914|0.02329468727111816|0.2060359716415405|0.04329085350036621|XArbitraryZVertical|-0.4297552225886231|-0.08478977108352943|-0.1150974590795544|0.8915570060564574|-0.250117301940918|0.7467843890190125|-0.6162422895431519|0|0|0|-1|-1|3
2021-04-09 09:36:12.903 +0100|28057.68248166667|-0.263458251953125|0.89080810546875|-0.6000213623046875|28057.66251966667|-0.4289984486846887|-0.3826229626146423|-0.8455702123736927|0.003978445194661617|0.08284613490104675|0.1090419292449951|-0.007830440998077393|0.1948578357696533|0.03053271770477295|XArbitraryZVertical|-0.4304954145187551|-0.08368755343633887|-0.1143448349242822|0.8914008273117859|-0.2476481646299362|0.7483494877815247|-0.6153401732444763|0|0|0|-1|-1|3
2021-04-09 09:36:12.926 +0100|28057.70244466667|-0.2821502685546875|0.88604736328125|-0.5928955078125|28057.68248166667|-0.4260658387063529|-0.3777611418228728|-0.8472894741302265|-0.08904258906841278|0.1794122457504272|0.1326860934495926|-0.01871570944786072|0.149117112159729|0.0204007625579834|XArbitraryZVertical|-0.4308345991630971|-0.08192358253100479|-0.1138663583622246|0.8914620919927161|-0.2441786676645279|0.7494887709617615|-0.6153401732444763|0|0|0|-1|-1|3
2021-04-09 09:36:12.942 +0100|28057.72240666667|-0.2715606689453125|0.91717529296875|-0.5472869873046875|28057.70244466667|-0.4236142921103768|-0.3712036676613821|-0.8504745818905353|-0.1163055226206779|0.297406792640686|0.1359067410230637|-0.03877513110637665|0.1378875374794006|0.02043241262435913|XArbitraryZVertical|-0.4317308092836917|-0.07910968660519753|-0.1137878639071799|0.8912926348204986|-0.2392712086439133|0.7515935301780701|-0.6147003173828125|0|0|0|-1|-1|3
2021-04-09 09:36:12.965 +0100|28057.74236866667|-0.27130126953125|0.8480224609375|-0.52886962890625|28057.72240666667|-0.4202318113805742|-0.3616102006643108|-0.8521802541696263|0.05054035782814026|0.4057401418685913|0.1214984208345413|-0.04310762882232666|0.1662129759788513|0.05728137493133545|XArbitraryZVertical|-0.4317869401728947|-0.07534131810340525|-0.1141404074227001|0.8915467968736952|-0.2329092919826508|0.7527175545692444|-0.6157674193382263|0|0|0|-1|-1|3
2021-04-09 09:36:12.982 +0100|28057.76233166667|-0.23846435546875|0.7925567626953125|-0.4995269775390625|28057.74236866667|-0.4161868859562572|-0.3494477163387458|-0.8508418457380199|0.1228117048740387|0.5074357390403748|0.08046212792396545|-0.04604251682758331|0.1162372827529907|0.08535230159759521|XArbitraryZVertical|-0.430365215540622|-0.07096096809884225|-0.1151197255513927|0.8924672922685309|-0.2257477343082428|0.7518357634544373|-0.6195006370544434|0|0|0|-1|-1|3
2021-04-09 09:36:13.002 +0100|28057.78229366667|-0.21240234375|0.755401611328125|-0.4862823486328125|28057.76233166667|-0.4142041032035543|-0.3369414806760507|-0.8496692623972477|0.009977299720048904|0.5922520756721497|0.001926037017256021|-0.03026188910007477|0.05048263072967529|0.1139067411422729|XArbitraryZVertical|-0.4290649471448943|-0.06595277528122817|-0.1170599784085745|0.8932248472075964|-0.2182739824056625|0.7510620951652527|-0.6231070160865784|0|0|0|-1|-1|3
2021-04-09 09:36:13.022 +0100|28057.80225566667|-0.193634033203125|0.7363739013671875|-0.4730072021484375|28057.78229366667|-0.4162719652034018|-0.3261064731225227|-0.8505017987872198|-0.1390742361545563|0.6443557739257812|-0.1075120344758034|-0.006601974368095398|0.01425814628601074|0.1359672546386719|XArbitraryZVertical|-0.4288478508824136|-0.0605651903517636|-0.1202112997783433|0.8932920244465892|-0.2113095223903656|0.7516114711761475|-0.6248427629470825|0|0|0|-1|-1|3
2021-04-09 09:36:13.042 +0100|28057.82221766667|-0.186981201171875|0.761322021484375|-0.486846923828125|28057.80225566667|-0.423544454751567|-0.3187763258482596|-0.8546748618484891|-0.2522174715995789|0.6983185410499573|-0.2006643563508987|0.009967923164367676|-0.0161367654800415|0.1466920375823975|XArbitraryZVertical|-0.4304148396086971|-0.05520453298310832|-0.1245566127881303|0.8922899760572885|-0.2057389318943024|0.7543575167655945|-0.6233910322189331|0|0|0|-1|-1|3
2021-04-09 09:36:13.062 +0100|28057.84218066667|-0.1442718505859375|0.7356109619140625|-0.4946746826171875|28057.82221766667|-0.4339191062562721|-0.3129052980968606|-0.858785532754796|-0.04044374451041222|0.7836998701095581|-0.2840138375759125|0.01268768310546875|-0.008117258548736572|0.1362817883491516|XArbitraryZVertical|-0.432089206025137|-0.04982602281075764|-0.1299812444880451|0.8910226481493485|-0.2011192142963409|0.7570496201515198|-0.6216325759887695|0|0|0|-1|-1|3
2021-04-09 09:36:13.082 +0100|28057.86214266667|-0.13970947265625|0.7365875244140625|-0.456024169921875|28057.84218066667|-0.445437566237894|-0.3066673852206059|-0.8587643581677784|-0.03926749527454376|0.8222897052764893|-0.3724042475223541|0.04473012685775757|-0.01190286874771118|0.1147123575210571|XArbitraryZVertical|-0.431936359920029|-0.04456256347969289|-0.1364609398525556|0.8904065222277349|-0.197242483496666|0.7570357918739319|-0.622890293598175|0|0|0|-1|-1|3
2021-04-09 09:36:13.102 +0100|28057.88210466667|-0.1717071533203125|0.7904510498046875|-0.4875640869140625|28057.86214266667|-0.4609039702151028|-0.3027620701002359|-0.8624719637996613|-0.3822669684886932|0.826945424079895|-0.4424732625484467|0.05998197197914124|-0.02616095542907715|0.1615158319473267|XArbitraryZVertical|-0.4335822085188075|-0.0389904129352382|-0.1437643034146524|0.8887171701096451|-0.193970188498497|0.7594530582427979|-0.6209724545478821|0|0|0|-1|-1|3
2021-04-09 09:36:13.122 +0100|28057.90206766667|-0.2093353271484375|0.889373779296875|-0.565765380859375|28057.88210466667|-0.4806234781435096|-0.3020605423566548|-0.8708990522305144|-0.5666689872741699|0.8203534483909607|-0.5035229921340942|0.03058168292045593|0.00579833984375|0.1426105499267578|XArbitraryZVertical|-0.4375006061237666|-0.0332440035403683|-0.1516967755503802|0.8857066324373259|-0.1916237324476242|0.7649083733558655|-0.6149761080741882|0|0|0|-1|-1|3
2021-04-09 09:36:13.142 +0100|28057.92202966667|-0.1859893798828125|0.94390869140625|-0.59716796875|28057.90206766667|-0.5003478161815865|-0.3006227572444514|-0.8775722048083765|-0.3848190009593964|0.8472245335578918|-0.5007106065750122|-0.01576375961303711|0.08701187372207642|0.057445228099823|XArbitraryZVertical|-0.4405351293174786|-0.02734724880844216|-0.1599546244487244|0.88294703707958|-0.1892236024141312|0.769189715385437|-0.6103618741035461|0|0|0|-1|-1|3
2021-04-09 09:36:13.162 +0100|28057.94199166667|-0.1826629638671875|0.855133056640625|-0.61761474609375|28057.92202966667|-0.5171439055808575|-0.2968869614975359|-0.8795887607757636|-0.07837295532226562|0.812328577041626|-0.4883108735084534|-0.006261870265007019|0.1848611235618591|0.02194958925247192|XArbitraryZVertical|-0.4412921544845843|-0.02170788278971043|-0.1679479864581703|0.8812397577171006|-0.1864879578351974|0.7704768180847168|-0.6095799803733826|0|0|0|-1|-1|3
2021-04-09 09:36:13.182 +0100|28057.96195366667|-0.1587066650390625|0.77532958984375|-0.663543701171875|28057.94199166667|-0.5318690076584126|-0.2916705804479277|-0.8802301829492216|-0.11761424690485|0.82927405834198|-0.4617939591407776|-0.004276275634765625|0.1068767905235291|0.004770994186401367|XArbitraryZVertical|-0.4412552758296228|-0.01606850694010609|-0.1755061079049117|0.8799053570231894|-0.1831635236740112|0.7708855271339417|-0.6100711822509766|0|0|0|-1|-1|3
2021-04-09 09:36:13.202 +0100|28057.98191666667|-0.1450958251953125|0.7402801513671875|-0.701446533203125|28057.96195366667|-0.547578958593352|-0.287651487542588|-0.884177020095511|-0.3147535920143127|0.8052515983581543|-0.4383838772773743|0.01692658662796021|0.02480942010879517|-0.04608047008514404|XArbitraryZVertical|-0.4426681345376372|-0.01024278429989209|-0.1828271376284486|0.8777894745600467|-0.1798455119132996|0.7733935117721558|-0.6078799962997437|0|0|0|-1|-1|3
2021-04-09 09:36:13.222 +0100|28058.00187866667|-0.13726806640625|0.7700653076171875|-0.7095947265625|28057.98191666667|-0.5652723528373685|-0.2858048630021245|-0.8919215136949976|-0.5227847695350647|0.7941333651542664|-0.4062977731227875|0.02819360792636871|-0.03282642364501953|-0.0869603157043457|XArbitraryZVertical|-0.4458230000624251|-0.004324561523921665|-0.1900567084129985|0.8747009012566329|-0.177028700709343|0.778279721736908|-0.6024463176727295|0|0|0|-1|-1|3
2021-04-09 09:36:13.242 +0100|28058.02184066667|-0.116729736328125|0.7427825927734375|-0.693084716796875|28058.00187866667|-0.5821812556910592|-0.2839871511310075|-0.9023934502556762|-0.5685260891914368|0.7419269680976868|-0.3430825769901276|0.03487592935562134|-0.02034670114517212|-0.1267073154449463|XArbitraryZVertical|-0.4500456884796181|0.001886431634117886|-0.1965653414609912|0.8711013825650361|-0.1736402213573456|0.7848124504089355|-0.5949106216430664|0|0|0|-1|-1|3
2021-04-09 09:36:13.262 +0100|28058.04180366667|-0.0891265869140625|0.7484588623046875|-0.69805908203125|28058.02184066667|-0.5975878487805392|-0.2818877138378991|-0.9131637814432259|-0.6398077011108398|0.6919487118721008|-0.2671984434127808|0.04513554275035858|-0.04611039161682129|-0.1046666502952576|XArbitraryZVertical|-0.4542861968807094|0.007993589972767418|-0.2024041370484256|0.8675210436112784|-0.1700295954942703|0.7914415597915649|-0.5871202945709229|0|0|0|-1|-1|3
2021-04-09 09:36:13.282 +0100|28058.061765625|-0.0775604248046875|0.8423614501953125|-0.7315673828125|28058.04180366667|-0.610804017100022|-0.2790400854963703|-0.9239863717422627|-0.6693852543830872|0.6147112846374512|-0.2068234384059906|0.07087908685207367|-0.05106174945831299|-0.105251133441925|XArbitraryZVertical|-0.4584074643645392|0.01399104057548965|-0.2074212349715267|0.8640852301068112|-0.1659879833459854|0.7980102896690369|-0.5793337225914001|0|0|0|-1|-1|3
2021-04-09 09:36:13.302 +0100|28058.081727625|-0.05517578125|0.82550048828125|-0.7695770263671875|28058.061765625|-0.6213797032893181|-0.277209872062213|-0.9326348136870449|-0.5486969947814941|0.3720700740814209|-0.1502671390771866|0.07962706685066223|0.01124590635299683|-0.1705374121665955|XArbitraryZVertical|-0.4616973704253307|0.01862993321974581|-0.2113120002315513|0.8612989067528252|-0.1630325019359589|0.8031923174858093|-0.5729769468307495|0|0|0|-1|-1|3
2021-04-09 09:36:13.322 +0100|28058.101690625|0.0061798095703125|0.8873748779296875|-0.9179229736328125|28058.081727625|-0.6289745353684139|-0.2761137421099477|-0.9392237055546536|-0.452204167842865|0.3097366988658905|-0.08462962508201599|0.0949934720993042|0.01301449537277222|-0.1729758977890015|XArbitraryZVertical|-0.4642117952308227|0.02194997100199412|-0.2139940584207277|0.8592044508500976|-0.1609581112861633|0.8070999979972839|-0.5680512189865112|0|0|0|-1|-1|3
2021-04-09 09:36:13.341 +0100|28058.121652625|-0.044952392578125|0.79144287109375|-0.80712890625|28058.101690625|-0.6327204921327857|-0.2731498645766255|-0.944638493511096|-0.1675188988447189|0.2643827497959137|-0.02641985192894936|0.1465101540088654|0.08932763338088989|-0.3254454135894775|XArbitraryZVertical|-0.4660694018845906|0.024994639009444|-0.2155997788130229|0.8577128754466342|-0.1580924689769745|0.8102851510047913|-0.5643091797828674|0|0|0|-1|-1|3
2021-04-09 09:36:13.361 +0100|28058.141614625|-0.1148681640625|0.90863037109375|-0.884552001953125|28058.121652625|-0.6336947105816646|-0.2687034220976891|-0.946986193726717|0.006149204447865486|0.2945400476455688|0.08912263810634613|0.1452334970235825|-0.03762578964233398|-0.2640377283096313|XArbitraryZVertical|-0.4665374358591059|0.02751892001622504|-0.2167550643803521|0.8570898508194765|-0.1550763249397278|0.8116587400436401|-0.5631710886955261|0|0|0|-1|-1|3
2021-04-09 09:36:13.381 +0100|28058.161576625|-0.10546875|0.6305084228515625|-0.8374176025390625|28058.141614625|-0.625513227872632|-0.2563374950778985|-0.9411382173094748|0.7803667783737183|0.2477231919765472|0.1878794729709625|0.02723017334938049|0.1312703490257263|-0.3098734021186829|XArbitraryZVertical|-0.4629134913119724|0.02995814198156685|-0.2168507388795867|0.8589466591108796|-0.1493013799190521|0.8082289099693298|-0.5696272253990173|0|0|0|-1|-1|3
2021-04-09 09:36:13.402 +0100|28058.181539625|-0.0891571044921875|0.948486328125|-0.7479705810546875|28058.161576625|-0.6109001132210262|-0.2385471660034052|-0.9248967116781173|0.7372576594352722|0.3501295447349548|0.3080650269985199|0.02961695194244385|-0.1380662322044373|-0.305736780166626|XArbitraryZVertical|-0.4544911806098816|0.03164808580416825|-0.2165938589782196|0.8634370345024152|-0.1422277390956879|0.7985585927963257|-0.584872305393219|0|0|0|-1|-1|3
2021-04-09 09:36:13.421 +0100|28058.201501625|-0.087921142578125|0.5881805419921875|-0.72100830078125|28058.181539625|-0.5917756808577747|-0.2160632431429079|-0.9081458744588621|1.367442488670349|0.2804056107997894|0.3760091662406921|0.03031349182128906|0.1072201728820801|-0.1402601003646851|XArbitraryZVertical|-0.4453758689882494|0.03446883110903729|-0.2152757543433868|0.8683943924962807|-0.1318921744823456|0.7883644104003906|-0.6009044647216797|0|0|0|-1|-1|3
2021-04-09 09:36:13.441 +0100|28058.221463625|-0.0460662841796875|0.3238067626953125|-0.7596588134765625|28058.201501625|-0.5673014554507881|-0.1927029015185399|-0.8772702834947764|1.851491093635559|0.1941230744123459|0.4495790004730225|0.03898890316486359|-0.1030569672584534|-0.1006064414978027|XArbitraryZVertical|-0.4302165380648745|0.03469253920929972|-0.2129682818474083|0.8765585232944393|-0.1224248707294464|0.7689967751502991|-0.6274203062057495|0|0|0|-1|-1|3
2021-04-09 09:36:13.461 +0100|28058.241426625|-0.05157470703125|0.231964111328125|-0.755859375|28058.221463625|-0.5445592277560094|-0.1722621371560776|-0.8426920266345934|1.663506150245667|0.1402976661920547|0.374410480260849|0.07225675135850906|-0.3689343929290771|-0.1015642285346985|XArbitraryZVertical|-0.4135728545564052|0.03397188861968619|-0.2106104198867141|0.8851252829711034|-0.1140667498111725|0.7464372515678406|-0.6556068062782288|0|0|0|-1|-1|3
2021-04-09 09:36:13.481 +0100|28058.261388625|-0.011871337890625|0.3421783447265625|-0.7092437744140625|28058.241426625|-0.5290241890805907|-0.1581685679917642|-0.817747397121274|0.9799521565437317|0.1194405257701874|0.2606939375400543|0.05494995415210724|-0.5022813081741333|-0.07555431127548218|XArbitraryZVertical|-0.4015006154677885|0.03364824392089136|-0.208821148346696|0.8910998453514948|-0.1077157482504845|0.7296072244644165|-0.6753301024436951|0|0|0|-1|-1|3
2021-04-09 09:36:13.501 +0100|28058.281350625|-0.0275421142578125|0.471588134765625|-0.6474761962890625|28058.261388625|-0.5197125755395516|-0.1498501569694544|-0.8060481151227379|0.2643261849880219|0.02076688967645168|0.2263463586568832|0.07815329730510712|-0.4065995812416077|-0.04358285665512085|XArbitraryZVertical|-0.3956634205247289|0.0339444834896819|-0.2073195446175087|0.8940452426000788|-0.1033617109060287|0.7215567231178284|-0.6845964789390564|0|0|0|-1|-1|3
2021-04-09 09:36:13.521 +0100|28058.301312625|-0.09906005859375|0.5858612060546875|-0.683868408203125|28058.281350625|-0.515381783331975|-0.1477685862708136|-0.804931584725061|0.00283812964335084|-0.1539367884397507|0.1065288782119751|0.07419155538082123|-0.2574954032897949|0.0593254566192627|XArbitraryZVertical|-0.3950308356896862|0.03387243046081894|-0.205887128550388|0.894658547089345|-0.1020550131797791|0.7207832336425781|-0.6856065988540649|0|0|0|-1|-1|3
2021-04-09 09:36:13.541 +0100|28058.321275625|-0.1344146728515625|0.6122894287109375|-0.751190185546875|28058.301312625|-0.5123014033584065|-0.14993889700983|-0.8062997505411967|-0.1032442152500153|-0.2661674618721008|0.1086462736129761|0.007584504783153534|-0.1652271747589111|0.008413493633270264|XArbitraryZVertical|-0.3959062525302549|0.03247120602274218|-0.2039667537179114|0.8947633538100564|-0.1033953353762627|0.7217308878898621|-0.6844077110290527|0|0|0|-1|-1|3
2021-04-09 09:36:13.561 +0100|28058.341237625|-0.33758544921875|0.642181396484375|-0.8593597412109375|28058.321275625|-0.5108210380778955|-0.1550120797451954|-0.8086703659341256|-0.09465490281581879|-0.3234345018863678|0.01993823796510696|0.008517280220985413|-0.1183124780654907|-0.0416485071182251|XArbitraryZVertical|-0.3974869247740774|0.03021743343058033|-0.202100475740463|0.8945650713573392|-0.106601670384407|0.7233697772026062|-0.6821820735931396|0|0|0|-1|-1|3
2021-04-09 09:36:13.581 +0100|28058.361199625|-0.39447021484375|0.5548858642578125|-0.8970947265625|28058.341237625|-0.5121120496221815|-0.1612164832808597|-0.8084452402285627|0.1091749221086502|-0.1787087172269821|-0.1286568343639374|-0.190534234046936|-0.08409947156906128|-0.1653770208358765|XArbitraryZVertical|-0.3979953332622742|0.02766960457898044|-0.201463137050798|0.894565117710014|-0.110858254134655|0.7232142686843872|-0.681668221950531|0|0|0|-1|-1|3
2021-04-09 09:36:13.601 +0100|28058.381162625|-0.5446319580078125|0.4088592529296875|-0.8412322998046875|28058.361199625|-0.5178190929076504|-0.1666181580927758|-0.8051154046353711|0.05373807996511459|0.04451829195022583|-0.341573178768158|-0.2673875689506531|-0.1307764649391174|-0.2067055106163025|XArbitraryZVertical|-0.3970030609946795|0.02594726455818613|-0.2032294285183322|0.8946582542371733|-0.1149375438690186|0.7209106087684631|-0.6834306120872498|0|0|0|-1|-1|3
2021-04-09 09:36:13.621 +0100|28058.401124625|-0.87091064453125|0.3541717529296875|-0.552276611328125|28058.381162625|-0.5333132399183461|-0.174351342963585|-0.8075881685847993|-0.5251738429069519|0.3004784882068634|-0.6913802027702332|-0.3742472529411316|-0.2883107662200928|-0.1917943954467773|XArbitraryZVertical|-0.3986815545831288|0.02590807744341447|-0.2083956098627405|0.8927223344754353|-0.1199095323681831|0.7226220965385437|-0.6807636022567749|0|0|0|-1|-1|3
2021-04-09 09:36:13.641 +0100|28058.421086625|-1.084136962890625|0.3387603759765625|-0.266021728515625|28058.401124625|-0.5634345192015329|-0.1867300324157015|-0.8215750266839823|-1.202545404434204|0.6517426371574402|-1.07311749458313|-0.6621674299240112|-0.3697312474250793|0.02729290723800659|XArbitraryZVertical|-0.4056809419975397|0.02842888820028415|-0.21800546458268|0.8871801193136412|-0.1264382302761078|0.7322194576263428|-0.6692295670509338|0|0|0|-1|-1|3
2021-04-09 09:36:13.661 +0100|28058.441049625|-1.170791625976562|0.270111083984375|-0.164642333984375|28058.421086625|-0.6080716237546152|-0.2032699786441204|-0.8451297213100544|-1.638576984405518|0.9904389381408691|-1.414029240608215|-0.9124940633773804|-0.3959754705429077|0.3312920331954956|XArbitraryZVertical|-0.4169756126748576|0.03384807918814969|-0.2319309291692659|0.8781765057692|-0.1339699029922485|0.7480571866035461|-0.6499713063240051|0|0|0|-1|-1|3
2021-04-09 09:36:13.681 +0100|28058.461011625|-1.08721923828125|0.1438140869140625|-0.166656494140625|28058.441049625|-0.666450442184168|-0.2244881169095602|-0.8715168065024376|-1.718002200126648|1.31365704536438|-1.774657964706421|-1.023799777030945|-0.473405122756958|0.4479357004165649|XArbitraryZVertical|-0.4295827538707252|0.04124050203123256|-0.2499819327595718|0.86675659926108|-0.1432849019765854|0.7653061151504517|-0.6275157332420349|0|0|0|-1|-1|3
2021-04-09 09:36:13.701 +0100|28058.480973625|-1.208480834960938|0.1005096435546875|-0.0900726318359375|28058.461011625|-0.7415812723992343|-0.2530521479810449|-0.8964008118392045|-1.870989203453064|1.651372909545898|-2.291341304779053|-0.9485587477684021|-0.5991842746734619|0.4425066709518433|XArbitraryZVertical|-0.441874635779541|0.04977189582777659|-0.2729848749382003|0.8530820044803431|-0.1563311666250229|0.7810845375061035|-0.604539155960083|0|0|0|-1|-1|3
2021-04-09 09:36:13.721 +0100|28058.500935625|-1.302932739257812|0.2010650634765625|0.0838775634765625|28058.480973625|-0.8419811099506371|-0.2952883174333738|-0.9225482055848139|-2.410165309906006|2.095940351486206|-2.954419851303101|-0.9932947158813477|-0.7018513679504395|0.4527804851531982|XArbitraryZVertical|-0.4556413979472616|0.05968222783750845|-0.3022128755095869|0.8351626055694417|-0.1757126599550247|0.7971428036689758|-0.5776578783988953|0|0|0|-1|-1|3
2021-04-09 09:36:13.741 +0100|28058.520898625|-1.189422607421875|0.3311004638671875|0.381011962890625|28058.500935625|-0.9740279053513976|-0.3546933476457292|-0.95179726531996|-2.795701026916504|2.544667720794678|-3.497607707977295|-1.087169885635376|-0.6687533259391785|0.5345518589019775|XArbitraryZVertical|-0.4719091322290539|0.07245753429783354|-0.3380352985815493|0.8110387875322751|-0.2015121430158615|0.8144596219062805|-0.5441033244132996|0|0|0|-1|-1|3
2021-04-09 09:36:13.761 +0100|28058.540860625|-1.036514282226562|0.4021759033203125|0.5139923095703125|28058.520898625|-1.133605771966295|-0.4333175573934762|-0.9737761810840903|-2.678042650222778|2.621697902679443|-4.083015441894531|-1.016193389892578|-0.5192294120788574|0.8409879207611084|XArbitraryZVertical|-0.4874952508145447|0.08507072087301322|-0.3785972171571044|0.7821608751873668|-0.2360507100820541|0.8270145058631897|-0.5102227330207825|0|0|0|-1|-1|3
2021-04-09 09:36:13.781 +0100|28058.560822625|-1.1595458984375|0.665771484375|0.3308868408203125|28058.540860625|-1.317017668812049|-0.5357867114299385|-0.976712407850694|-2.392702579498291|2.322005987167358|-4.932912349700928|-0.7681786417961121|-0.4502131938934326|0.9835847020149231|XArbitraryZVertical|-0.5008827689280662|0.09198419494668164|-0.4229066979481444|0.7495368227945796|-0.2857622802257538|0.8286616206169128|-0.4813107252120972|0|0|0|-1|-1|3
2021-04-09 09:36:13.800 +0100|28058.580785625|-1.391357421875|1.194732666015625|0.0174713134765625|28058.560822625|-1.519684375944016|-0.6593309394633986|-0.955086031053922|-2.325611591339111|2.05384087562561|-5.740557670593262|-0.7556589841842651|-0.2375825047492981|0.8577333688735962|XArbitraryZVertical|-0.5132807852564851|0.09109821830339941|-0.4709455304035766|0.7116561278194138|-0.3537933826446533|0.8163634538650513|-0.4564878940582275|0|0|0|-1|-1|3
2021-04-09 09:36:13.821 +0100|28058.600747625|-1.270980834960938|1.359832763671875|-0.1253814697265625|28058.580785625|-1.717890537166788|-0.7780445077111389|-0.9102156244838384|-1.968412637710571|2.06003212928772|-6.028694152832031|-0.9191474914550781|0.276968240737915|0.5499270558357239|XArbitraryZVertical|-0.5236269949717046|0.08540287215621982|-0.5203642375072489|0.669135535193971|-0.4306613206863403|0.7896360754966736|-0.437042236328125|0|0|0|-1|-1|3
2021-04-09 09:36:13.841 +0100|28058.620709625|-0.94677734375|1.037673950195312|-0.0151824951171875|28058.600747625|-1.883444361659631|-0.8639450134458337|-0.844414883227931|-1.361412286758423|2.083614349365234|-5.969820976257324|-0.8455458879470825|0.6621459126472473|0.3191878795623779|XArbitraryZVertical|-0.5277550010454729|0.07618930330666066|-0.5688734727818499|0.6261413680801879|-0.5050410628318787|0.7475826144218445|-0.4313397109508514|0|0|0|-1|-1|3
2021-04-09 09:36:13.861 +0100|28058.640671625|-0.5896453857421875|1.077392578125|0.1180419921875|28058.620709625|-2.020186284699222|-0.9226590495154555|-0.7693634957539629|-1.366400599479675|1.928404569625854|-5.803674221038818|-0.4343109130859375|0.3858489394187927|0.3838826715946198|XArbitraryZVertical|-0.5281265687664095|0.06516433388513246|-0.6140965286334918|0.5828562681785723|-0.5726785063743591|0.6956781148910522|-0.4336718618869781|0|0|0|-1|-1|3
2021-04-09 09:36:13.881 +0100|28058.660634625|-0.2779388427734375|1.391159057617188|0.035308837890625|28058.640671625|-2.138059139684358|-0.9660586600946348|-0.6924730139817968|-1.196016788482666|1.578873157501221|-5.577551364898682|-0.06972730159759521|0.4101865291595459|0.5232710242271423|XArbitraryZVertical|-0.5275958270862824|0.05335021135310626|-0.6545412716351884|0.5388620194069066|-0.6331697106361389|0.6384425163269043|-0.4375928044319153|0|0|0|-1|-1|3
2021-04-09 09:36:13.900 +0100|28058.680596625|-0.1657257080078125|1.714065551757812|-0.120330810546875|28058.660634625|-2.236317355546106|-0.9986666734814148|-0.6148304515695502|-0.9642082452774048|1.181326866149902|-5.186505317687988|0.3725593686103821|0.704230785369873|0.5197731256484985|XArbitraryZVertical|-0.5266106187291953|0.03929987514393501|-0.689113677241909|0.4962450905826569|-0.6867844462394714|0.5768200159072876|-0.4422735571861267|0|0|0|-1|-1|3
2021-04-09 09:36:13.920 +0100|28058.700558625|-0.0742340087890625|1.619674682617188|-0.1949462890625|28058.680596625|-2.314038283317088|-1.018968063940194|-0.5397104457577693|-0.5491445064544678|1.046349883079529|-4.640685081481934|0.5174797177314758|1.175778269767761|0.379460871219635|XArbitraryZVertical|-0.5239808394646096|0.02408932122346456|-0.7181163131293231|0.4573542692137855|-0.7305236458778381|0.5138876438140869|-0.4497275650501251|0|0|0|-1|-1|3
2021-04-09 09:36:13.940 +0100|28058.720521625|-0.1137237548828125|1.519729614257812|-0.183441162109375|28058.700558625|-2.372738934503965|-1.027453331172827|-0.4702115985530402|-0.2461901009082794|0.964954137802124|-3.960926294326782|0.6972754597663879|1.188968181610107|0.270233154296875|XArbitraryZVertical|-0.5191107630468544|0.00884126045846333|-0.7422118339729571|0.4237542205225852|-0.763087272644043|0.4530749320983887|-0.4608916938304901|0|0|0|-1|-1|3
2021-04-09 09:36:13.960 +0100|28058.740483625|-0.194671630859375|1.420211791992188|-0.3220062255859375|28058.720521625|-2.416186561857489|-1.027665873616355|-0.4101707365877999|-0.06359415501356125|0.8688562512397766|-3.219884872436523|0.6854286193847656|1.141562104225159|0.2933163344860077|XArbitraryZVertical|-0.5128360762446345|-0.004923255297104742|-0.7616314345970021|0.3960966662273852|-0.7850843071937561|0.3987659215927124|-0.4739498496055603|0|0|0|-1|-1|3
2021-04-09 09:36:13.980 +0100|28058.760445625|-0.356292724609375|1.4237060546875|-0.4599456787109375|28058.740483625|-2.449629834325326|-1.023716956996823|-0.3626053581546128|-0.1581686288118362|0.7847921848297119|-2.450391054153442|0.6258601546287537|1.086403965950012|0.2044180631637573|XArbitraryZVertical|-0.5065323678358686|-0.01549173796124988|-0.7767809140652487|0.3738939287388629|-0.7985138893127441|0.3547113835811615|-0.4863699376583099|0|0|0|-1|-1|3
2021-04-09 09:36:14.000 +0100|28058.780408625|-0.428375244140625|1.455245971679688|-0.464385986328125|28058.760445625|-2.476901067402928|-1.017155883009663|-0.3301950896239626|-0.3161279857158661|0.7998806238174438|-1.666157603263855|0.4722976684570312|1.086461782455444|0.06073838472366333|XArbitraryZVertical|-0.5008656954692204|-0.02101484387374815|-0.7883064552399087|0.3567421992241895|-0.8046650886535645|0.3242275714874268|-0.4973838627338409|0|0|0|-1|-1|3
2021-04-09 09:36:14.021 +0100|28058.800370625|-0.481353759765625|1.463912963867188|-0.50640869140625|28058.800370625|-2.506923849029166|-0.9965752987675224|-0.2996055989957312|0.141769677400589|0.6356127858161926|-0.4393172264099121|0.3402835726737976|1.186789155006409|0.03553962707519531|XArbitraryZVertical|-0.4898808670531492|-0.02290839472107777|-0.8029413482629069|0.3387880758647079|-0.8022133708000183|0.2951433956623077|-0.5189839005470276|0|0|0|-1|-1|3
2021-04-09 09:36:14.040 +0100|28058.820332625|-0.610260009765625|1.356170654296875|-0.6393890380859375||||||||||||||||||||||||3
2021-04-09 09:36:14.060 +0100|28058.840294625|-0.76190185546875|1.3702392578125|-0.703643798828125|28058.820332625|-2.505430689656361|-0.9843614734058042|-0.2943140951383593|0.1955713927745819|0.5650644302368164|0.06598891317844391|0.2212678790092468|1.096893548965454|-0.07318335771560669|XArbitraryZVertical|-0.4844070625528734|-0.02344930159225358|-0.8063790509970152|0.3384566235920071|-0.79710453748703|0.2900834977626801|-0.5295998454093933|0|0|0|-1|-1|3
2021-04-09 09:36:14.080 +0100|28058.860257625|-0.81048583984375|1.4202880859375|-0.731475830078125|28058.840294625|-2.499306377955461|-0.9717735412906793|-0.2983704953937529|0.06356747448444366|0.5106297731399536|0.5960789918899536|0.06033134460449219|1.060894250869751|-0.1579452753067017|XArbitraryZVertical|-0.4796818619379714|-0.02105903027551253|-0.8078243975218624|0.3418798090049674|-0.7893967628479004|0.2939631044864655|-0.5389236807823181|0|0|0|-1|-1|3
2021-04-09 09:36:14.100 +0100|28058.880219625|-0.82208251953125|1.380706787109375|-0.7733001708984375|28058.860257625|-2.487849875175138|-0.9596852322088681|-0.3112006766727023|0.1441201567649841|0.3320152461528778|1.080223202705383|-0.02256011962890625|1.10309886932373|-0.1772628426551819|XArbitraryZVertical|-0.4760541812432887|-0.01624046249048771|-0.8069784689089725|0.3491338603753833|-0.7796711325645447|0.3062018752098083|-0.5462173223495483|0|0|0|-1|-1|3
2021-04-09 09:36:14.120 +0100|28058.900181625|-0.7927703857421875|1.3271484375|-0.8087310791015625|28058.880219625|-2.46856960688462|-0.9493004381456999|-0.3302024220261247|0.2267870754003525|0.1117743477225304|1.524600982666016|-0.05494904518127441|1.070692420005798|-0.2098385095596313|XArbitraryZVertical|-0.4737967652259906|-0.01087227671355149|-0.8033464787750249|0.3606007438948766|-0.769087016582489|0.3242345154285431|-0.5507968664169312|0|0|0|-1|-1|3
2021-04-09 09:36:14.140 +0100|28058.920144625|-0.7375946044921875|1.238052368164062|-0.793426513671875|28058.900181625|-2.442354318815033|-0.9401303468903192|-0.3550538264486249|0.2957586348056793|-0.06955762952566147|1.933882117271423|-0.04747277498245239|1.001464009284973|-0.2546378970146179|XArbitraryZVertical|-0.4727848641251232|-0.004795794947561659|-0.7970401963578595|0.3757371952501323|-0.7572609782218933|0.3476408421993256|-0.5529029369354248|0|0|0|-1|-1|3
2021-04-09 09:36:14.160 +0100|28058.940106625|-0.72979736328125|1.26678466796875|-0.738037109375|28058.920144625|-2.411215887641713|-0.9317963362130476|-0.3858599980353832|0.204400509595871|-0.2272440195083618|2.262065887451172|-0.001519322395324707|0.8676921129226685|-0.2484515309333801|XArbitraryZVertical|-0.4729924112287878|0.002550521672236786|-0.7882605078739381|0.3935952065433043|-0.7436747550964355|0.3763560354709625|-0.5525433421134949|0|0|0|-1|-1|3
2021-04-09 09:36:14.180 +0100|28058.960068625|-0.841705322265625|1.330184936523438|-0.7987518310546875|28058.940106625|-2.376152593929848|-0.9246159576691083|-0.4216875849653089|0.2572534382343292|-0.4478541612625122|2.541799545288086|0.002497553825378418|0.8395844101905823|-0.2059319019317627|XArbitraryZVertical|-0.4745362855566123|0.01089006360890816|-0.7770269182709075|0.4134320742878963|-0.7284503579139709|0.4093007743358612|-0.5493934154510498|0|0|0|-1|-1|3
2021-04-09 09:36:14.200 +0100|28058.980030625|-0.957794189453125|1.22088623046875|-0.952423095703125|28058.960068625|-2.334187288157049|-0.9181899562937641|-0.4602007976684396|0.4217291474342346|-0.7013615965843201|2.840925931930542|-0.08490729331970215|0.8796625733375549|-0.2215582132339478|XArbitraryZVertical|-0.4770905665141571|0.01853532711329614|-0.7629601513633952|0.4358130515398533|-0.7118462920188904|0.4441280364990234|-0.5440820455551147|0|0|0|-1|-1|3
2021-04-09 09:36:14.220 +0100|28058.999993625|-0.909210205078125|0.96380615234375|-1.077743530273438|28058.980030625|-2.287530548470596|-0.911289488631168|-0.5039290064306673|0.05575326085090637|-0.7194427251815796|3.15491509437561|-0.2589347362518311|0.7896817922592163|-0.3699184060096741|XArbitraryZVertical|-0.4805997366411452|0.02727077278925031|-0.7460940771690104|0.4600259831324743|-0.6920546889305115|0.4828698635101318|-0.5365604162216187|0|0|0|-1|-1|3
2021-04-09 09:36:14.240 +0100|28059.019955625|-0.6716461181640625|0.7901458740234375|-0.904998779296875|28058.999993625|-2.246972232833244|-0.9032110455299264|-0.5599697291812529|-0.7560906410217285|-0.4890871047973633|3.394872426986694|-0.2661259174346924|0.508419930934906|-0.5476508140563965|XArbitraryZVertical|-0.4856978583477849|0.04275941443173952|-0.7274717842587372|0.482756931588935|-0.6653781533241272|0.5311605334281921|-0.5245384573936462|0|0|0|-1|-1|3
2021-04-09 09:36:14.260 +0100|28059.039917625|-0.5928802490234375|1.00421142578125|-0.729156494140625|28059.019955625|-2.216861612276142|-0.8929826941028006|-0.626384474772461|-1.266007423400879|-0.201264888048172|3.354287385940552|-0.1023041009902954|0.2088695168495178|-0.412553608417511|XArbitraryZVertical|-0.4916235196380856|0.0654713684594624|-0.7086481614093448|0.5018343512220466|-0.6310646533966064|0.5862194895744324|-0.508039653301239|0|0|0|-1|-1|3
2021-04-09 09:36:14.280 +0100|28059.059880125|-0.63671875|1.028457641601562|-0.71240234375|28059.039917625|-2.185329524328681|-0.8765464372725164|-0.6909051884560623|-0.7474092245101929|-0.116175040602684|3.208710432052612|0.0008083581924438477|0.3255022764205933|-0.2581239938735962|XArbitraryZVertical|-0.495607058263638|0.08850379094532065|-0.6903252423821438|0.519607452999177|-0.592285692691803|0.6372350454330444|-0.4930814504623413|0|0|0|-1|-1|3
2021-04-09 09:36:14.300 +0100|28059.079842125|-0.6998291015625|0.90130615234375|-0.7518463134765625|28059.059880125|-2.138856582911782|-0.8480840919527025|-0.7429420576565252|-0.01383991725742817|-0.09163331240415573|3.040674448013306|-0.06652539968490601|0.3686619997024536|-0.2127043604850769|XArbitraryZVertical|-0.4952092481604757|0.1058557504232424|-0.6729641255096052|0.539149222587573|-0.5523720383644104|0.6764575839042664|-0.4871247112751007|0|0|0|-1|-1|3
2021-04-09 09:36:14.320 +0100|28059.099804125|-0.6624908447265625|0.722198486328125|-0.7772064208984375|28059.079842125|-2.079252237731975|-0.8082333551957109|-0.7841903285336476|0.3114394843578339|-0.04749583825469017|2.946881771087646|-0.1827232837677002|0.2286074161529541|-0.2573103904724121|XArbitraryZVertical|-0.4912713155037766|0.1188744374736028|-0.6564909713939665|0.559947416183608|-0.5119035243988037|0.7062522172927856|-0.489042729139328|0|0|0|-1|-1|3
2021-04-09 09:36:14.340 +0100|28059.119766125|-0.5996551513671875|0.7829742431640625|-0.7019195556640625|28059.099804125|-2.013918355332338|-0.7619849430065028|-0.8225058407530533|0.1244895756244659|-0.02669282257556915|2.993271350860596|-0.202729344367981|0.02979588508605957|-0.2813371419906616|XArbitraryZVertical|-0.4864048240886445|0.1314972113367784|-0.6397440596353948|0.5803848178919154|-0.4697112143039703|0.7328530550003052|-0.4922376573085785|0|0|0|-1|-1|3
2021-04-09 09:36:14.360 +0100|28059.139729125|-0.6121978759765625|0.9974365234375|-0.57171630859375|28059.119766125|-1.947636825881518|-0.7129717216421553|-0.864118492571004|-0.1523097455501556|-0.04311723262071609|3.077437400817871|-0.191523015499115|-0.01618468761444092|-0.2378817200660706|XArbitraryZVertical|-0.4826939612269672|0.1463905956370366|-0.6216709165529973|0.5992509559460693|-0.4247041940689087|0.7605232000350952|-0.4911526739597321|0|0|0|-1|-1|3
2021-04-09 09:36:14.380 +0100|28059.159691125|-0.56243896484375|0.868927001953125|-0.4656219482421875|28059.139729125|-1.871375141264816|-0.6561874106733205|-0.9032470439790089|0.1387871354818344|-0.1807214766740799|3.078242540359497|-0.2098346650600433|0.1416603922843933|-0.1264140605926514|XArbitraryZVertical|-0.4785024632805872|0.1605802674623143|-0.6022287059947848|0.6185224984459311|-0.3776908218860626|0.7853411436080933|-0.4904987514019012|0|0|0|-1|-1|3
2021-04-09 09:36:14.399 +0100|28059.179653125|-0.675048828125|0.81072998046875|-0.471405029296875|28059.159691125|-1.778683657967442|-0.5882364036087222|-0.9299822899059729|0.6639224886894226|-0.3586416840553284|3.11155891418457|-0.2762446403503418|-0.01532429456710815|0.03932398557662964|XArbitraryZVertical|-0.4715820261865576|0.170085989956723|-0.5825000529277262|0.6398241697608571|-0.3317428529262543|0.8016093373298645|-0.4973622858524323|0|0|0|-1|-1|3
2021-04-09 09:36:14.419 +0100|28059.199616125|-0.61041259765625|0.7236480712890625|-0.4623565673828125|28059.179653125|-1.674951566135321|-0.5134189158449985|-0.9474811900749448|0.9831027984619141|-0.4962674975395203|3.03860878944397|-0.3509314656257629|0.06439471244812012|0.02108919620513916|XArbitraryZVertical|-0.4632196065172547|0.1766140709248274|-0.5619358996069733|0.6621656279172516|-0.2867039144039154|0.811947762966156|-0.5084701180458069|0|0|0|-1|-1|3
2021-04-09 09:36:14.439 +0100|28059.219578125|-0.583709716796875|0.7247314453125|-0.3867340087890625|28059.199616125|-1.569453330914204|-0.4369312002435674|-0.9599230209317074|0.7162108421325684|-0.4893145859241486|2.960010528564453|-0.39781653881073|-0.09589630365371704|0.05706650018692017|XArbitraryZVertical|-0.4548020993307018|0.1824999878080613|-0.5410821477161729|0.6834318124650377|-0.2427179962396622|0.8191474080085754|-0.5196976065635681|0|0|0|-1|-1|3
2021-04-09 09:36:14.459 +0100|28059.239540125|-0.5414276123046875|0.6962432861328125|-0.349212646484375|28059.219578125|-1.467110068174169|-0.3628477133642826|-0.9703207325095066|0.6153571009635925|-0.5201212167739868|2.815736770629883|-0.3899791240692139|-0.09359133243560791|0.1217362284660339|XArbitraryZVertical|-0.4475794589083911|0.1885466956584785|-0.5200306678755168|0.7026314994893478|-0.2005523890256882|0.8250669836997986|-0.5282455682754517|0|0|0|-1|-1|3
2021-04-09 09:36:14.479 +0100|28059.259503125|-0.5395965576171875|0.6583099365234375|-0.36895751953125|28059.239540125|-1.368264761133549|-0.2917036380479223|-0.9771057951393837|0.5293734073638916|-0.5453737378120422|2.673342943191528|-0.3913198709487915|-0.1197143197059631|0.1871586441993713|XArbitraryZVertical|-0.4409745194183667|0.1940252404065063|-0.4992769157533741|0.7201517116061437|-0.1608815789222717|0.8288817405700684|-0.5357913374900818|0|0|0|-1|-1|3
2021-04-09 09:36:14.499 +0100|28059.279465125|-0.5240325927734375|0.7012939453125|-0.3641510009765625|28059.259503125|-1.274612584078025|-0.2246418249796713|-0.9816317828478471|0.4015949070453644|-0.5010080933570862|2.504189968109131|-0.4096390902996063|-0.1656795144081116|0.178927481174469|XArbitraryZVertical|-0.4352548818494221|0.1992502101875016|-0.4790211968444951|0.7357930750883874|-0.1237787827849388|0.8314052224159241|-0.5417050719261169|0|0|0|-1|-1|3
2021-04-09 09:36:14.520 +0100|28059.299427125|-0.4978179931640625|0.6529388427734375|-0.3371429443359375|28059.279465125|-1.186163906200249|-0.1603077650246693|-0.9824417564099036|0.4773885607719421|-0.42435422539711|2.340329170227051|-0.448872298002243|-0.1342231631278992|0.1830548048019409|XArbitraryZVertical|-0.4293505539573039|0.2042536478140358|-0.4599307179880827|0.749934927314747|-0.08858912438154221|0.8318549990653992|-0.5478770732879639|0|0|0|-1|-1|3
2021-04-09 09:36:14.539 +0100|28059.319389125|-0.4512176513671875|0.6341094970703125|-0.353424072265625|28059.299427125|-1.103675829394037|-0.09945513239829312|-0.9783174186084566|0.5161826014518738|-0.3424882292747498|2.171066522598267|-0.4486290514469147|-0.1658473014831543|0.2140004634857178|XArbitraryZVertical|-0.4226434881793962|0.2086685195107986|-0.4423115998844198|0.7630141764610388|-0.05544615909457207|0.8295589685440063|-0.5556598901748657|0|0|0|-1|-1|3
2021-04-09 09:36:14.559 +0100|28059.339352125|-0.43402099609375|0.524078369140625|-0.3702545166015625|28059.319389125|-1.027935955365518|-0.043189736306033|-0.9710526135442101|0.5001184940338135|-0.3039847314357758|2.017667531967163|-0.43501216173172|-0.1775310039520264|0.2175455093383789|XArbitraryZVertical|-0.4156742440198732|0.2127501314972945|-0.4259413106726061|0.774936344678422|-0.02437004633247852|0.8254802823066711|-0.5639045834541321|0|0|0|-1|-1|3
2021-04-09 09:36:14.579 +0100|28059.359314125|-0.4118804931640625|0.47442626953125|-0.38262939453125|28059.339352125|-0.9600834962578587|0.007411598779187025|-0.9643243337098829|0.1957909017801285|-0.2180803120136261|1.81502377986908|-0.4444568157196045|-0.2726678252220154|0.2038679122924805|XArbitraryZVertical|-0.4097678432507824|0.2170529456058013|-0.4106878689316744|0.7850566854530542|0.004224367439746857|0.8216639757156372|-0.5699566602706909|0|0|0|-1|-1|3
2021-04-09 09:36:14.599 +0100|28059.379276125|-0.3636474609375|0.4287109375|-0.291656494140625|28059.359314125|-0.9010585631059642|0.05253652226995999|-0.9642354500826232|-0.2942828834056854|-0.1326145678758621|1.555986523628235|-0.4514901041984558|-0.3347967267036438|0.1867668628692627|XArbitraryZVertical|-0.4071140341103006|0.2227751670916248|-0.3966379670035185|0.7920276578388898|0.02993442118167877|0.8216133117675781|-0.5692587494850159|0|0|0|-1|-1|3
2021-04-09 09:36:14.619 +0100|28059.399239125|-0.3145904541015625|0.53509521484375|-0.14849853515625|28059.379276125|-0.8489485495158469|0.09274654125912365|-0.9741551576124061|-0.8602356314659119|-0.1451126784086227|1.323599934577942|-0.430562436580658|-0.3891322612762451|0.2364086508750916|XArbitraryZVertical|-0.4091789710658516|0.2298834937029686|-0.3833266663609835|0.795478988075684|0.05203655734658241|0.8272274732589722|-0.5594522953033447|0|0|0|-1|-1|3
2021-04-09 09:36:14.639 +0100|28059.419201125|-0.267608642578125|0.584625244140625|-0.2092437744140625|28059.399239125|-0.802160300520576|0.1281877065458162|-0.9901228615928026|-0.9516412615776062|-0.2333830893039703|1.06825065612793|-0.3936781585216522|-0.3267853260040283|0.3672522306442261|XArbitraryZVertical|-0.4144810052311069|0.2369861105923179|-0.3708487746690097|0.7965640878754248|0.07012970745563507|0.8360933661460876|-0.5440861582756042|0|0|0|-1|-1|3
2021-04-09 09:36:14.659 +0100|28059.439163125|-0.256805419921875|0.65435791015625|-0.4425201416015625|28059.419201125|-0.7622414500763451|0.1551908084893228|-1.003464206725081|-0.6097777485847473|-0.431291788816452|0.8868877291679382|-0.3461405634880066|-0.2751001119613647|0.3648951053619385|XArbitraryZVertical|-0.4198131478396003|0.2414415199020127|-0.3597424764680769|0.7975263681961416|0.08306271582841873|0.8433376550674438|-0.5309258103370667|0|0|0|-1|-1|3
2021-04-09 09:36:14.679 +0100|28059.459125125|-0.1963043212890625|0.78515625|-0.8406524658203125|28059.439163125|-0.7301558854541771|0.1725282625664367|-1.006378711142917|0.007016679737716913|-0.5040408968925476|0.7541523575782776|-0.3554137349128723|-0.1847284436225891|0.1638081669807434|XArbitraryZVertical|-0.4218193662267619|0.242027279343442|-0.3504145915935183|0.8004379937740839|0.09183233976364136|0.8449002504348755|-0.5269824266433716|0|0|0|-1|-1|3
2021-04-09 09:36:14.699 +0100|28059.479088125|-0.130340576171875|0.6520843505859375|-0.7225189208984375|28059.459125125|-0.7070313034699904|0.1837076727835392|-0.9986631785214845|0.3854933381080627|-0.3110409379005432|0.6143027544021606|-0.3219903111457825|-0.1456487774848938|-0.2395799160003662|XArbitraryZVertical|-0.4194565849845511|0.2406200759425712|-0.3438524190385732|0.804937124855898|0.09890574216842651|0.8407479524612427|-0.5323163270950317|0|0|0|-1|-1|3
2021-04-09 09:36:14.719 +0100|28059.499050125|-0.1070709228515625|0.6796417236328125|-0.2957611083984375|28059.479088125|-0.6912048537093254|0.1922435585961434|-0.9933666044766366|-0.1333576887845993|-0.1612724214792252|0.3289034366607666|-0.2333398759365082|-0.0109485387802124|-0.2156330943107605|XArbitraryZVertical|-0.4176832790466105|0.2400677402365452|-0.3394837282943234|0.8078732258921002|0.1042952463030815|0.8378684520721436|-0.5358163118362427|0|0|0|-1|-1|3
2021-04-09 09:36:14.739 +0100|28059.519012125|-0.0837554931640625|0.6669464111328125|-0.1713714599609375|28059.499050125|-0.6720568365959516|0.2048752509179794|-1.004079746862286|-1.037321925163269|-0.2516588866710663|0.44074547290802|-0.2065135836601257|-0.4217777252197266|0.02717852592468262|XArbitraryZVertical|-0.4223616656274263|0.2424707036922772|-0.3339921028376249|0.8070117716051292|0.1092225015163422|0.8436682820320129|-0.525637149810791|0|0|0|-1|-1|3
2021-04-09 09:36:14.758 +0100|28059.538975125|-0.2208709716796875|0.913177490234375|-0.3268585205078125|28059.519012125|-0.6595661980064962|0.2075518519511786|-1.014745836425501|-0.1927511841058731|-0.61141437292099|0.1829878836870193|-0.2062274217605591|-0.1110648512840271|0.3618448376655579|XArbitraryZVertical|-0.4279064129035308|0.2421616236898078|-0.3291394376493519|0.8061769121426883|0.1087684705853462|0.849346399307251|-0.5165076851844788|0|0|0|-1|-1|3
2021-04-09 09:36:14.779 +0100|28059.558937125|-0.1541595458984375|0.5814361572265625|-0.493011474609375|28059.538975125|-0.6595548447721007|0.1924275452719139|-1.008241417848194|1.039714694023132|-0.8981658220291138|-0.1242577210068703|-0.3020273745059967|0.03311818838119507|0.2571173906326294|XArbitraryZVertical|-0.4276561815461071|0.2352820455137961|-0.3261388710062632|0.8095591778664573|0.1019988730549812|0.8458952307701111|-0.5235050916671753|0|0|0|-1|-1|3
2021-04-09 09:36:14.798 +0100|28059.578899125|-0.1345367431640625|0.083709716796875|-0.3703460693359375|28059.558937125|-0.6813987930916103|0.1552401259718231|-0.974740624940488|2.262868165969849|-0.993984580039978|-0.4095230996608734|-0.2677240371704102|-0.1524461507797241|0.1769617795944214|XArbitraryZVertical|-0.4171638441302273|0.2205865244100568|-0.3285779263604549|0.8181396726810851|0.0867995098233223|0.827556312084198|-0.5546318292617798|0|0|0|-1|-1|3
2021-04-09 09:36:14.818 +0100|28059.598862125|-0.404083251953125|0.0059967041015625|-0.494354248046875|28059.578899125|-0.7082266046786974|0.1110076456292326|-0.9365209287245835|1.685105562210083|-1.165853977203369|-0.8180352449417114|-0.1225027740001678|-0.590977668762207|0.223727822303772|XArbitraryZVertical|-0.4055135350982451|0.2026953812263055|-0.3324397669055532|0.8270171449627112|0.06564746052026749|0.8055012822151184|-0.5889467000961304|0|0|0|-1|-1|3
2021-04-09 09:36:14.838 +0100|28059.618824125|-0.41650390625|0.5412139892578125|-0.7096099853515625|28059.598862125|-0.7417267545268104|0.06184062897891633|-0.92058140022171|0.03768527880311012|-1.046885132789612|-1.096244215965271|-0.4117873013019562|-0.8411651849746704|0.08289945125579834|XArbitraryZVertical|-0.4037727712068141|0.1867279371947666|-0.3373447834013568|0.8296378139423237|0.03741183876991272|0.7959536910057068|-0.6042004823684692|0|0|0|-1|-1|3
2021-04-09 09:36:14.858 +0100|28059.638786125|-0.6942596435546875|0.5167083740234375|-0.7635650634765625|28059.618824125|-0.7823237458375504|0.009223351286778276|-0.9276356941127958|-0.4609580338001251|-1.003535509109497|-1.356027007102966|-0.3975155353546143|-0.3856683969497681|-0.05773770809173584|XArbitraryZVertical|-0.4119979115801022|0.1743749965018654|-0.3428863835441283|0.8260025066883769|0.005531420465558767|0.8002042174339294|-0.5997021794319153|0|0|0|-1|-1|3
2021-04-09 09:36:14.878 +0100|28059.658748125|-0.8403778076171875|0.5444183349609375|-0.8212890625|28059.638786125|-0.8358525899036922|-0.05133708052751542|-0.9372026197526825|-0.6142684817314148|-0.7006134986877441|-1.783406615257263|-0.5875557661056519|-0.2316098213195801|-0.149838924407959|XArbitraryZVertical|-0.4219253047613923|0.1623162904060117|-0.3514007849764514|0.8198476483245819|-0.03038050793111324|0.8059051036834717|-0.5912649035453796|0|0|0|-1|-1|3
2021-04-09 09:36:14.898 +0100|28059.678711125|-0.90093994140625|0.3846282958984375|-0.7336578369140625|28059.658748125|-0.9040178477770235|-0.1152847796604284|-0.9449282328158657|-0.3935836255550385|-0.179544523358345|-2.151280879974365|-0.7635034322738647|-0.2938226461410522|-0.2237815856933594|XArbitraryZVertical|-0.4311048154571197|0.1522902051013764|-0.3646943967053395|0.8111439498707648|-0.06738446652889252|0.8104549050331116|-0.581912636756897|0|0|0|-1|-1|3
2021-04-09 09:36:14.918 +0100|28059.698673125|-1.110076904296875|0.20025634765625|-0.4636383056640625|28059.678711125|-0.9843094540915847|-0.1792533658504004|-0.941314391533944|-0.01297423895448446|0.2524069845676422|-2.603173971176147|-0.7589410543441772|-0.3509655594825745|-0.210013210773468|XArbitraryZVertical|-0.4357440457077621|0.1431104568160936|-0.3836864384188927|0.8015181606245438|-0.104966901242733|0.808332622051239|-0.5792930722236633|0|0|0|-1|-1|3
2021-04-09 09:36:14.938 +0100|28059.718635125|-1.30242919921875|0.229705810546875|-0.300872802734375|28059.698673125|-1.079791214929304|-0.2483045626927117|-0.9330386136083977|-0.5131751894950867|0.507470965385437|-3.116461038589478|-0.9237902760505676|-0.5892451405525208|0.04210120439529419|XArbitraryZVertical|-0.439688861218496|0.1345592066477144|-0.4078056715030188|0.7888360039954989|-0.1463249325752258|0.803432822227478|-0.5771350264549255|0|0|0|-1|-1|3
2021-04-09 09:36:14.958 +0100|28059.738598125|-1.350616455078125|0.321746826171875|-0.3066253662109375|28059.718635125|-1.196647268490639|-0.3302976256361334|-0.9305597172750197|-1.230528593063354|0.6703799366950989|-3.648758411407471|-1.057551383972168|-0.5803052186965942|0.2388463616371155|XArbitraryZVertical|-0.4484411516217178|0.1278804927887006|-0.4355848116843099|0.7699436482027562|-0.1937467604875565|0.801954448223114|-0.5650942325592041|0|0|0|-1|-1|3
2021-04-09 09:36:14.978 +0100|28059.758560125|-1.33966064453125|0.473236083984375|-0.3675994873046875|28059.738598125|-1.336707836830728|-0.4274072164252319|-0.9297727601702972|-1.714788794517517|0.8371970653533936|-4.164729595184326|-1.111490845680237|-0.5146494507789612|0.261078953742981|XArbitraryZVertical|-0.4613350664293607|0.1227173858882218|-0.4667045032531228|0.7445115332001697|-0.2478852868080139|0.8014840483665466|-0.5442208051681519|0|0|0|-1|-1|3
2021-04-09 09:36:14.998 +0100|28059.778522125|-1.3399658203125|0.464080810546875|-0.4062042236328125|28059.758560125|-1.493631418682954|-0.5347007094026106|-0.9195713556430167|-1.723604321479797|0.9721222519874573|-4.705645561218262|-1.035425901412964|-0.3487172722816467|0.1732723712921143|XArbitraryZVertical|-0.4749035428190025|0.1170026248256906|-0.5011014175800403|0.7139149765191991|-0.3088898360729218|0.7953418493270874|-0.5215539932250977|0|0|0|-1|-1|3
2021-04-09 09:36:15.018 +0100|28059.798484125|-1.3031005859375|0.57501220703125|-0.427337646484375|28059.778522125|-1.659891149953958|-0.6448728804618953|-0.892579853720643|-1.776757717132568|1.12605893611908|-5.330069541931152|-0.9646970629692078|-0.3244238495826721|0.09740066528320312|XArbitraryZVertical|-0.4872171479126899|0.1091591821433036|-0.5390100042834438|0.6783599172271423|-0.3771314024925232|0.7786929607391357|-0.5014074444770813|0|0|0|-1|-1|3
2021-04-09 09:36:15.038 +0100|28059.818447125|-1.251495361328125|0.746673583984375|-0.4339599609375|28059.798484125|-1.82841596567983|-0.7494882799655553|-0.8478911301246209|-1.761375069618225|1.319465637207031|-5.846492290496826|-0.8582901954650879|-0.1996554136276245|0.0653308629989624|XArbitraryZVertical|-0.4979372449033826|0.09956340858836477|-0.579944173431984|0.637032563941456|-0.4507013261318207|0.7498869299888611|-0.4842912554740906|0|0|0|-1|-1|3
2021-04-09 09:36:15.058 +0100|28059.838409125|-1.147384643554688|1.024948120117188|-0.4289093017578125|28059.818447125|-1.985959414436878|-0.8360199812303963|-0.7854075801292861|-1.540196180343628|1.50291895866394|-6.137001037597656|-0.7478682398796082|-0.04231905937194824|0.01380425691604614|XArbitraryZVertical|-0.505181547899659|0.08811416936331934|-0.622408417438793|0.5912997424978038|-0.524654746055603|0.7071134448051453|-0.4740549921989441|0|0|0|-1|-1|3
2021-04-09 09:36:15.078 +0100|28059.858371125|-0.930023193359375|1.21746826171875|-0.7311248779296875|28059.838409125|-2.119497414922039|-0.8953276742648129|-0.7077350692778117|-0.9186752438545227|1.672377586364746|-6.132961273193359|-0.6055307984352112|0.3143166303634644|0.05784618854522705|XArbitraryZVertical|-0.5069448810804474|0.07387854897384237|-0.6642021285502967|0.5444121294932305|-0.5929870009422302|0.6501144766807556|-0.4750976860523224|0|0|0|-1|-1|3
2021-04-09 09:36:15.098 +0100|28059.878334125|-0.7597503662109375|1.72430419921875|-0.9498748779296875|28059.858371125|-2.22908876886004|-0.9270031969396135|-0.6204511548014252|-0.6807534098625183|1.990487694740295|-6.028567790985107|-0.3168559074401855|0.5823847651481628|-0.1507239639759064|XArbitraryZVertical|-0.5025010060262346|0.05755710229660296|-0.7045314643864573|0.497810652548582|-0.650750458240509|0.5814023017883301|-0.4883598387241364|0|0|0|-1|-1|3
2021-04-09 09:36:15.118 +0100|28059.898296125|-0.4998016357421875|2.117599487304688|-0.899871826171875|28059.878334125|-2.327131979184012|-0.9345363831407367|-0.5350234545092055|-0.7458897829055786|2.657318353652954|-5.709425926208496|-0.1113900542259216|1.067713499069214|-0.4102143049240112|XArbitraryZVertical|-0.4923710024113223|0.04463452015512215|-0.7434722666609964|0.4503638095591428|-0.6919248104095459|0.5098612308502197|-0.5111570954322815|0|0|0|-1|-1|3
2021-04-09 09:36:15.138 +0100|28059.918258125|-0.3450469970703125|1.925979614257812|-0.7862396240234375|28059.898296125|-2.409797509567165|-0.9147548947209164|-0.4546266014162205|-0.1628951728343964|3.209221363067627|-5.054375648498535|0.1407715082168579|1.637791752815247|-0.3769316077232361|XArbitraryZVertical|-0.4740998116981744|0.03487852877464278|-0.7806618301889809|0.405684828463277|-0.7119238972663879|0.4391268789768219|-0.5480257272720337|0|0|0|-1|-1|3
2021-04-09 09:36:15.158 +0100|28059.938220125|-0.2298583984375|1.792449951171875|-0.5731353759765625|28059.918258125|-2.472349961367615|-0.8728420246556053|-0.3820842249703079|0.0457921214401722|3.533604860305786|-4.206707000732422|0.345370352268219|1.632316589355469|-0.2138251066207886|XArbitraryZVertical|-0.4485044278104209|0.02624625596190527|-0.8140711895438176|0.3680259840287867|-0.710910439491272|0.3728552162647247|-0.5963098406791687|0|0|0|-1|-1|3
2021-04-09 09:36:15.178 +0100|28059.958183125|-0.0236968994140625|2.3123779296875|-0.12774658203125|28059.938220125|-2.530981345113513|-0.8185244117761927|-0.3290938928317961|-0.7037451863288879|3.939388036727905|-3.431827783584595|0.416983962059021|1.447550058364868|-0.003805994987487793|XArbitraryZVertical|-0.4195748818526814|0.02533110128695361|-0.8435770883666357|0.334205190218772|-0.6909559369087219|0.3231856822967529|-0.6466305255889893|0|0|0|-1|-1|3
2021-04-09 09:36:15.198 +0100|28059.978145125|0.147125244140625|2.671157836914062|0.18798828125|28059.958183125|-2.586730955103062|-0.7546481323211919|-0.2977241960920134|-0.6231374740600586|4.100158214569092|-2.571861267089844|0.5851929783821106|1.846668362617493|0.4591885805130005|XArbitraryZVertical|-0.3881903555903219|0.03281463619257018|-0.869251646259254|0.304357035491862|-0.6548954844474792|0.2933452725410461|-0.696462869644165|0|0|0|-1|-1|3
2021-04-09 09:36:15.218 +0100|28059.998107125|0.035247802734375|2.723312377929688|0.35662841796875|28059.978145125|-2.622065921868416|-0.684730960935684|-0.269635351135192|0.4221760928630829|3.834373474121094|-1.844173669815063|0.7240226864814758|2.353018999099731|0.8596540689468384|XArbitraryZVertical|-0.3540287889309559|0.0369144031857836|-0.8905103398104521|0.2833592518788497|-0.6096125245094299|0.2663799822330475|-0.7466018795967102|0|0|0|-1|-1|3
2021-04-09 09:36:15.238 +0100|28060.018070125|-0.444244384765625|3.903854370117188|0.6206817626953125|28059.998107125|-2.63826816836623|-0.6169007076332942|-0.2439892195281311|0.4366569817066193|3.404250144958496|-0.8711177706718445|0.6763961911201477|2.373154163360596|1.075238466262817|XArbitraryZVertical|-0.3207073427058912|0.03726206730614522|-0.906733876266908|0.271278553002211|-0.561375617980957|0.2415755987167358|-0.7915166616439819|0|0|0|-1|-1|3
2021-04-09 09:36:15.258 +0100|28060.038032125|-1.175796508789062|4.9156494140625|0.5500946044921875|28060.018070125|-2.639058567804681|-0.5546005498092472|-0.2406047976414702|-0.1468764543533325|2.759884119033813|0.8242146968841553|0.1904199123382568|3.305516958236694|1.387466311454773|XArbitraryZVertical|-0.291945935404168|0.04422966007239464|-0.916693967168341|0.2692277946941783|-0.5114344358444214|0.2382900416851044|-0.8256226181983948|0|0|0|-1|-1|3
2021-04-09 09:36:15.278 +0100|28060.057994375|-1.334732055664062|4.537948608398438|1.017654418945312|28060.038032125|-2.603354910031599|-0.5030621501544653|-0.2728421532158393|-1.101989150047302|1.41866135597229|3.999910354614258|-0.5054347515106201|4.526336193084717|1.384870052337646|XArbitraryZVertical|-0.2727210945185349|0.06141782010896345|-0.9159964170764265|0.2877528307741245|-0.4642767906188965|0.2694695293903351|-0.8437021374702454|0|0|0|-1|-1|3
2021-04-09 09:36:15.298 +0100|28060.077957375|-1.670913696289062|4.43377685546875|0.3426971435546875|28060.057994375|-2.511832570619941|-0.4649663704757998|-0.3553346798083189|-2.088707447052002|-0.4980489313602448|7.454697132110596|-0.955885112285614|4.330683708190918|1.729798436164856|XArbitraryZVertical|-0.2688809626549885|0.09329328972166252|-0.89807817690966|0.3353432318659553|-0.4203816950321198|0.3479041457176208|-0.8379988074302673|0|0|0|-1|-1|3
2021-04-09 09:36:15.318 +0100|28060.097919375|-2.364334106445312|4.250839233398438|-0.870941162109375|28060.077957375|-2.359682969876732|-0.4304679136456085|-0.4765248477664014|-2.875262260437012|-2.072892665863037|10.17588996887207|-1.118268251419067|3.988067150115967|1.420580506324768|XArbitraryZVertical|-0.2797455475233638|0.1340828869058773|-0.8584882770362544|0.4083653518064999|-0.3708069324493408|0.4586939513683319|-0.8075284361839294|0|0|0|-1|-1|3
2021-04-09 09:36:15.338 +0100|28060.117881375|-2.931488037109375|3.540252685546875|-1.550949096679688|28060.097919375|-2.151493340760518|-0.3692619653690956|-0.6305418568368878|-4.344744205474854|-2.652213573455811|12.07302284240723|-1.882091283798218|3.719483613967896|0.1673870086669922|XArbitraryZVertical|-0.2983864580203773|0.1852933578887094|-0.7953129376046491|0.4940741933389495|-0.2915238738059998|0.5895825028419495|-0.7532637715339661|0|0|0|-1|-1|3
2021-04-09 09:36:15.358 +0100|28060.137843375|-3.183029174804688|2.929840087890625|-2.13031005859375|28060.117881375|-1.866350732203694|-0.2397516683706019|-0.7962676678603592|-4.645351409912109|-3.142126321792603|13.36131000518799|-2.679872512817383|3.078751564025879|-0.727577269077301|XArbitraryZVertical|-0.3177109414669962|0.2436642971321004|-0.7077527598446903|0.5820425956311427|-0.166075587272644|0.7147507667541504|-0.6793749332427979|0|0|0|-1|-1|3
2021-04-09 09:36:15.378 +0100|28060.157806375|-2.759902954101562|1.542984008789062|-2.576583862304688|28060.137843375|-1.466041451408523|0.001467229785101547|-0.9155855294211144|-3.6719970703125|-2.849100589752197|13.60373973846436|-3.089502811431885|2.303882122039795|-1.449619054794312|XArbitraryZVertical|-0.3280119177037392|0.2962182902783571|-0.6004594541569089|0.6664168768485786|0.0008940216503106058|0.7929195165634155|-0.6093258261680603|0|0|0|-1|-1|3
2021-04-09 09:36:15.398 +0100|28060.177768375|-2.446517944335938|1.213348388671875|-2.169662475585938|28060.157806375|-0.9959905802438312|0.3278420226665931|-0.9460343731485436|-4.046244144439697|-2.094882488250732|13.08714199066162|-3.172013759613037|0.8649079203605652|-2.241582155227661|XArbitraryZVertical|-0.3254856356773592|0.3423201569112174|-0.4848309836066209|0.7360809318585609|0.1883396357297897|0.8111023902893066|-0.5537520051002502|0|0|0|-1|-1|3
2021-04-09 09:36:15.417 +0100|28060.197730375|-1.86541748046875|0.274444580078125|-1.929855346679688|28060.177768375|-0.5622227627312528|0.6401775494978393|-0.904337083382271|-4.399962425231934|-1.496525883674622|11.71413135528564|-2.836671352386475|0.6757616400718689|-1.803566813468933|XArbitraryZVertical|-0.3199272259952795|0.3869739044101161|-0.3689481267924931|0.7821605558737607|0.3692783415317535|0.786015510559082|-0.4957955479621887|0|0|0|-1|-1|3
2021-04-09 09:36:15.438 +0100|28060.217693375|-1.16705322265625|0.5661773681640625|-1.714859008789062|28060.197730375|-0.2133236565551825|0.8828394127003121|-0.8260159151883202|-5.501622676849365|-0.8675843477249146|9.999847412109375|-2.61606240272522|-0.3310460448265076|-1.599356770515442|XArbitraryZVertical|-0.319173458902536|0.4277112991512553|-0.2586602665948298|0.8051623775944098|0.5236390829086304|0.7352367639541626|-0.4303826987743378|0|0|0|-1|-1|3
2021-04-09 09:36:15.458 +0100|28060.237655375|-0.9043121337890625|0.5158233642578125|-1.393157958984375|28060.217693375|0.05126639227767998|1.055391905680158|-0.7321111448998125|-4.23738431930542|-0.5991597771644592|8.369657516479492|-1.917455315589905|-0.2062212228775024|-1.384781360626221|XArbitraryZVertical|-0.3211943929092607|0.4621019069919153|-0.1595000573432903|0.811083208569522|0.64714515209198|0.6684412956237793|-0.3665919899940491|0|0|0|-1|-1|3
2021-04-09 09:36:15.477 +0100|28060.257617375|-0.6597442626953125|0.2044525146484375|-1.09222412109375|28060.237655375|0.2098123641656383|1.146101452966584|-0.6242768011357619|-2.159443140029907|-0.3221904337406158|6.852179050445557|-1.694079875946045|0.02333939075469971|-1.146783828735352|XArbitraryZVertical|-0.3106499226894069|0.4861416855695472|-0.08185621768827332|0.8126884254837171|0.7393062114715576|0.5845106244087219|-0.334325760602951|0|0|0|-1|-1|3
2021-04-09 09:36:15.497 +0100|28060.277579375|-0.3556976318359375|0.2014312744140625|-0.9342803955078125|28060.257617375|0.3114239699941275|1.198197397605455|-0.5272238031504064|-2.223099231719971|-0.0172836109995842|5.448292255401611|-1.53847599029541|-0.2520670294761658|-0.8395100831985474|XArbitraryZVertical|-0.2970165330858981|0.5044594702191721|-0.02150643562057186|0.8104562709530518|0.8049091696739197|0.5031360983848572|-0.3146036565303802|0|0|0|-1|-1|3
2021-04-09 09:36:15.517 +0100|28060.297542375|-0.2208099365234375|0.2608489990234375|-0.7220001220703125|28060.277579375|0.4058678802433556|1.243563647459949|-0.4549713683324666|-3.141761541366577|0.083429254591465|4.232739925384521|-1.275519132614136|-0.2377448081970215|-0.6798707246780396|XArbitraryZVertical|-0.2939289734347533|0.5188857896434594|0.03093149288114023|0.8021264688903582|0.8506073951721191|0.4394365847110748|-0.2887265980243683|0|0|0|-1|-1|3
2021-04-09 09:36:15.537 +0100|28060.317504375|-0.2272491455078125|0.4609832763671875|-0.505462646484375|28060.297542375|0.500777854710295|1.284186060362689|-0.4048112808349988|-3.403991937637329|-0.02038592472672462|3.186488389968872|-1.116331458091736|-0.1868587732315063|-0.5522037744522095|XArbitraryZVertical|-0.3013304535132942|0.528463066939725|0.07774781807438184|0.7898620871924424|0.8816814422607422|0.3938452899456024|-0.2598534822463989|0|0|0|-1|-1|3
2021-04-09 09:36:15.557 +0100|28060.337466375|-0.1571197509765625|0.3440093994140625|-0.44610595703125|28060.317504375|0.5765550024573363|1.309679192508383|-0.3676206516649393|-2.15235710144043|-0.3078813552856445|2.324208736419678|-1.135774970054626|0.05498793721199036|-0.3165989816188812|XArbitraryZVertical|-0.309218414112742|0.532849360908045|0.1149701611140347|0.7792544212860288|0.9015522003173828|0.3593960702419281|-0.240911066532135|0|0|0|-1|-1|3
2021-04-09 09:36:15.578 +0100|28060.357429375|-0.049102783203125|0.11737060546875|-0.4508056640625|28060.337466375|0.6154974362940433|1.313975055952654|-0.336739205725461|-0.7844043970108032|-0.5784734487533569|1.610704183578491|-1.087335467338562|0.07574829459190369|-0.2210582345724106|XArbitraryZVertical|-0.3088417321774353|0.5336159562435809|0.1389306627108966|0.7749639744608904|0.9128814339637756|0.3304111957550049|-0.2397415935993195|0|0|0|-1|-1|3
2021-04-09 09:36:15.597 +0100|28060.377391375|0.0031890869140625|-0.0109710693359375|-0.48516845703125|28060.357429375|0.6365881324224084|1.308081963900144|-0.3156133793562176|-0.7758714556694031|-0.6674613952636719|0.9601956009864807|-0.994512677192688|-0.1544079184532166|-0.194515585899353|XArbitraryZVertical|-0.3064870460148967|0.5316278366153381|0.1544695690699069|0.7743235213472159|0.9179897308349609|0.3103996217250824|-0.246875062584877|0|0|0|-1|-1|3
2021-04-09 09:36:15.617 +0100|28060.397353375|-0.0301055908203125|-0.056060791015625|-0.3743743896484375|28060.377391375|0.6627101815516786|1.302175637220028|-0.3090867959703519|-1.529289245605469|-0.735819399356842|0.3274307250976562|-0.920097291469574|-0.2729072272777557|-0.2306646704673767|XArbitraryZVertical|-0.3105923978718489|0.5264217746123683|0.1674730992628042|0.773540836849416|0.9184492230415344|0.3041888475418091|-0.2528249621391296|0|0|0|-1|-1|3
2021-04-09 09:36:15.637 +0100|28060.417315375|-0.021697998046875|0.2868499755859375|-0.2101898193359375|28060.397353375|0.7009912666950336|1.299018535917801|-0.3181394754159568|-2.086321830749512|-0.7533290982246399|-0.2196444422006607|-0.934411346912384|-0.4034513533115387|-0.1740878522396088|XArbitraryZVertical|-0.3235200303812226|0.5175403199217239|0.1800205527428636|0.7714139518493869|0.9149561524391174|0.3127999305725098|-0.2549736201763153|0|0|0|-1|-1|3
2021-04-09 09:36:15.657 +0100|28060.437278375|-0.036041259765625|0.325439453125|-0.248626708984375|28060.417315375|0.7347691710996196|1.293293269126935|-0.3369355910865688|-1.299224972724915|-0.9401731491088867|-0.713222861289978|-0.9371460676193237|-0.1244340240955353|0.03333190083503723|XArbitraryZVertical|-0.3382351598969004|0.5062819141549851|0.1883197404669128|0.7705915354179967|0.9076658487319946|0.330596536397934|-0.2585512101650238|0|0|0|-1|-1|3
2021-04-09 09:36:15.677 +0100|28060.457240375|-0.0558013916015625|0.1444549560546875|-0.338653564453125|28060.437278375|0.7426912453153471|1.274791048493962|-0.3587191690489497|-0.1512624770402908|-1.155842542648315|-1.161899328231812|-0.9208327531814575|0.006530821323394775|0.04170435667037964|XArbitraryZVertical|-0.3460794261308999|0.4936213464599525|0.1880115317161873|0.7753830325856491|0.8956250548362732|0.3510752320289612|-0.2731339931488037|0|0|0|-1|-1|3
2021-04-09 09:36:15.697 +0100|28060.477202375|-0.05859375|0.144012451171875|-0.327362060546875|28060.457240375|0.7342652457921147|1.248440345193863|-0.3851474583904179|-0.05946357548236847|-1.16310977935791|-1.597819447517395|-0.9396772980690002|-0.194847583770752|-0.0215299129486084|XArbitraryZVertical|-0.3508553991942624|0.4796909569867101|0.181463511937082|0.7834974316059811|0.8790081739425659|0.3756957948207855|-0.2935941517353058|0|0|0|-1|-1|3
2021-04-09 09:36:15.717 +0100|28060.497165375|-0.116363525390625|0.1990814208984375|-0.250244140625|28060.477202375|0.7276186809253009|1.223052467264071|-0.4211246783062026|-0.5790325999259949|-1.124060273170471|-1.998234391212463|-0.9087544083595276|-0.2705262303352356|-0.02717629075050354|XArbitraryZVertical|-0.3597108246389009|0.4637954717018292|0.1727723201336042|0.790981431091986|0.8580033779144287|0.4087871313095093|-0.3110037744045258|0|0|0|-1|-1|3
2021-04-09 09:36:15.737 +0100|28060.517127375|-0.14337158203125|0.4156341552734375|-0.1334991455078125|28060.497165375|0.7270773565846451|1.200649733786501|-0.4674008112583076|-0.9277425408363342|-1.105786323547363|-2.339640378952026|-0.9321194887161255|-0.2767534852027893|0.05105561017990112|XArbitraryZVertical|-0.374011687120039|0.4456899198328365|0.1631633029079649|0.7967770837675179|0.8322809934616089|0.4505673944950104|-0.3229514956474304|0|0|0|-1|-1|3
2021-04-09 09:36:15.757 +0100|28060.537089375|-0.1288909912109375|0.5290985107421875|-0.1315460205078125|28060.517127375|0.7238402907792145|1.176857802436439|-0.519653420107319|-0.6529483795166016|-1.159173965454102|-2.625427007675171|-0.9520049691200256|-0.1359674036502838|0.1831662356853485|XArbitraryZVertical|-0.38979184620305|0.4260076464302847|0.1512721231946672|0.8023070617915087|0.8015071749687195|0.4965793490409851|-0.3331595957279205|0|0|0|-1|-1|3
2021-04-09 09:36:15.777 +0100|28060.557051375|-0.15130615234375|0.545166015625|-0.24029541015625|28060.537089375|0.7055005032586061|1.142486188605106|-0.5727922203064761|-0.05871257930994034|-1.314154624938965|-2.881168127059937|-0.8871585726737976|-0.02916240692138672|0.2310779392719269|XArbitraryZVertical|-0.4021971272816691|0.4046182392742683|0.135455038229689|0.8100454093283933|0.764477550983429|0.5419807434082031|-0.3490431010723114|0|0|0|-1|-1|3
2021-04-09 09:36:15.797 +0100|28060.577014375|-0.168670654296875|0.60162353515625|-0.36212158203125|28060.557051375|0.6730555986826244|1.097315066408099|-0.6265251514276418|0.03322016820311546|-1.350862622261047|-3.132609367370605|-0.8657879829406738|-0.04325693845748901|0.1686527729034424|XArbitraryZVertical|-0.4120225962735064|0.3815056498819678|0.1163281293476563|0.8192428240653506|0.7209511399269104|0.5863334536552429|-0.3693816363811493|0|0|0|-1|-1|3
2021-04-09 09:36:15.817 +0100|28060.596976375|-0.187469482421875|0.6870880126953125|-0.4153289794921875|28060.577014375|0.636227620097857|1.048648272271812|-0.6848686029304563|-0.2961201965808868|-1.265698432922363|-3.39696216583252|-0.8357899785041809|-0.05349922180175781|0.04864704608917236|XArbitraryZVertical|-0.4235820256111134|0.3569865654471338|0.09537065347806234|0.8270692467533068|0.6712998151779175|0.6325712203979492|-0.3862777054309845|0|0|0|-1|-1|3
2021-04-09 09:36:15.837 +0100|28060.616938375|-0.1932373046875|0.9068756103515625|-0.2802581787109375|28060.596976375|0.5993622848366721|1.000806744214723|-0.7506598959827506|-0.7005352973937988|-1.111903429031372|-3.670535326004028|-0.8033949136734009|-0.01654744148254395|-0.01154899597167969|XArbitraryZVertical|-0.4390763253965107|0.3315345626988895|0.07294921313061434|0.8318506132261364|0.6156349778175354|0.6821214556694031|-0.3945936262607574|0|0|0|-1|-1|3
2021-04-09 09:36:15.857 +0100|28060.636901375|-0.1837158203125|1.215164184570312|-0.1969451904296875|28060.616938375|0.5575775206123003|0.9502018485384096|-0.8218011692868841|-0.7325125336647034|-0.9895992875099182|-3.891632795333862|-0.7382487654685974|0.09549301862716675|0.07390671968460083|XArbitraryZVertical|-0.456884135176544|0.3054141682382709|0.04868523456043555|0.8340317611331238|0.5539372563362122|0.7323734164237976|-0.3959581553936005|0|0|0|-1|-1|3
2021-04-09 09:36:15.877 +0100|28060.656863375|-0.18084716796875|1.227645874023438|-0.315460205078125|28060.636901375|0.4953314452229257|0.8839449629891701|-0.8919767735229975|-0.23159159719944|-0.9488770961761475|-4.161791801452637|-0.6800216436386108|0.3951331377029419|0.2091595530509949|XArbitraryZVertical|-0.4726007893925679|0.2785299790263714|0.0210426831358372|0.8358391346433919|0.4855020940303802|0.7783144116401672|-0.398139089345932|0|0|0|-1|-1|3
2021-04-09 09:36:15.897 +0100|28060.676825375|-0.1720733642578125|1.2386474609375|-0.54876708984375|28060.656863375|0.4029115947938358|0.7913691858249281|-0.9563356719978082|-0.06535091251134872|-0.9059733152389526|-4.358845710754395|-0.5854413509368896|0.4225555062294006|0.1424016356468201|XArbitraryZVertical|-0.4844861796890596|0.2503276754062194|-0.009848233681010855|0.8381600663334282|0.4100866615772247|0.8170844912528992|-0.4052183926105499|0|0|0|-1|-1|3
2021-04-09 09:36:15.916 +0100|28060.696787375|-0.0892486572265625|1.467269897460938|-0.591827392578125|28060.676825375|0.2922364045288181|0.6833144347607997|-1.021269111134839|-0.7609962821006775|-0.6279307007789612|-4.510343551635742|-0.5129965543746948|0.362912118434906|-0.09221422672271729|XArbitraryZVertical|-0.4981352699135944|0.2221476598970332|-0.04232033402679746|0.8370907152498687|0.3297529816627502|0.852771520614624|-0.4050233364105225|0|0|0|-1|-1|3
2021-04-09 09:36:15.937 +0100|28060.716750375|0.0128936767578125|1.68353271484375|-0.4429779052734375|28060.696787375|0.1693737305058184|0.5678123509301171|-1.093303565621537|-1.454977869987488|-0.2148427516222|-4.591670513153076|-0.3620578348636627|0.5064887404441833|-0.2252601385116577|XArbitraryZVertical|-0.5174721738121005|0.196219906343882|-0.07572002891690784|0.829449788597168|0.2471431046724319|0.8881499171257019|-0.3874405920505524|0|0|0|-1|-1|3
2021-04-09 09:36:15.957 +0100|28060.736712375|0.102813720703125|1.728317260742188|-0.4818267822265625|28060.716750375|0.01390418852344735|0.4264697234083746|-1.161858816140288|-1.240676641464233|0.0909898653626442|-4.495035648345947|-0.1821253150701523|0.7240581512451172|-0.1092324554920197|XArbitraryZVertical|-0.5375884617863355|0.1731733822679129|-0.1104559525603705|0.8178075088561525|0.164485290646553|0.9175438284873962|-0.3620192408561707|0|0|0|-1|-1|3
2021-04-09 09:36:15.977 +0100|28060.756674375|0.123931884765625|1.6300048828125|-0.669921875|28060.736712375|-0.1874598842614971|0.2423713427266489|-1.206819970225097|-0.4918609857559204|0.1367598026990891|-4.110114097595215|0.002068005502223969|0.7889156937599182|-0.1027602255344391|XArbitraryZVertical|-0.5515029194482963|0.151823936942225|-0.1447974706478829|0.8073585696309784|0.0854402557015419|0.9344886541366577|-0.3455880582332611|0|0|0|-1|-1|3
2021-04-09 09:36:15.996 +0100|28060.776637375|0.2385406494140625|1.484481811523438|-0.7268218994140625|28060.756674375|-0.40492622171679|0.0413573347773323|-1.22263066696485|-0.1200176849961281|0.2049613445997238|-3.644264459609985|0.09218575060367584|0.7375667691230774|-0.2892434000968933|XArbitraryZVertical|-0.5586966262970193|0.1319722184972727|-0.1762553072665912|0.7996097286224197|0.01410604827105999|0.9400001168251038|-0.3408828377723694|0|0|0|-1|-1|3
2021-04-09 09:36:16.016 +0100|28060.796599375|0.23992919921875|1.55120849609375|-0.6027374267578125|28060.776637375|-0.6092812137350579|-0.1443850768977378|-1.225343275499681|-0.5795247554779053|0.4790186583995819|-3.298861265182495|0.2737581431865692|0.5592460036277771|-0.391187310218811|XArbitraryZVertical|-0.5648478583787295|0.1157452666272214|-0.2051857935370434|0.7908532833875784|-0.04872246459126472|0.9409221410751343|-0.335099846124649|0|0|0|-1|-1|3
2021-04-09 09:36:16.037 +0100|28060.816561375|0.1948394775390625|1.642074584960938|-0.430816650390625|28060.796599375|-0.8010813821971263|-0.3110195286421363|-1.227331271857371|-0.9785760045051575|0.9118602871894836|-2.961967945098877|0.3470888733863831|0.5792654752731323|-0.3282077312469482|XArbitraryZVertical|-0.5732619109684579|0.1052289047567157|-0.2327934119455588|0.7785274483474893|-0.103056013584137|0.9415934681892395|-0.3205953240394592|0|0|0|-1|-1|3
