loggingTime(txt)|accelerometerTimestamp_sinceReboot(s)|accelerometerAccelerationX(G)|accelerometerAccelerationY(G)|accelerometerAccelerationZ(G)|motionTimestamp_sinceReboot(s)|motionYaw(rad)|motionRoll(rad)|motionPitch(rad)|motionRotationRateX(rad/s)|motionRotationRateY(rad/s)|motionRotationRateZ(rad/s)|motionUserAccelerationX(G)|motionUserAccelerationY(G)|motionUserAccelerationZ(G)|motionAttitudeReferenceFrame(txt)|motionQuaternionX(R)|motionQuaternionY(R)|motionQuaternionZ(R)|motionQuaternionW(R)|motionGravityX(G)|motionGravityY(G)|motionGravityZ(G)|motionMagneticFieldX(µT)|motionMagneticFieldY(µT)|motionMagneticFieldZ(µT)|motionHeading(°)|motionMagneticFieldCalibrationAccuracy(Z)|label
2021-03-10 21:16:03.722 +0000|291323.9121685|-0.5754852294921875|0.1285858154296875|-0.7963104248046875|291323.8922055|1.384542001604309|-0.6573674470468427|-0.1156157872746106|-0.0382714718580246|0.05427557602524757|-0.0001686359755694866|0.02933424711227417|0.001112014055252075|0.001635551452636719|XArbitraryZVertical|-0.1635985122671521|0.2829772914042535|-0.6174657936283325|-0.7154686369731321|-0.6069557070732117|0.1153583899140358|-0.7863187789916992|0|0|0|-1|-1|3
2021-03-10 21:16:03.730 +0000|291323.9321315|-0.5808258056640625|0.1082305908203125|-0.7978363037109375|291323.9121685|1.384166851211963|-0.6562764511521675|-0.1164765892479236|-0.01714509911835194|0.05108335241675377|-0.007600186858326197|0.02893400192260742|0.0123114287853241|-0.007913529872894287|XArbitraryZVertical|-0.1628903196086774|0.2828709479644075|-0.6175122371695652|-0.7156322903335466|-0.6060367226600647|0.116213396191597|-0.7869015336036682|0|0|0|-1|-1|3
2021-03-10 21:16:03.732 +0000|291323.9520945|-0.59063720703125|0.110382080078125|-0.784637451171875|291323.9321315|1.383675921660991|-0.6552742465187287|-0.116462046319339|-0.01951296441257|0.04207286238670349|-0.01346242520958185|0.02073031663894653|-0.004443526268005371|-0.01058584451675415|XArbitraryZVertical|-0.1625168861563904|0.282547926451939|-0.6174165249939941|-0.7159273379760436|-0.6052488088607788|0.1161989569664001|-0.7875098586082458|0|0|0|-1|-1|3
2021-03-10 21:16:03.752 +0000|291323.9720575|-0.591278076171875|0.1192626953125|-0.7743377685546875|291323.9520945|1.383131280855299|-0.6540161672260723|-0.1161736860184059|-0.01254508644342422|0.0641300156712532|-0.02687756717205048|0.002532243728637695|0.009697854518890381|0.0009894967079162598|XArbitraryZVertical|-0.1621583832566731|0.2820568120644188|-0.6172930504546522|-0.7163085636242541|-0.6042779088020325|0.1159125417470932|-0.7882972359657288|0|0|0|-1|-1|3
2021-03-10 21:16:03.772 +0000|291323.9920195|-0.5775909423828125|0.1205902099609375|-0.770263671875|291323.9720575|1.382416427483325|-0.6525778116861606|-0.1163716966681722|-0.02585543319582939|0.06126759573817253|-0.03134679421782494|0.01623064279556274|0.003168776631355286|0.01189512014389038|XArbitraryZVertical|-0.1615404648483944|0.2816576330635071|-0.6171743081247449|-0.7167074005701422|-0.6031294465065002|0.1161092147231102|-0.7891473174095154|0|0|0|-1|-1|3
2021-03-10 21:16:03.792 +0000|291324.0119825|-0.583831787109375|0.1193084716796875|-0.7656707763671875|291323.9920195|1.381596493787111|-0.6514556317400175|-0.1166766251398122|-0.02587738819420338|0.03265896439552307|-0.04169477522373199|0.0235629677772522|-0.0002621263265609741|0.01887565851211548|XArbitraryZVertical|-0.1609658897400457|0.2814112032141713|-0.6170030874320771|-0.7170807610641535|-0.6022220253944397|0.1164120733737946|-0.789795458316803|0|0|0|-1|-1|3
2021-03-10 21:16:03.812 +0000|291324.0319455|-0.5893402099609375|0.1162261962890625|-0.764373779296875|291324.0119825|1.38078520827874|-0.6507147412347056|-0.1166427519677417|-0.01975561305880547|0.01165248267352581|-0.03461591154336929|0.01440459489822388|0.003281041979789734|0.02465009689331055|XArbitraryZVertical|-0.1606357680419718|0.2812007576985305|-0.6167681295352927|-0.7174395199838139|-0.6016390919685364|0.1163784340023994|-0.7902445793151855|0|0|0|-1|-1|3
2021-03-10 21:16:03.832 +0000|291324.0519085|-0.5904541015625|0.1036529541015625|-0.762786865234375|291324.0319455|1.379943735919885|-0.6508316801447409|-0.1169477302742458|-0.03938505798578262|-0.01869487762451172|-0.02698524668812752|0.01655071973800659|-0.002576090395450592|0.02337652444839478|XArbitraryZVertical|-0.160440468526455|0.2813999040493628|-0.6164890060424912|-0.7176448741367205|-0.6017099618911743|0.1166813373565674|-0.7901458740234375|0|0|0|-1|-1|3
2021-03-10 21:16:03.852 +0000|291324.0718715|-0.5943603515625|0.094451904296875|-0.7504425048828125|291324.0519085|1.378836766603741|-0.6514934485913306|-0.1174663888228635|-0.07893200218677521|-0.04397189617156982|-0.02563538029789925|0.01155877113342285|-0.01027805358171463|0.02648526430130005|XArbitraryZVertical|-0.1602961753804252|0.2818784768793104|-0.6160934086483116|-0.7178290687470273|-0.6021959781646729|0.1171964332461357|-0.7896993160247803|0|0|0|-1|-1|3
2021-03-10 21:16:03.872 +0000|291324.0918345|-0.5938873291015625|0.074493408203125|-0.72418212890625|291324.0718715|1.377043643508623|-0.6527592067374188|-0.1188954199657753|-0.1452157944440842|-0.06850259751081467|-0.02958440408110619|0.009205341339111328|-0.02074559032917023|0.0350489616394043|XArbitraryZVertical|-0.1599025379820923|0.2828955023766097|-0.6154993617479059|-0.718026453242811|-0.6030927300453186|0.1186155006289482|-0.7888026237487793|0|0|0|-1|-1|3
2021-03-10 21:16:03.892 +0000|291324.1117975|-0.6010589599609375|0.0412445068359375|-0.68243408203125|291324.0918345|1.374181977785318|-0.6546298139366229|-0.1216217415622695|-0.2391940951347351|-0.08959179371595383|-0.04218417406082153|0.01058757305145264|-0.03982491046190262|0.05621248483657837|XArbitraryZVertical|-0.1590594596168177|0.2845931768902318|-0.6146109122559072|-0.7183037604429811|-0.6043680310249329|0.1213221251964569|-0.7874135971069336|0|0|0|-1|-1|3
2021-03-10 21:16:03.912 +0000|291324.1317605|-0.5732574462890625|-0.01629638671875|-0.6284332275390625|291324.1117975|1.369604749859228|-0.6570280678114231|-0.1257599458115383|-0.3872052729129791|-0.09459853917360306|-0.06084298714995384|0.007325351238250732|-0.07469318807125092|0.08978742361068726|XArbitraryZVertical|-0.1576025148010916|0.2870237061668855|-0.6132145017984821|-0.7188511061380555|-0.6059429049491882|0.125428706407547|-0.7855576872825623|0|0|0|-1|-1|3
2021-03-10 21:16:03.933 +0000|291324.1517235|-0.5516204833984375|-0.0441131591796875|-0.588623046875|291324.1317605|1.362392393533802|-0.6599827743042945|-0.1322416230241408|-0.6039834022521973|-0.1148156598210335|-0.0928531214594841|0.02530688047409058|-0.1319480538368225|0.140221893787384|XArbitraryZVertical|-0.1550490041158759|0.2905292494151914|-0.6110758780601611|-0.7198185845125002|-0.6077501177787781|0.1318565160036087|-0.7831051349639893|0|0|0|-1|-1|3
2021-03-10 21:16:03.953 +0000|291324.1716865|-0.5831756591796875|0.069244384765625|-0.602630615234375|291324.1517235|1.351443317110528|-0.6644581199528687|-0.1420738571714007|-0.8516101241111755|-0.194987565279007|-0.1479798555374146|0.05463361740112305|-0.1929879486560822|0.1839974522590637|XArbitraryZVertical|-0.1511280494915559|0.2958052924379345|-0.6078300957876203|-0.7212504216442426|-0.610419750213623|0.1415963768959045|-0.7793191075325012|0|0|0|-1|-1|3
2021-03-10 21:16:03.972 +0000|291324.1916495|-0.6919403076171875|0.186004638671875|-0.6323394775390625|291324.1716865|1.337045002663537|-0.6720982910805791|-0.1537339397481289|-0.9231240749359131|-0.3498646914958954|-0.2504006028175354|0.05106192827224731|-0.127128079533577|0.1744722127914429|XArbitraryZVertical|-0.1469002122601574|0.3029460193066761|-0.6033009165725431|-0.7229605907377283|-0.615286111831665|0.1531291007995605|-0.7732880711555481|0|0|0|-1|-1|3
2021-03-10 21:16:03.992 +0000|291324.2116115|-0.6943817138671875|0.2382659912109375|-0.6732025146484375|291324.1916495|1.321137250534277|-0.6816322200771724|-0.163905543773001|-0.8454799056053162|-0.3270861506462097|-0.3235811293125153|-0.05358445644378662|0.004536747932434082|0.1433197855949402|XArbitraryZVertical|-0.14347692497758|0.3103957010252136|-0.5979408367338986|-0.7249384850236825|-0.6216170191764832|0.163172647356987|-0.7661377787590027|0|0|0|-1|-1|3
2021-03-10 21:16:04.027 +0000|291324.2315745|-0.6917266845703125|0.263275146484375|-0.70806884765625|291324.2116115|1.305781204599154|-0.6902016549690938|-0.171197155693325|-0.6691007018089294|-0.2848463952541351|-0.3933550715446472|-0.07302367687225342|0.05475082993507385|0.09720170497894287|XArbitraryZVertical|-0.1408479135831114|0.3166059329929718|-0.5925490574504911|-0.7271920583685239|-0.6273852586746216|0.1703621298074722|-0.7598450779914856|0|0|0|-1|-1|3
2021-03-10 21:16:04.041 +0000|291324.2515375|-0.6782379150390625|0.2555999755859375|-0.7513275146484375|291324.2315745|1.292028198061212|-0.6979326185951819|-0.1745896577986152|-0.4606818556785583|-0.2559795379638672|-0.4354935586452484|-0.06209588050842285|0.08304037153720856|0.05608445405960083|XArbitraryZVertical|-0.1396393380276053|0.3213072761766795|-0.5873726838154139|-0.7295586940672166|-0.6328657269477844|0.1737040430307388|-0.7545250058174133|0|0|0|-1|-1|3
2021-03-10 21:16:04.053 +0000|291324.2715005|-0.6720428466796875|0.2276763916015625|-0.77056884765625|291324.2515375|1.280147791690326|-0.7051012309209548|-0.1742366248213509|-0.2792209088802338|-0.2610253095626831|-0.4806833267211914|-0.04366308450698853|0.08914059400558472|0.01118499040603638|XArbitraryZVertical|-0.1399526696275132|0.3246621323164377|-0.5824911366106253|-0.7319233650244319|-0.638297975063324|0.173356369137764|-0.7500154972076416|0|0|0|-1|-1|3
2021-03-10 21:16:04.072 +0000|291324.2914635|-0.6768341064453125|0.196380615234375|-0.783599853515625|291324.2715005|1.269491366555928|-0.712404883537654|-0.1712137980595605|-0.1962470710277557|-0.2878216803073883|-0.5092000365257263|-0.02791392803192139|0.06401178240776062|-0.0202033519744873|XArbitraryZVertical|-0.141496088481641|0.327284955970334|-0.5777240587483031|-0.7342332338241211|-0.6440984010696411|0.1703785210847855|-0.7457268238067627|0|0|0|-1|-1|3
2021-03-10 21:16:04.092 +0000|291324.3114265|-0.683990478515625|0.1788177490234375|-0.78564453125|291324.2914635|1.258978565701661|-0.720481039215468|-0.167546740086777|-0.2205281555652618|-0.3410078883171082|-0.5128113031387329|-0.02435797452926636|0.03178344666957855|-0.04287868738174438|XArbitraryZVertical|-0.1435040979599038|0.3300362621552364|-0.5728524596675755|-0.7364257374276886|-0.6505077481269836|0.1667639464139938|-0.7409653067588806|0|0|0|-1|-1|3
2021-03-10 21:16:04.112 +0000|291324.3313895|-0.68133544921875|0.1565399169921875|-0.7808990478515625|291324.3114265|1.247945663328236|-0.7298389400398271|-0.1656699785690531|-0.2867003083229065|-0.3765235841274261|-0.4796587228775024|-0.02751433849334717|0.0140267014503479|-0.04977357387542725|XArbitraryZVertical|-0.1450662941853796|0.3337919083776757|-0.567883950576209|-0.7382726744604274|-0.6576205492019653|0.1649131774902344|-0.735077440738678|0|0|0|-1|-1|3
2021-03-10 21:16:04.132 +0000|291324.3513525|-0.6822509765625|0.138763427734375|-0.77490234375|291324.3313895|1.236482216349223|-0.7399162030866893|-0.1663382758685696|-0.3810492157936096|-0.4057988524436951|-0.434473991394043|-0.0153777003288269|-0.004408940672874451|-0.05528336763381958|XArbitraryZVertical|-0.1457300712716924|0.3385216458212573|-0.5629977816926055|-0.7397292337537376|-0.6649201512336731|0.1655722856521606|-0.7283316850662231|0|0|0|-1|-1|3
2021-03-10 21:16:04.152 +0000|291324.3713155|-0.6912994384765625|0.1549835205078125|-0.7681732177734375|291324.3513525|1.224602076517542|-0.7501647743061061|-0.1684820160947568|-0.4774983823299408|-0.4260867834091187|-0.3761183023452759|-0.01101481914520264|-0.02574875950813293|-0.05415761470794678|XArbitraryZVertical|-0.1457450066752607|0.3437288563021094|-0.5581223472411909|-0.7410183861810067|-0.6721059083938599|0.1676860600709915|-0.7212177515029907|0|0|0|-1|-1|3
2021-03-10 21:16:04.172 +0000|291324.3912785|-0.696136474609375|0.193206787109375|-0.7687530517578125|291324.3713155|1.212122411242994|-0.760387288373782|-0.1721746073120656|-0.5693210959434509|-0.4385656714439392|-0.3315463960170746|-0.01218068599700928|-0.02111762762069702|-0.05477488040924072|XArbitraryZVertical|-0.1449872910287915|0.3493574976395803|-0.5532245081710894|-0.7422066130550038|-0.6790119409561157|0.1713252067565918|-0.713856041431427|0|0|0|-1|-1|3
2021-03-10 21:16:04.192 +0000|291324.4112415|-0.7136688232421875|0.237823486328125|-0.7666473388671875|291324.3912785|1.19928898814006|-0.7706343350348506|-0.1760251541036852|-0.5950930714607239|-0.4547210335731506|-0.3122135400772095|-0.005884945392608643|0.004142746329307556|-0.06292003393173218|XArbitraryZVertical|-0.1440479256973575|0.3550479595631429|-0.548219659597486|-0.7434018908904009|-0.6858264803886414|0.1751175373792648|-0.7063822746276855|0|0|0|-1|-1|3
2021-03-10 21:16:04.212 +0000|291324.4312035|-0.710845947265625|0.2397918701171875|-0.7574462890625|291324.4112415|1.186785572700892|-0.7806246847925544|-0.1792968337877898|-0.5658615231513977|-0.4142844378948212|-0.2954832911491394|-0.01828169822692871|0.05355015397071838|-0.06838655471801758|XArbitraryZVertical|-0.1432587481136506|0.3604643897012547|-0.5432851427097914|-0.7445694382726642|-0.6924422383308411|0.1783377230167389|-0.6990846991539001|0|0|0|-1|-1|3
2021-03-10 21:16:04.232 +0000|291324.4511665|-0.705108642578125|0.2454681396484375|-0.74267578125|291324.4312035|1.175000608234988|-0.7897266872395851|-0.1814821513854548|-0.5009004473686218|-0.3670729696750641|-0.2988851964473724|-0.01312607526779175|0.05945691466331482|-0.06863117218017578|XArbitraryZVertical|-0.1427262061705345|0.3652268199868338|-0.5385385746506623|-0.7457981483960086|-0.6984981298446655|0.1804875880479813|-0.6924772262573242|0|0|0|-1|-1|3
2021-03-10 21:16:04.252 +0000|291324.4711295|-0.7017364501953125|0.233551025390625|-0.7405853271484375|291324.4511665|1.164266427255569|-0.7978914278572981|-0.1820769648685331|-0.3954157531261444|-0.3363555669784546|-0.3201168179512024|-0.000721275806427002|0.06605876982212067|-0.06076043844223022|XArbitraryZVertical|-0.1427112022028857|0.3691822023394292|-0.5340313971057798|-0.7470933490742194|-0.704051673412323|0.1810725927352905|-0.686676025390625|0|0|0|-1|-1|3
2021-03-10 21:16:04.272 +0000|291324.4910925|-0.7075347900390625|0.241851806640625|-0.7429046630859375|291324.4711295|1.154615052524826|-0.8050645240080392|-0.1812624760391505|-0.3197903335094452|-0.3150755763053894|-0.3425343036651611|0.00723719596862793|0.05353894829750061|-0.05937868356704712|XArbitraryZVertical|-0.1431500163791133|0.3723613628560614|-0.5297965142248988|-0.7484455819666435|-0.7090651988983154|0.1802715063095093|-0.6817101836204529|0|0|0|-1|-1|3
2021-03-10 21:16:04.292 +0000|291324.5110555|-0.721038818359375|0.23309326171875|-0.739166259765625|291324.4910925|1.145745086870059|-0.8117875514533337|-0.1807398591184856|-0.2439591288566589|-0.3008796870708466|-0.3603447377681732|0.008332490921020508|0.05943939089775085|-0.06659877300262451|XArbitraryZVertical|-0.1434721039081281|0.3753924701354309|-0.5259187634786422|-0.7496037608687874|-0.713700532913208|0.1797574311494827|-0.6769924759864807|0|0|0|-1|-1|3
2021-03-10 21:16:04.312 +0000|291324.5310185|-0.729827880859375|0.2166748046875|-0.734344482421875|291324.5110555|1.137786758411102|-0.8182006183221979|-0.1796298774077938|-0.1675650328397751|-0.2667647302150726|-0.3626379072666168|0.001497805118560791|0.05541971325874329|-0.06981778144836426|XArbitraryZVertical|-0.1440912329199034|0.3781123212157098|-0.5223133047669024|-0.7506382219008055|-0.7181726694107056|0.1786654144525528|-0.6725375652313232|0|0|0|-1|-1|3
2021-03-10 21:16:04.332 +0000|291324.5509815|-0.753631591796875|0.2118988037109375|-0.7212371826171875|291324.5310185|1.130784542293941|-0.8237634672971252|-0.1778475118933555|-0.1151466965675354|-0.2369250953197479|-0.3649736940860748|-0.006090521812438965|0.04330345988273621|-0.0653834342956543|XArbitraryZVertical|-0.1449153556678927|0.3802970571102596|-0.5190219516489007|-0.7516580699745362|-0.7221351861953735|0.1769114434719086|-0.6687473654747009|0|0|0|-1|-1|3
2021-03-10 21:16:04.351 +0000|291324.5709445|-0.7480621337890625|0.202728271484375|-0.7130584716796875|291324.5509815|1.124278296264356|-0.8285032607163594|-0.1754778613788185|-0.1106189861893654|-0.1839738488197327|-0.3612976372241974|-0.02001702785491943|0.04186728596687317|-0.05910223722457886|XArbitraryZVertical|-0.1458377810224065|0.3820104913368376|-0.5158810732611216|-0.7527723012446884|-0.7256037592887878|0.1745786815881729|-0.6655986309051514|0|0|0|-1|-1|3
2021-03-10 21:16:04.372 +0000|291324.5909075|-0.753204345703125|0.1845245361328125|-0.6997528076171875|291324.5709445|1.117792129968035|-0.8321572014527479|-0.1732734084231621|-0.1217605173587799|-0.1475762575864792|-0.3601755201816559|-0.02034354209899902|0.0289779007434845|-0.05432885885238647|XArbitraryZVertical|-0.1464080092150032|0.3833594748220562|-0.512842302546873|-0.7540511422609206|-0.7283137440681458|0.1724076569080353|-0.6632004380226135|0|0|0|-1|-1|3
2021-03-10 21:16:04.391 +0000|291324.6108705|-0.751617431640625|0.168365478515625|-0.691558837890625|291324.5909075|1.111074657977391|-0.8350391351927677|-0.1714107593059754|-0.146274209022522|-0.09828366339206696|-0.3495842516422272|-0.02594989538192749|0.01927727460861206|-0.03901952505111694|XArbitraryZVertical|-0.1465925306869367|0.3845179928991642|-0.5098160932950163|-0.7554761409547734|-0.7304587960243225|0.1705726087093353|-0.6613130569458008|0|0|0|-1|-1|3
2021-03-10 21:16:04.411 +0000|291324.6308335|-0.74908447265625|0.166015625|-0.6857452392578125|291324.6108705|1.103961741290583|-0.8372885134565958|-0.169934235911858|-0.2036551833152771|-0.06526105105876923|-0.330957293510437|-0.01538205146789551|0.003596752882003784|-0.0351862907409668|XArbitraryZVertical|-0.1463800057333767|0.3855577494052299|-0.5067379301555667|-0.7570567375303874|-0.732130765914917|0.1691175252199173|-0.6598362326622009|0|0|0|-1|-1|3
2021-03-10 21:16:04.431 +0000|291324.6507955|-0.7366790771484375|0.162841796875|-0.68017578125|291324.6507955|1.088325552955087|-0.8400270719906769|-0.1692111854560808|-0.2941362857818604|0.0008054263889789581|-0.2823260426521301|-0.003797650337219238|-0.006554841995239258|-0.02299797534942627|XArbitraryZVertical|-0.1443347458502184|0.3875724292050959|-0.5004957999922921|-0.7605649347024462|-0.7340258955955505|0.1684048473834991|-0.657910168170929|0|0|0|-1|-1|3
2021-03-10 21:16:04.452 +0000|291324.6707585|-0.729034423828125|0.165374755859375|-0.6736602783203125||||||||||||||||||||||||3
2021-03-10 21:16:04.471 +0000|291324.6907215|-0.7196044921875|0.1707916259765625|-0.66009521484375|291324.6707585|1.080031579707397|-0.8410578616517101|-0.1697837353084034|-0.3126506805419922|0.01518239546567202|-0.2555640935897827|0.004010319709777832|-0.004647254943847656|-0.01614415645599365|XArbitraryZVertical|-0.1427541288385925|0.3886860514163774|-0.497352331763714|-0.7623549379485789|-0.7346316576004028|0.1689691990613937|-0.6570888161659241|0|0|0|-1|-1|3
2021-03-10 21:16:04.491 +0000|291324.7106845|-0.71282958984375|0.172332763671875|-0.6509552001953125|291324.6907215|1.072141533032235|-0.841569103407601|-0.1700835153026964|-0.2952045798301697|0.02617560513317585|-0.2324531823396683|0.01324999332427979|0.001740634441375732|-0.004758596420288086|XArbitraryZVertical|-0.1412261370690482|0.389506710509126|-0.494351359237852|-0.7641704578818082|-0.7349296808242798|0.1692646592855453|-0.6566793918609619|0|0|0|-1|-1|3
2021-03-10 21:16:04.527 +0000|291324.7306475|-0.7210235595703125|0.169769287109375|-0.656890869140625|291324.7106845|1.065090135474445|-0.8421191879441997|-0.1702279588017634|-0.2468182593584061|0.01604552567005157|-0.2029228210449219|0.02110022306442261|0.003200441598892212|-0.0004794597625732422|XArbitraryZVertical|-0.1399293173668712|0.3902440271674952|-0.4916380605144109|-0.7657816815266874|-0.7352725863456726|0.1694070100784302|-0.656258761882782|0|0|0|-1|-1|3
2021-03-10 21:16:04.540 +0000|291324.7506105|-0.7256622314453125|0.16595458984375|-0.65484619140625|291324.7306475|1.058989874119792|-0.8426365667257507|-0.1699370265136279|-0.2102518528699875|0.01145881693810225|-0.195105716586113|0.0191265344619751|0.003029406070709229|0.001125872135162354|XArbitraryZVertical|-0.1389816966585225|0.3908050562081269|-0.4892186878055726|-0.7672160999485067|-0.7356487512588501|0.1691202819347382|-0.6559109687805176|0|0|0|-1|-1|3
2021-03-10 21:16:04.551 +0000|291324.7705735|-0.725189208984375|0.165374755859375|-0.65374755859375|291324.7506105|1.053537727918536|-0.8429715045266577|-0.1694931713284609|-0.1841645240783691|0.02006551250815392|-0.1807432174682617|0.009209275245666504|1.838803291320801e-05|-0.0002151131629943848|XArbitraryZVertical|-0.1381756955663439|0.3912163936436843|-0.4870327102851396|-0.7685416577680636|-0.7359243631362915|0.168682798743248|-0.6557143926620483|0|0|0|-1|-1|3
2021-03-10 21:16:04.571 +0000|291324.7905365|-0.731719970703125|0.1592864990234375|-0.6479034423828125|291324.7705735|1.04856716382078|-0.8432509899956586|-0.1690855819684922|-0.1593228727579117|0.009660757146775723|-0.1736223697662354|0.01258713006973267|-0.004020139575004578|0.0005709528923034668|XArbitraryZVertical|-0.1374346879743032|0.391579502398631|-0.4850379114297885|-0.7697502324358065|-0.7361589074134827|0.1682810485363007|-0.6555544137954712|0|0|0|-1|-1|3
2021-03-10 21:16:04.592 +0000|291324.8104995|-0.7357635498046875|0.158599853515625|-0.6432952880859375|291324.7905365|1.04409893525763|-0.8435327209472063|-0.1686475755527411|-0.135694220662117|0.007727675139904022|-0.1653115153312683|0.005700945854187012|-0.007311522960662842|0.003830432891845703|XArbitraryZVertical|-0.1368039039836228|0.3919014075958783|-0.4832287058597271|-0.7708360217610498|-0.7363985776901245|0.1678492724895477|-0.6553959846496582|0|0|0|-1|-1|3
2021-03-10 21:16:04.611 +0000|291324.8304627917|-0.7421417236328125|0.1507720947265625|-0.638427734375|291324.8104995|1.040168817736171|-0.843923742917299|-0.1681303372064598|-0.1025683507323265|7.0926733314991e-05|-0.151515007019043|0.00315326452255249|-0.007717117667198181|0.01049703359603882|XArbitraryZVertical|-0.136336158390141|0.3922112624763356|-0.4816047064186191|-0.7717770511176435|-0.73671954870224|0.1673393398523331|-0.6551655530929565|0|0|0|-1|-1|3
2021-03-10 21:16:04.631 +0000|291324.8504257917|-0.7387847900390625|0.1488800048828125|-0.6366119384765625|291324.8304627917|1.036800459849103|-0.8442414469373035|-0.1672032262846422|-0.09095977991819382|0.006210418418049812|-0.1392584443092346|-0.003908276557922363|-0.0127386748790741|0.01654553413391113|XArbitraryZVertical|-0.1361256064177914|0.392368066753308|-0.4801358160452808|-0.7726492316684961|-0.7370433211326599|0.1664252281188965|-0.6550342440605164|0|0|0|-1|-1|3
2021-03-10 21:16:04.651 +0000|291324.8703877917|-0.7413177490234375|0.1485137939453125|-0.6320343017578125|291324.8504257917|1.033749489691779|-0.8445466463983338|-0.1663284936837139|-0.08998066931962967|-0.001516157761216164|-0.1196757704019547|-0.001539826393127441|-0.01752179861068726|0.01757663488388062|XArbitraryZVertical|-0.1359529876300678|0.3925097979240837|-0.4787970343189688|-0.7734380164233801|-0.7373517751693726|0.165562629699707|-0.6549056768417358|0|0|0|-1|-1|3
2021-03-10 21:16:04.671 +0000|291324.8903507917|-0.73712158203125|0.1473846435546875|-0.6308135986328125|291324.8703877917|1.030946934682382|-0.8449031995748238|-0.1657800107143821|-0.08278769254684448|0.002191868610680103|-0.1012839749455452|-0.006899595260620117|-0.0164315402507782|0.02324843406677246|XArbitraryZVertical|-0.1357095103810897|0.3927231662483337|-0.47760136189062|-0.7741113340945127|-0.7376530170440674|0.1650217026472092|-0.65470290184021|0|0|0|-1|-1|3
2021-03-10 21:16:04.691 +0000|291324.9103137917|-0.732696533203125|0.141632080078125|-0.6305694580078125|291324.8903507917|1.028411328890241|-0.8455118841721492|-0.1652885718231242|-0.0784965381026268|-0.01830248907208443|-0.08922997862100601|0.003126621246337891|-0.01928853988647461|0.02241057157516479|XArbitraryZVertical|-0.1355550790121606|0.3930280771487126|-0.4765000159997487|-0.7746622071971085|-0.7381119728088379|0.1645369827747345|-0.65430748462677|0|0|0|-1|-1|3
2021-03-10 21:16:04.711 +0000|291324.9302767917|-0.734954833984375|0.14715576171875|-0.6352081298828125|291324.9103137917|1.026166332704657|-0.8465076195425967|-0.1649442282567171|-0.0717591792345047|-0.0316215418279171|-0.07105550169944763|0.002706229686737061|-0.02062731981277466|0.0235285758972168|XArbitraryZVertical|-0.1354897829270338|0.3934941794311335|-0.475507790816726|-0.7750465567223198|-0.7388055324554443|0.1641973108053207|-0.6536096930503845|0|0|0|-1|-1|3
2021-03-10 21:16:04.731 +0000|291324.9502397917|-0.7403411865234375|0.143035888671875|-0.6430816650390625|291324.9302767917|1.024168442207872|-0.8478389481340983|-0.1644811600962114|-0.06987996399402618|-0.05527951940894127|-0.06405973434448242|0.007447421550750732|-0.01716457307338715|0.0173150897026062|XArbitraryZVertical|-0.1355998180346522|0.3940492562762161|-0.4745690619248994|-0.7753205688364693|-0.7397319674491882|0.1637405157089233|-0.6526757478713989|0|0|0|-1|-1|3
2021-03-10 21:16:04.751 +0000|291324.9702027917|-0.7549591064453125|0.151611328125|-0.6521148681640625|291324.9502397917|1.02239936266493|-0.8495667361995523|-0.1641193699815892|-0.05882658064365387|-0.06545098125934601|-0.05106830224394798|0.001874029636383057|-0.02011880278587341|0.009666383266448975|XArbitraryZVertical|-0.1358067807706628|0.3947640222467622|-0.4737078628724721|-0.7754474542469795|-0.7409030199050903|0.1633836030960083|-0.6514357924461365|0|0|0|-1|-1|3
2021-03-10 21:16:04.771 +0000|291324.9901657917|-0.763458251953125|0.1507415771484375|-0.65521240234375|291324.9702027917|1.020965244767853|-0.8511241773334114|-0.1638339397497949|-0.05516190454363823|-0.05004715546965599|-0.03445515036582947|-0.01000142097473145|-0.01391676068305969|4.327297210693359e-05|XArbitraryZVertical|-0.1360074445308239|0.395406204378382|-0.4729999773387095|-0.7755173100949652|-0.7419517636299133|0.163102000951767|-0.6503118276596069|0|0|0|-1|-1|3
2021-03-10 21:16:04.791 +0000|291325.0101287917|-0.78045654296875|0.15606689453125|-0.6507568359375|291324.9901657917|1.019862704377569|-0.8521195706484636|-0.163662760439925|-0.03844559192657471|-0.02385373972356319|-0.01934099942445755|-0.01661193370819092|-0.01524323225021362|-0.006017804145812988|XArbitraryZVertical|-0.1360938488249974|0.3958317879564647|-0.4724770917506523|-0.7756037430701521|-0.7426196932792664|0.1629331111907959|-0.649591326713562|0|0|0|-1|-1|3
2021-03-10 21:16:04.811 +0000|291325.0300917917|-0.7622833251953125|0.1507110595703125|-0.6550140380859375|291325.0101287917|1.019280205583291|-0.8520650798266372|-0.1635753040134423|-0.02372676879167557|0.0418655090034008|0.00558228325098753|-0.03609156608581543|-0.006291598081588745|-0.001787066459655762|XArbitraryZVertical|-0.1360010844088623|0.3958322108208235|-0.4722407581351605|-0.7757636238128057|-0.7425949573516846|0.1628468185663223|-0.6496411561965942|0|0|0|-1|-1|3
2021-03-10 21:16:04.831 +0000|291325.0500547917|-0.7628936767578125|0.1407928466796875|-0.6520843505859375|291325.0300917917|1.018992879582292|-0.8508648613013708|-0.1638501495883528|-0.04518653824925423|0.07284015417098999|0.02029456198215485|-0.02614802122116089|-0.01094204187393188|-0.002588987350463867|XArbitraryZVertical|-0.1355496679632153|0.3954428806279495|-0.4722551480144782|-0.7760324547480983|-0.7417810559272766|0.163117989897728|-0.6505024433135986|0|0|0|-1|-1|3
2021-03-10 21:16:04.850 +0000|291325.0700177917|-0.74664306640625|0.12774658203125|-0.64471435546875|291325.0500547917|1.018122793638438|-0.8493552421312036|-0.1648719732703688|-0.1148802936077118|0.09905465692281723|0.03005451522767544|-0.02129024267196655|-0.01994569599628448|-0.002236425876617432|XArbitraryZVertical|-0.1346078343409722|0.3951268163695445|-0.4721841223151624|-0.7764004869255523|-0.7406726479530334|0.1641260385513306|-0.6515110731124878|0|0|0|-1|-1|3
2021-03-10 21:16:04.871 +0000|291325.0899797917|-0.7423095703125|0.1224365234375|-0.640411376953125|291325.0700177917|1.016227849255853|-0.8473553206182509|-0.1669960713779929|-0.1875913590192795|0.1291317641735077|0.03755752742290497|-0.011688232421875|-0.03374409675598145|0.00627446174621582|XArbitraryZVertical|-0.1329013841542332|0.3949149639119541|-0.4719234037001655|-0.7769605459100146|-0.739105224609375|0.1662209630012512|-0.652758777141571|0|0|0|-1|-1|3
2021-03-10 21:16:04.890 +0000|291325.1099427917|-0.7316741943359375|0.11590576171875|-0.6371612548828125|291325.0899797917|1.013409566810538|-0.8452316437482131|-0.1701086053646062|-0.2520377337932587|0.1693832576274872|0.05184236541390419|-0.006188333034515381|-0.04351115226745605|0.01486611366271973|XArbitraryZVertical|-0.1305820456445822|0.3949152883287446|-0.4714664763207487|-0.7776308373889179|-0.7373267412185669|0.1692893952131271|-0.6539804935455322|0|0|0|-1|-1|3
2021-03-10 21:16:04.910 +0000|291325.1299057917|-0.735382080078125|0.125823974609375|-0.6309051513671875|291325.1099427917|1.009621357565559|-0.8424545777987439|-0.1742389604099772|-0.341392308473587|0.1988941729068756|0.05652624741196632|0.003091812133789062|-0.05668991804122925|0.01625710725784302|XArbitraryZVertical|-0.1275024768701642|0.3949250998643722|-0.4708305120819585|-0.7785217492052336|-0.7349796891212463|0.1733586639165878|-0.6555545926094055|0|0|0|-1|-1|3
2021-03-10 21:16:04.930 +0000|291325.1498687917|-0.7289276123046875|0.1356048583984375|-0.631011962890625|291325.1299057917|1.004625503224626|-0.8391565984570165|-0.1794036289027048|-0.4076782166957855|0.2315528839826584|0.05851332098245621|-0.0002689957618713379|-0.05718114972114563|0.0246623158454895|XArbitraryZVertical|-0.1236386018064815|0.3950057164844933|-0.4699105301907682|-0.7796589528879732|-0.7321376204490662|0.1784428060054779|-0.6573679447174072|0|0|0|-1|-1|3
2021-03-10 21:16:04.950 +0000|291325.1698317917|-0.7214508056640625|0.1256103515625|-0.6265869140625|291325.1498687917|0.9991067919519073|-0.8351338035177609|-0.1849132909574304|-0.4370571672916412|0.2704261839389801|0.06354483217000961|-0.002865850925445557|-0.05001120269298553|0.0306098461151123|XArbitraryZVertical|-0.1193571645835883|0.3948858476952754|-0.4688698213050311|-0.7810122289873949|-0.7287473082542419|0.1838613003492355|-0.6596380472183228|0|0|0|-1|-1|3
2021-03-10 21:16:04.970 +0000|291325.1897947917|-0.71881103515625|0.1174774169921875|-0.6189422607421875|291325.1698317917|0.9930331315707353|-0.8306014874573348|-0.1907334295784499|-0.4915269911289215|0.2920286357402802|0.06349609792232513|0.002520382404327393|-0.06154255568981171|0.03500407934188843|XArbitraryZVertical|-0.1147166577165576|0.3946383877382488|-0.4676712677975945|-0.7825498002442051|-0.7249477505683899|0.1895790696144104|-0.6622012853622437|0|0|0|-1|-1|3
2021-03-10 21:16:04.990 +0000|291325.2097577917|-0.7227783203125|0.1161956787109375|-0.6187286376953125|291325.1897947917|0.9860019475977063|-0.8256682397822614|-0.1970688618788911|-0.5605153441429138|0.3259472846984863|0.05119583755731583|-0.0007064342498779297|-0.07110092043876648|0.04285621643066406|XArbitraryZVertical|-0.1095791508775733|0.3943621555133316|-0.466176753716079|-0.7843151117430687|-0.7207748889923096|0.1957957744598389|-0.6649417877197266|0|0|0|-1|-1|3
2021-03-10 21:16:05.010 +0000|291325.2297207917|-0.718963623046875|0.1088714599609375|-0.605987548828125|291325.2097577917|0.9774480069118632|-0.8207014141494847|-0.2042398379526907|-0.6664043068885803|0.3488239049911499|0.03143696114420891|-0.001721978187561035|-0.08281242847442627|0.04458391666412354|XArbitraryZVertical|-0.1037861966747113|0.3942826676075619|-0.4641864767840906|-0.7863208872581628|-0.716417670249939|0.2028228491544724|-0.6675391793251038|0|0|0|-1|-1|3
2021-03-10 21:16:05.040 +0000|291325.2496837917|-0.72406005859375|0.1163482666015625|-0.5890960693359375|291325.2297207917|0.9669948807073311|-0.8156631844805057|-0.2125709826282269|-0.7621724605560303|0.3878972232341766|0.004929453134536743|-0.008714556694030762|-0.1026057600975037|0.05942416191101074|XArbitraryZVertical|-0.09711761327227383|0.3944474185682893|-0.4615951198513873|-0.7886123491096881|-0.7117902636528015|0.210973709821701|-0.6699588298797607|0|0|0|-1|-1|3
2021-03-10 21:16:05.050 +0000|291325.2696467917|-0.6943206787109375|0.1248779296875|-0.5949249267578125|291325.2496837917|0.9550710956030446|-0.8098577244508049|-0.2219512840866628|-0.8583884835243225|0.4532637298107147|0.008751178160309792|-0.0193445086479187|-0.114451065659523|0.08557301759719849|XArbitraryZVertical|-0.08953957322440358|0.3945123357603712|-0.4585750165907835|-0.7912341836723784|-0.7064245343208313|0.2201334536075592|-0.6726853847503662|0|0|0|-1|-1|3
2021-03-10 21:16:05.071 +0000|291325.2896097917|-0.69989013671875|0.117279052734375|-0.575836181640625|291325.2696467917|0.941624572946461|-0.8039327546059286|-0.2322897456699505|-0.9651634097099304|0.4356187283992767|-0.01436923164874315|0.001806080341339111|-0.1023681908845901|0.08318758010864258|XArbitraryZVertical|-0.08122578177859265|0.3946903670893206|-0.4550466056342078|-0.7940745441460023|-0.7007501721382141|0.2302063703536987|-0.6752437949180603|0|0|0|-1|-1|3
2021-03-10 21:16:05.090 +0000|291325.3095727917|-0.6837310791015625|0.1279296875|-0.576202392578125|291325.2896097917|0.9255418109663786|-0.7989354336152571|-0.24411503107349|-1.17269241809845|0.4550597965717316|-0.03725430741906166|-0.006979227066040039|-0.1210311353206635|0.09782695770263672|XArbitraryZVertical|-0.07196638432142768|0.395506331520201|-0.4505942901697507|-0.7970950740930788|-0.6953675746917725|0.241697683930397|-0.6767911911010742|0|0|0|-1|-1|3
2021-03-10 21:16:05.110 +0000|291325.3295347917|-0.6546478271484375|0.1374664306640625|-0.563140869140625|291325.3095727917|0.9062085153793862|-0.7946373283123433|-0.2582329800181697|-1.35812509059906|0.4624258875846863|-0.04415953159332275|0.00109022855758667|-0.1389631927013397|0.09798514842987061|XArbitraryZVertical|-0.06123203519126284|0.3969796924417439|-0.4450931211940296|-0.8003436386084788|-0.6899482607841492|0.2553725242614746|-0.6773155331611633|0|0|0|-1|-1|3
2021-03-10 21:16:05.130 +0000|291325.3494977917|-0.609222412109375|0.0829620361328125|-0.5246429443359375|291325.3295347917|0.8843616951317649|-0.7909590690125152|-0.2775784531024865|-1.521251440048218|0.4822295606136322|-0.05360798165202141|0.02168643474578857|-0.122751921415329|0.1109555959701538|XArbitraryZVertical|-0.04788128920124737|0.3994789542447283|-0.4392558848839861|-0.8032298690914427|-0.6838111281394958|0.2740275859832764|-0.6762478947639465|0|0|0|-1|-1|3
2021-03-10 21:16:05.150 +0000|291325.3694607917|-0.57049560546875|0.042205810546875|-0.4912109375|291325.3494977917|0.8588063598083938|-0.7885593319124917|-0.3003691947626991|-1.883596539497375|0.4852486550807953|-0.04302830621600151|0.05340349674224854|-0.1992847323417664|0.1374968290328979|XArbitraryZVertical|-0.03252982451997891|0.4028489022342038|-0.4323157847675067|-0.8060754654653506|-0.6775795221328735|0.2958728969097137|-0.6733091473579407|0|0|0|-1|-1|3
2021-03-10 21:16:05.170 +0000|291325.3894237917|-0.549835205078125|0.0760040283203125|-0.434600830078125|291325.3694607917|0.8265247705226105|-0.7893371804161715|-0.3298644637514995|-2.395063638687134|0.4354546070098877|-0.02539072372019291|0.09219193458557129|-0.2842418849468231|0.162910521030426|XArbitraryZVertical|-0.01351603035159915|0.4082223281158134|-0.4235100836263562|-0.8085858672850867|-0.6716139316558838|0.3239147961139679|-0.6663436889648438|0|0|0|-1|-1|3
2021-03-10 21:16:05.190 +0000|291325.4093867917|-0.520751953125|0.095916748046875|-0.394256591796875|291325.3894237917|0.7858532047643766|-0.7950509540972174|-0.3674537154515335|-2.984042167663574|0.3846978545188904|0.01817246526479721|0.1090378165245056|-0.2912012934684753|0.20556640625|XArbitraryZVertical|0.009873825158975461|0.4161139478081464|-0.4124326780707268|-0.810340041789448|-0.6662430167198181|0.3592402935028076|-0.6535033583641052|0|0|0|-1|-1|3
2021-03-10 21:16:05.210 +0000|291325.4293497917|-0.53045654296875|0.181182861328125|-0.3431396484375|291325.4093867917|0.7357113422305127|-0.8074169396445674|-0.4138038926773505|-3.583151578903198|0.2749579250812531|0.07802692800760269|0.1368647217750549|-0.3190414309501648|0.227206826210022|XArbitraryZVertical|0.03802108733036276|0.4266699947714567|-0.3989530033024547|-0.8107673604425671|-0.6615229845046997|0.4020950794219971|-0.6330142021179199|0|0|0|-1|-1|3
2021-03-10 21:16:05.230 +0000|291325.4493127917|-0.5639190673828125|0.2641143798828125|-0.3109283447265625|291325.4293497917|0.6735666326242731|-0.8296002165804179|-0.4691507003781409|-4.377515316009521|0.1873429715633392|0.1376140862703323|0.1352998018264771|-0.2884936332702637|0.2517259120941162|XArbitraryZVertical|0.07124161566338169|0.4402436656228697|-0.3825555135585593|-0.8091733270246133|-0.6579591035842896|0.4521289169788361|-0.6022202968597412|0|0|0|-1|-1|3
2021-03-10 21:16:05.250 +0000|291325.4692757917|-0.5963592529296875|0.3785552978515625|-0.2784881591796875|291325.4493127917|0.5942467923136238|-0.8645735342811073|-0.5353107914422069|-5.274181365966797|0.14760622382164|0.2290804386138916|0.09977656602859497|-0.2907480001449585|0.2313531637191772|XArbitraryZVertical|0.1113314555821413|0.4566341597175245|-0.362318054437938|-0.8048703635223804|-0.6543878316879272|0.5101083517074585|-0.55818110704422|0|0|0|-1|-1|3
2021-03-10 21:16:05.270 +0000|291325.4892387917|-0.6593780517578125|0.57733154296875|-0.17938232421875|291325.4692757917|0.4905004921368432|-0.9181665628132916|-0.6115825874001949|-6.226824283599854|0.1152224913239479|0.2156791538000107|0.05384677648544312|-0.2402252554893494|0.2099562883377075|XArbitraryZVertical|0.1592019861664666|0.4754505869379092|-0.3369724092864656|-0.796901010293295|-0.6504807472229004|0.5741639137268066|-0.4972029328346252|0|0|0|-1|-1|3
2021-03-10 21:16:05.290 +0000|291325.5092017917|-0.615753173828125|0.8031463623046875|-0.1420440673828125|291325.4892387917|0.3592744102203199|-0.9974081174931758|-0.6933467275982023|-6.918236255645752|0.1173174008727074|0.2764144837856293|0.02148717641830444|-0.1401675939559937|0.1968003213405609|XArbitraryZVertical|0.213213482675138|0.4959089219474369|-0.3074692696692812|-0.7836306846915373|-0.6461057066917419|0.6391147375106812|-0.4172286987304688|0|0|0|-1|-1|3
2021-03-10 21:16:05.310 +0000|291325.5291647917|-0.737945556640625|1.042251586914062|-0.1055145263671875|291325.5092017917|0.1998298606844859|-1.101267346450323|-0.7658750920111678|-6.927177906036377|0.07489563524723053|0.2311779409646988|0.02992069721221924|0.0713125467300415|0.1804207265377045|XArbitraryZVertical|0.268420100818614|0.514671978803119|-0.2733756429599165|-0.7670260940964414|-0.6427746415138245|0.6931679844856262|-0.3261268138885498|0|0|0|-1|-1|3
2021-03-10 21:16:05.330 +0000|291325.5491267917|-0.7281341552734375|1.148544311523438|-0.0230865478515625|291325.5291647917|0.02497992343739307|-1.22409569668057|-0.8235526921491563|-6.551517009735107|0.1700102835893631|0.25333172082901|-0.07085591554641724|0.2688459157943726|0.129400447010994|XArbitraryZVertical|0.3209823269249108|0.5305696638349804|-0.2393045676305869|-0.747127496127983|-0.6391813158988953|0.7335649132728577|-0.230932354927063|0|0|0|-1|-1|3
2021-03-10 21:16:05.350 +0000|291325.5690897917|-0.69244384765625|1.099838256835938|0.0462188720703125|291325.5491267917|-0.1530407914542964|-1.350786747418302|-0.8637298929753098|-6.011579513549805|0.4253892600536346|0.3138729333877563|-0.1145414710044861|0.3742201924324036|0.09796154499053955|XArbitraryZVertical|0.3691239994408643|0.5411679471720664|-0.2067379065533874|-0.7267353943731425|-0.6339479684829712|0.7602708339691162|-0.1417694538831711|0|0|0|-1|-1|3
2021-03-10 21:16:05.370 +0000|291325.5890527917|-0.6575775146484375|1.007171630859375|0.1051025390625|291325.5690897917|-0.3281970767385149|-1.475931489808295|-0.8879871282863603|-5.515901565551758|0.5106877088546753|0.3355395793914795|-0.07610100507736206|0.3382256627082825|0.07925313711166382|XArbitraryZVertical|0.412779652183361|0.5474752616879902|-0.1759677255170853|-0.706342103189187|-0.6281378865242004|0.77580326795578|-0.05976759269833565|0|0|0|-1|-1|3
2021-03-10 21:16:05.389 +0000|291325.6090157917|-0.641998291015625|0.9982757568359375|0.1136932373046875|291325.5890527917|-0.4978534277702407|-1.597842124337036|-0.898756682247138|-5.214210033416748|0.5117380023002625|0.3874383866786957|-0.04588764905929565|0.2409603595733643|0.07213783264160156|XArbitraryZVertical|0.4526679214306898|0.5509172894646445|-0.1469280122021918|-0.6855611496058155|-0.6223557591438293|0.7825534343719482|0.01683621294796467|0|0|0|-1|-1|3
2021-03-10 21:16:05.410 +0000|291325.6289787917|-0.682037353515625|0.9253692626953125|0.195526123046875|291325.6090157917|-0.6658160003867569|-1.720184305901128|-0.8981705178450555|-5.286974430084229|0.4262454509735107|0.462660163640976|-0.01724362373352051|0.2128373384475708|0.02606058120727539|XArbitraryZVertical|0.4907886360381697|0.5527125082493738|-0.1189214913949102|-0.6629427982319234|-0.616102933883667|0.782188355922699|0.09272920340299606|0|0|0|-1|-1|3
2021-03-10 21:16:05.429 +0000|291325.6489417917|-0.5972900390625|0.9515838623046875|0.2384796142578125|291325.6289787917|-0.8377897118792167|-1.844494347294961|-0.8847155522214644|-5.550268650054932|0.498516708612442|0.5076100826263428|-0.08199584484100342|0.1758196353912354|-0.007812023162841797|XArbitraryZVertical|0.5291745049037939|0.5528030192602731|-0.08961827762118851|-0.6374573065028533|-0.6099292039871216|0.7737348079681396|0.171233668923378|0|0|0|-1|-1|3
2021-03-10 21:16:05.449 +0000|291325.6689047917|-0.5678558349609375|1.060104370117188|0.2670745849609375|291325.6489417917|-1.005578211978448|-1.966095956879392|-0.8574137295205628|-5.387178897857666|0.1191447898745537|0.3673155307769775|-0.00535428524017334|0.1728482246398926|0.001679778099060059|XArbitraryZVertical|0.5666915992409567|0.5521408086740309|-0.06011281629943682|-0.6085948454192966|-0.6039292216300964|0.7561526298522949|0.2519976794719696|0|0|0|-1|-1|3
2021-03-10 21:16:05.469 +0000|291325.6888677917|-0.5112457275390625|1.130401611328125|0.3383941650390625|291325.6689047917|-1.148855972421365|-2.075199677762496|-0.8196028031338762|-4.776963710784912|-0.3496059477329254|0.4068015217781067|0.01125568151473999|0.3344022631645203|-0.06980732083320618|XArbitraryZVertical|0.5991981024402466|0.5530691547961091|-0.03473728562705081|-0.5778143745035221|-0.5975135564804077|0.73087477684021|0.3298477232456207|0|0|0|-1|-1|3
2021-03-10 21:16:05.489 +0000|291325.7088307917|-0.5139007568359375|1.0826416015625|0.538330078125|291325.6888677917|-1.257122058478929|-2.164484984848796|-0.7828582593198347|-3.553811073303223|-0.7564725279808044|0.401881068944931|0.07528162002563477|0.4470504522323608|-0.09603753685951233|XArbitraryZVertical|0.6247637394049599|0.5549393072543451|-0.01739621071538652|-0.549008203737974|-0.5875954031944275|0.7053084969520569|0.3965747356414795|0|0|0|-1|-1|3
2021-03-10 21:16:05.509 +0000|291325.7287937917|-0.5416412353515625|0.9884033203125|0.61260986328125|291325.7088307917|-1.327037517070782|-2.231438107716961|-0.7562346346194633|-2.124598741531372|-1.097387313842773|0.3901964426040649|0.05050891637802124|0.3426212668418884|0.05569475889205933|XArbitraryZVertical|0.6419687807386822|0.5577263349730056|-0.00966199720851646|-0.5260456700306696|-0.5743736624717712|0.6861872673034668|0.4463651478290558|0|0|0|-1|-1|3
2021-03-10 21:16:05.539 +0000|291325.7487567917|-0.61053466796875|0.86822509765625|0.6277923583984375|291325.7487567917|-1.388587004210466|-2.324870860121649|-0.7329707032736571|-0.8053024411201477|-1.429623126983643|0.1186282262206078|-0.04236060380935669|0.1878226399421692|0.1139736771583557|XArbitraryZVertical|0.6575901790192034|0.5674279321318172|-0.01552775200441603|-0.4953378575001759|-0.5417152643203735|0.669080376625061|0.5087985992431641|0|0|0|-1|-1|3
2021-03-10 21:16:05.549 +0000|291325.7687187917|-0.6648406982421875|0.8479766845703125|0.6965179443359375||||||||||||||||||||||||3
2021-03-10 21:16:05.569 +0000|291325.7886817917|-0.603851318359375|0.807342529296875|0.7187042236328125|291325.7687187917|-1.401556199786671|-2.362038602380394|-0.723845156974808|-0.4950272142887115|-1.441914558410645|-0.09975852072238922|-0.1407908797264099|0.1976078152656555|0.1466375589370728|XArbitraryZVertical|0.6606439660667605|0.574454680235549|-0.02118871807601544|-0.4828067140182793|-0.526704728603363|0.6622706055641174|0.5328972339630127|0|0|0|-1|-1|3
2021-03-10 21:16:05.590 +0000|291325.8086447917|-0.5167694091796875|0.7085113525390625|0.652740478515625|291325.7886817917|-1.404598398750801|-2.393531123689726|-0.7173703378863741|-0.184717133641243|-1.513007164001465|-0.1514012962579727|-0.1105679273605347|0.1738019585609436|0.1666905283927917|XArbitraryZVertical|0.6609542753792645|0.5825068731030081|-0.02844554666420265|-0.4722459402393845|-0.5125706195831299|0.6574053764343262|0.5523496270179749|0|0|0|-1|-1|3
2021-03-10 21:16:05.609 +0000|291325.828607875|-0.4636688232421875|0.61529541015625|0.5637359619140625|291325.8086447917|-1.403868271985637|-2.42407620882538|-0.7138794302407947|-0.05352064967155457|-1.60716700553894|-0.1068793684244156|-0.04629033803939819|0.07667446136474609|0.1052112579345703|XArbitraryZVertical|0.660158731356864|0.5906997694088759|-0.03739793627874377|-0.4624561767695147|-0.4969683587551117|0.6547708511352539|0.569471538066864|0|0|0|-1|-1|3
2021-03-10 21:16:05.629 +0000|291325.848570875|-0.4104461669921875|0.5673370361328125|0.55352783203125|291325.828607875|-1.403792462955146|-2.457407584245065|-0.7125882793723921|-0.08357077836990356|-1.721966624259949|0.02457798831164837|0.008277863264083862|-0.01953226327896118|-0.006186425685882568|XArbitraryZVertical|0.6594032544479466|0.5986427533357908|-0.04792735811303747|-0.4522359440809454|-0.4782486259937286|0.6537944674491882|0.5863716006278992|0|0|0|-1|-1|3
2021-03-10 21:16:05.649 +0000|291325.868533875|-0.3499908447265625|0.5747833251953125|0.5856170654296875|291325.848570875|-1.407345566817457|-2.494562068448237|-0.7120505452816446|-0.0776943638920784|-1.76880407333374|0.1554283201694489|0.0303388237953186|-0.06453543901443481|-0.05925804376602173|XArbitraryZVertical|0.6594728204233259|0.6058891789629134|-0.05918322719222416|-0.4410117316641409|-0.4563490152359009|0.6533874273300171|0.6040121912956238|0|0|0|-1|-1|3
2021-03-10 21:16:05.669 +0000|291325.888496875|-0.3300323486328125|0.5550079345703125|0.558319091796875|291325.868533875|-1.412202573933236|-2.534265005343823|-0.7146696990653548|0.06737735867500305|-1.882981419563293|0.2718616425991058|0.07761245965957642|-0.09799486398696899|-0.03427428007125854|XArbitraryZVertical|0.6596545927890943|0.6123536898316569|-0.07220015076089982|-0.4297278618860758|-0.4310365617275238|0.6553679704666138|0.6202424168586731|0|0|0|-1|-1|3
2021-03-10 21:16:05.689 +0000|291325.908459875|-0.33087158203125|0.544952392578125|0.5759124755859375|291325.888496875|-1.418023571682259|-2.576474811947077|-0.7192218360960592|0.02329342253506184|-1.936613082885742|0.3517979383468628|0.06686437129974365|-0.1093913912773132|-0.08246535062789917|XArbitraryZVertical|0.6597412310115928|0.6183993165074045|-0.08659034356872509|-0.4181219846633845|-0.4028782546520233|0.6587994694709778|0.6353524327278137|0|0|0|-1|-1|3
2021-03-10 21:16:05.709 +0000|291325.928422875|-0.30963134765625|0.493408203125|0.594085693359375|291325.908459875|-1.427176038525916|-2.620804391019648|-0.7213306709547808|-0.2436439543962479|-1.870186328887939|0.3550313413143158|0.04024532437324524|-0.09669435024261475|-0.1018755435943604|XArbitraryZVertical|0.6604818887418714|0.6240602991882435|-0.100123117609024|-0.4053243378866908|-0.3736346364021301|0.660384476184845|0.6513751745223999|0|0|0|-1|-1|3
2021-03-10 21:16:05.729 +0000|291325.948385875|-0.405487060546875|0.5384979248046875|0.5923309326171875|291325.928422875|-1.437656775220875|-2.661789019205548|-0.7194293506780426|-0.4472295045852661|-1.634057641029358|0.2747254073619843|0.02271756529808044|-0.1493424773216248|-0.07443052530288696|XArbitraryZVertical|0.661650924833725|0.6291605483059994|-0.1108750119982265|-0.3925326490324306|-0.3472110033035278|0.6589555740356445|0.667249858379364|0|0|0|-1|-1|3
2021-03-10 21:16:05.749 +0000|291325.968348875|-0.365234375|0.71624755859375|0.7492523193359375|291325.948385875|-1.448128162486764|-2.696300250637531|-0.7102510947082802|-0.5280977487564087|-1.145480751991272|0.05839259177446365|-0.1040152609348297|-0.05270475149154663|-0.09866052865982056|XArbitraryZVertical|0.6632854916526288|0.6341794069625388|-0.1168995505926928|-0.3797411537916394|-0.3265724778175354|0.6520241498947144|0.6842623353004456|0|0|0|-1|-1|3
2021-03-10 21:16:05.769 +0000|291325.988311875|-0.4480133056640625|0.6334686279296875|0.831024169921875|291325.968348875|-1.452864159217881|-2.720771228092325|-0.7035372161760706|-0.1433255970478058|-0.9795551300048828|-0.02146859839558601|-0.02260848879814148|-0.003089547157287598|0.02435439825057983|XArbitraryZVertical|0.663579341040209|0.6384956882228827|-0.1216614351014427|-0.370384089506963|-0.3115132451057434|0.6469190716743469|0.6960285902023315|0|0|0|-1|-1|3
2021-03-10 21:16:05.789 +0000|291326.008273875|-0.458099365234375|0.6350555419921875|0.8433074951171875|291325.988311875|-1.451249201366391|-2.736640153302565|-0.7042114749907969|0.152732327580452|-0.7206817865371704|-0.03811655193567276|-0.1463522911071777|0.007580876350402832|0.1144587993621826|XArbitraryZVertical|0.6620470684131052|0.6418215852698006|-0.1274650922510254|-0.3653919836748865|-0.30025714635849|0.6474331021308899|0.7004825472831726|0|0|0|-1|-1|3
2021-03-10 21:16:05.809 +0000|291326.028236875|-0.480499267578125|0.6037750244140625|0.8750762939453125|291326.008273875|-1.448698239182461|-2.747213075857538|-0.7074132926992691|0.2134931832551956|-0.4988181889057159|-0.005836108233779669|-0.1671463251113892|-0.01479923725128174|0.1222282648086548|XArbitraryZVertical|0.6604032302513869|0.6439859021404846|-0.1325998959394851|-0.362721579116457|-0.2920363545417786|0.6498699188232422|0.7017005085945129|0|0|0|-1|-1|3
2021-03-10 21:16:05.829 +0000|291326.048199875|-0.47271728515625|0.5794525146484375|0.90130615234375|291326.028236875|-1.447637297772743|-2.754088127105061|-0.7099585609784378|0.0644489973783493|-0.2594364881515503|0.01406613737344742|-0.1905934512615204|-0.0606464147567749|0.1652583479881287|XArbitraryZVertical|0.6594863801941926|0.6451021424028903|-0.1359943606088191|-0.3611460768761956|-0.2865793704986572|0.6518023610115051|0.7021580934524536|0|0|0|-1|-1|3
2021-03-10 21:16:05.849 +0000|291326.068162875|-0.4774932861328125|0.66064453125|0.9097900390625|291326.068162875|-1.451820526945548|-2.763193353339103|-0.7111050574659066|0.05124231427907944|-0.06635762751102448|0.1733801513910294|-0.1973816752433777|-0.0279613733291626|0.2087374329566956|XArbitraryZVertical|0.6601573023546692|0.6451465021977144|-0.138665483984359|-0.3588177398659092|-0.2798979580402374|0.6526713967323303|0.7040433287620544|0|0|0|-1|-1|3
2021-03-10 21:16:05.869 +0000|291326.088125875|-0.490447998046875|0.578582763671875|0.8683013916015625||||||||||||||||||||||||3
2021-03-10 21:16:05.889 +0000|291326.108088875|-0.4790191650390625|0.6421661376953125|0.825164794921875|291326.088125875|-1.456303879807407|-2.766751742660448|-0.7158231411958872|0.2299472093582153|-0.0096836993470788|0.3377814292907715|-0.2169340848922729|-0.03064364194869995|0.1803152561187744|XArbitraryZVertical|0.6611243113152085|0.6434248106994322|-0.140760870586756|-0.359312660052177|-0.2762604951858521|0.6562387347221375|0.7021616697311401|0|0|0|-1|-1|3
2021-03-10 21:16:05.909 +0000|291326.128051875|-0.4560699462890625|0.5059661865234375|0.7292938232421875|291326.108088875|-1.464450599751838|-2.772620144642915|-0.7235357469359239|0.3036565482616425|-0.01516491174697876|0.4962036609649658|-0.2124101221561432|-0.04610252380371094|0.1372746825218201|XArbitraryZVertical|0.6629281522042734|0.640344260937008|-0.1440482426342174|-0.360188209735775|-0.2703016400337219|0.6620387434959412|0.6990290284156799|0|0|0|-1|-1|3
2021-03-10 21:16:05.928 +0000|291326.148014875|-0.4490814208984375|0.600067138671875|0.6751251220703125|291326.128051875|-1.474778479573981|-2.779287893981231|-0.7334274333310915|0.3011041581630707|0.02634913474321365|0.5690585374832153|-0.1974993646144867|-0.1224532723426819|0.05731028318405151|XArbitraryZVertical|0.6651993306622661|0.6362695417313889|-0.1479849553191239|-0.3616232661760703|-0.263300746679306|0.6694197654724121|0.6946581602096558|0|0|0|-1|-1|3
2021-03-10 21:16:05.948 +0000|291326.167977875|-0.434661865234375|0.5866546630859375|0.6506195068359375|291326.148014875|-1.486662804640183|-2.786503206146912|-0.7427404453620522|0.3101171255111694|0.05838270112872124|0.5776089429855347|-0.1930393278598785|-0.1097197532653809|0.0009555816650390625|XArbitraryZVertical|0.6678837539663676|0.6318730444697965|-0.1515938638640148|-0.3628872198376845|-0.2561031579971313|0.6763091087341309|0.690664529800415|0|0|0|-1|-1|3
2021-03-10 21:16:05.968 +0000|291326.187940875|-0.39569091796875|0.514495849609375|0.660186767578125|291326.167977875|-1.498065632494379|-2.792436802384742|-0.7538830405557726|0.4632821083068848|0.1259922236204147|0.593451201915741|-0.1938610374927521|-0.0807151198387146|-0.0301709771156311|XArbitraryZVertical|0.6703230895685626|0.6270492642380835|-0.1554948863240124|-0.3650992268195038|-0.2494067847728729|0.684474766254425|0.6850476264953613|0|0|0|-1|-1|3
2021-03-10 21:16:05.988 +0000|291326.207903875|-0.3709259033203125|0.5079193115234375|0.6928558349609375|291326.187940875|-1.508729625892332|-2.796241893347798|-0.7676945415631092|0.5453852415084839|0.2349887490272522|0.6006553173065186|-0.1611494421958923|-0.1647388339042664|-0.02261239290237427|XArbitraryZVertical|0.6724366666606045|0.6215663110031661|-0.1597320829992681|-0.3687411307907044|-0.2435747087001801|0.6944782733917236|0.6770315170288086|0|0|0|-1|-1|3
2021-03-10 21:16:06.008 +0000|291326.227866875|-0.35675048828125|0.5362548828125|0.687652587890625|291326.207903875|-1.519361408296314|-2.797907140996108|-0.7816080838480258|0.486676424741745|0.3410437107086182|0.5837162733078003|-0.1366258263587952|-0.2046504616737366|0.01541215181350708|XArbitraryZVertical|0.674615370569041|0.615654783867533|-0.1632432611412755|-0.373115371083668|-0.2391677051782608|0.7044216990470886|0.6682734489440918|0|0|0|-1|-1|3
2021-03-10 21:16:06.039 +0000|291326.247828875|-0.3464508056640625|0.5467681884765625|0.6596527099609375|291326.227866875|-1.529226497139785|-2.796496785943424|-0.7880743533804015|0.3855618834495544|0.4405809342861176|0.5253170132637024|-0.1187968850135803|-0.1796234846115112|0.03074699640274048|XArbitraryZVertical|0.677284461878086|0.610821703281569|-0.1631937773753643|-0.3762318681659471|-0.2385639548301697|0.708996593952179|0.6636347770690918|0|0|0|-1|-1|3
2021-03-10 21:16:06.049 +0000|291326.267791875|-0.342926025390625|0.5610809326171875|0.6275634765625|291326.247828875|-1.537148038881206|-2.79047723440797|-0.7935080203249841|0.2667716443538666|0.5694571733474731|0.4729507863521576|-0.1058658361434937|-0.1699408292770386|0.004999399185180664|XArbitraryZVertical|0.6797806685187894|0.6059522210346642|-0.1615576356389702|-0.3802885311517122|-0.2412258386611938|0.7128180265426636|0.6585596799850464|0|0|0|-1|-1|3
2021-03-10 21:16:06.068 +0000|291326.287754875|-0.3319549560546875|0.536346435546875|0.6680908203125|291326.267791875|-1.545166570356968|-2.782643688187842|-0.7967328612685453|0.271775871515274|0.720025897026062|0.3997353613376617|-0.1007603108882904|-0.1544986367225647|-0.02261233329772949|XArbitraryZVertical|0.682587501011875|0.6011001606479279|-0.1584837047892806|-0.3842341584652916|-0.2455684393644333|0.7150760293006897|0.6544942259788513|0|0|0|-1|-1|3
2021-03-10 21:16:06.088 +0000|291326.307717875|-0.304229736328125|0.4862518310546875|0.6964569091796875|291326.287754875|-1.552328746118292|-2.771983370140279|-0.7997933980066864|0.3435129225254059|0.8530603051185608|0.3581140637397766|-0.08218371868133545|-0.1662935614585876|0.009018182754516602|XArbitraryZVertical|0.6853387583762549|0.5959936814151943|-0.1545203530768471|-0.3888776316189049|-0.2517396509647369|0.7172121405601501|0.6497953534126282|0|0|0|-1|-1|3
2021-03-10 21:16:06.108 +0000|291326.327680875|-0.2905426025390625|0.514129638671875|0.716094970703125|291326.307717875|-1.556941620868223|-2.757250092440838|-0.8075530671976755|0.479484349489212|0.9604798555374146|0.308393657207489|-0.05330890417098999|-0.2315241694450378|0.05078250169754028|XArbitraryZVertical|0.6872642506608155|0.5899886787816425|-0.1512591798776272|-0.3958560651832356|-0.2591911256313324|0.7225978374481201|0.6408376097679138|0|0|0|-1|-1|3
2021-03-10 21:16:06.128 +0000|291326.347643875|-0.30810546875|0.5613250732421875|0.70751953125|291326.327680875|-1.558518510562486|-2.738387070372713|-0.8195817901389607|0.5863801240921021|1.039309620857239|0.2578862607479095|-0.02574613690376282|-0.2302194237709045|0.08244174718856812|XArbitraryZVertical|0.6882707183972793|0.5832499236317765|-0.1486389979049152|-0.4049809696285293|-0.267802506685257|0.7308604717254639|0.627794086933136|0|0|0|-1|-1|3
2021-03-10 21:16:06.148 +0000|291326.367606875|-0.3076171875|0.5389404296875|0.6974334716796875|291326.347643875|-1.557118600665937|-2.715901361084907|-0.8332081732361007|0.7069120407104492|1.12059473991394|0.1981907039880753|-0.02279537916183472|-0.1776079535484314|0.09897017478942871|XArbitraryZVertical|0.6885536474225989|0.5763132394075847|-0.1459275480657894|-0.4152855296522397|-0.2777112126350403|0.7400926947593689|0.6124861240386963|0|0|0|-1|-1|3
2021-03-10 21:16:06.168 +0000|291326.387569875|-0.32257080078125|0.5209808349609375|0.7179412841796875|291326.367606875|-1.552673137990367|-2.689168039372957|-0.8473694552615795|0.6805915832519531|1.220119833946228|0.1372305154800415|-0.02044153213500977|-0.2105555534362793|0.105768620967865|XArbitraryZVertical|0.6882348698010344|0.5692201053226607|-0.142599807850215|-0.4265987986723231|-0.2893728911876678|0.749541699886322|0.5953575372695923|0|0|0|-1|-1|3
2021-03-10 21:16:06.188 +0000|291326.407532875|-0.3512115478515625|0.5889892578125|0.75189208984375|291326.387569875|-1.547313060135818|-2.659920592837637|-0.8592872580088626|0.5252024531364441|1.300938487052917|0.08487452566623688|-0.01544791460037231|-0.2379376888275146|0.1306831836700439|XArbitraryZVertical|0.6879875972598744|0.5621516323946776|-0.1378649634925839|-0.4377806552810186|-0.3024994432926178|0.7573773264884949|0.5786827802658081|0|0|0|-1|-1|3
2021-03-10 21:16:06.208 +0000|291326.427495875|-0.380279541015625|0.6775360107421875|0.78399658203125|291326.407532875|-1.542731136173086|-2.629738960368686|-0.8676812189548812|0.3755110204219818|1.377280712127686|0.06018436700105667|-0.02618062496185303|-0.194334864616394|0.1783221364021301|XArbitraryZVertical|0.6882226799244846|0.5551699104906104|-0.1314431296429551|-0.4481726256251894|-0.3166996240615845|0.7628316879272461|0.5637281537055969|0|0|0|-1|-1|3
2021-03-10 21:16:06.228 +0000|291326.447458875|-0.4056854248046875|0.7598876953125|0.8130645751953125|291326.427495875|-1.539263534102544|-2.59881884813054|-0.8741176419457825|0.3226147294044495|1.45626962184906|0.07026229798793793|-0.04277345538139343|-0.1170750856399536|0.2236496210098267|XArbitraryZVertical|0.6888726853882355|0.5478874083354814|-0.1238515696881346|-0.4581863943088519|-0.3314331769943237|0.7669776082038879|0.5494523644447327|0|0|0|-1|-1|3
2021-03-10 21:16:06.248 +0000|291326.467420875|-0.4165802001953125|0.7771453857421875|0.7957763671875|291326.447458875|-1.534572754714994|-2.565386436253835|-0.8816946596718267|0.5151938796043396|1.536916971206665|0.07718847692012787|-0.05381569266319275|-0.03008764982223511|0.2785590291023254|XArbitraryZVertical|0.6892076408561237|0.5399832367977604|-0.1160994047904278|-0.4689690181168227|-0.3464376330375671|0.7718175053596497|0.5331781506538391|0|0|0|-1|-1|3
2021-03-10 21:16:06.268 +0000|291326.487383875|-0.4036407470703125|0.694366455078125|0.7116241455078125|291326.467420875|-1.526524956446858|-2.528052689546862|-0.8928740906728583|0.6835628747940063|1.571075439453125|0.1355036199092865|-0.05233049392700195|-0.003578305244445801|0.2926313281059265|XArbitraryZVertical|0.6886323170991056|0.5312060789859557|-0.1091196180259066|-0.4813508584244072|-0.3611064255237579|0.7788774967193604|0.512788712978363|0|0|0|-1|-1|3
2021-03-10 21:16:06.288 +0000|291326.507346875|-0.3673095703125|0.6755218505859375|0.5810089111328125|291326.487383875|-1.517896753015118|-2.490362815906982|-0.9058059954109571|0.6505814790725708|1.523331165313721|0.1870248764753342|-0.03274884819984436|-0.07227718830108643|0.2501558065414429|XArbitraryZVertical|0.6878268080384533|0.521801699123613|-0.1028640058652745|-0.4940004643459414|-0.3740353286266327|0.7869227528572083|0.4907654523849487|0|0|0|-1|-1|3
2021-03-10 21:16:06.308 +0000|291326.527309875|-0.3576202392578125|0.686004638671875|0.4587249755859375|291326.507346875|-1.512984569943864|-2.457169149665866|-0.9164712319749464|0.3334624767303467|1.39519476890564|0.2451500445604324|0.01036825776100159|-0.1152665019035339|0.1399134397506714|XArbitraryZVertical|0.6878275219747579|0.5125128878289353|-0.09648978400511612|-0.504889913751053|-0.3847885131835938|0.793458878993988|0.471552312374115|0|0|0|-1|-1|3
2021-03-10 21:16:06.328 +0000|291326.547272875|-0.33050537109375|0.680999755859375|0.43157958984375|291326.527309875|-1.517244235707239|-2.434118984420028|-0.9219438988854889|-0.1056541576981544|1.263804078102112|0.3105616271495819|0.03249669075012207|-0.1106053590774536|0.02582615613937378|XArbitraryZVertical|0.6898046574873758|0.503780610822954|-0.0894273003912725|-0.5122278325713538|-0.3927261531352997|0.7967777848243713|0.4592507481575012|0|0|0|-1|-1|3
2021-03-10 21:16:06.348 +0000|291326.567235875|-0.3659515380859375|0.7919921875|0.543914794921875|291326.547272875|-1.533251257588822|-2.42265708907775|-0.9209031760745735|-0.6255704164505005|1.16948676109314|0.3283377885818481|0.06318312883377075|-0.1252651214599609|-0.02794462442398071|XArbitraryZVertical|0.6943242675509278|0.495565858593238|-0.08097647111711725|-0.5155300933029714|-0.3985103666782379|0.7961484789848328|0.4553434252738953|0|0|0|-1|-1|3
2021-03-10 21:16:06.368 +0000|291326.587198875|-0.4294281005859375|0.8952789306640625|0.6621246337890625|291326.567235875|-1.558620213415534|-2.420085263818248|-0.9117695303442171|-1.04999315738678|1.111990571022034|0.2274817377328873|0.05468893051147461|-0.0366060733795166|0.04485085606575012|XArbitraryZVertical|0.7009490728765096|0.4884148206730033|-0.07030278882119059|-0.5149551691655461|-0.4044661223888397|0.7905885577201843|0.4597572684288025|0|0|0|-1|-1|3
2021-03-10 21:16:06.388 +0000|291326.607161875|-0.439483642578125|1.032760620117188|0.7219085693359375|291326.587198875|-1.587091340590584|-2.420567448930232|-0.8957771490379385|-1.32116687297821|1.084903836250305|0.04102913290262222|-0.008786588907241821|0.08676719665527344|0.1567544937133789|XArbitraryZVertical|0.7083648264699556|0.4826119408032105|-0.05753716241204329|-0.5118539885963707|-0.4125390946865082|0.7806949615478516|0.4693900346755981|0|0|0|-1|-1|3
2021-03-10 21:16:06.408 +0000|291326.627124875|-0.424285888671875|1.083648681640625|0.637542724609375|291326.607161875|-1.614278783280859|-2.420601271304057|-0.8740774414274426|-1.418619632720947|1.004398941993713|-0.1759014874696732|-0.01647037267684937|0.2412115931510925|0.2370986640453339|XArbitraryZVertical|0.7156068021113619|0.4784513409851511|-0.04305760478092688|-0.5070870475968416|-0.4236083328723907|0.7669517993927002|0.4820175766944885|0|0|0|-1|-1|3
2021-03-10 21:16:06.428 +0000|291326.647087875|-0.3520355224609375|1.109817504882812|0.41796875|291326.627124875|-1.635873325877289|-2.418775256077227|-0.8497651750468901|-1.296305179595947|0.8133723139762878|-0.3860951960086823|0.003941237926483154|0.3241004943847656|0.1805146336555481|XArbitraryZVertical|0.7215611283041818|0.4763311163642974|-0.02854799219110085|-0.5016406660079405|-0.4366958737373352|0.7511253952980042|0.4950836002826691|0|0|0|-1|-1|3
2021-03-10 21:16:06.448 +0000|291326.667050875|-0.263519287109375|1.087753295898438|0.199859619140625|291326.647087875|-1.64773802600075|-2.413968407435645|-0.8261164848000289|-0.9796070456504822|0.5361332297325134|-0.5885963439941406|0.07925507426261902|0.3723306059837341|-0.03109806776046753|XArbitraryZVertical|0.7251209414011828|0.4767093419218671|-0.01571640848422493|-0.496689975552658|-0.4507609009742737|0.7353049516677856|0.5061043500900269|0|0|0|-1|-1|3
2021-03-10 21:16:06.467 +0000|291326.687013875|-0.16015625|1.027572631835938|0.0725250244140625|291326.667050875|-1.647677433334576|-2.40623890852269|-0.8058664986186629|-0.5222288370132446|0.2334299385547638|-0.7556838393211365|0.1748661398887634|0.372822642326355|-0.2665800452232361|XArbitraryZVertical|0.7256429047587745|0.4798063880151641|-0.005977109313525963|-0.4931456210004813|-0.4645543396472931|0.7214309573173523|0.5135436058044434|0|0|0|-1|-1|3
2021-03-10 21:16:06.487 +0000|291326.706975875|-0.1029052734375|0.9817352294921875|0.0785675048828125|291326.687013875|-1.636624604105162|-2.396599513782736|-0.790690421061272|-0.07898261398077011|-0.04873267188668251|-0.8214128613471985|0.2963244915008545|0.3354713916778564|-0.4238301515579224|XArbitraryZVertical|0.7232797540260807|0.4851617019888865|1.646331901256071e-05|-0.4914108431001952|-0.4768512547016144|0.7108390331268311|0.5170309543609619|0|0|0|-1|-1|3
2021-03-10 21:16:06.507 +0000|291326.726938875|-0.0699462890625|0.9293365478515625|0.1865692138671875|291326.706975875|-1.617472009579878|-2.3858534934078|-0.7812366305297997|0.2773590087890625|-0.2215214818716049|-0.7982686758041382|0.3701912760734558|0.28490149974823|-0.4547328352928162|XArbitraryZVertical|0.7187202714513752|0.4917453726740372|0.002456912985526388|-0.4915503276200189|-0.4869668781757355|0.7041580080986023|0.5167446732521057|0|0|0|-1|-1|3
2021-03-10 21:16:06.541 +0000|291326.746901875|-0.053680419921875|0.8751373291015625|0.311492919921875|291326.726938875|-1.594872017030036|-2.375377767580992|-0.7766261307462826|0.4839263260364532|-0.3096004724502563|-0.6779111623764038|0.4182136356830597|0.2558339238166809|-0.3615286350250244|XArbitraryZVertical|0.7131482839118681|0.4983913463515111|0.002253434553044886|-0.4929711619151525|-0.4945991933345795|0.7008768916130066|0.5139487981796265|0|0|0|-1|-1|3
2021-03-10 21:16:06.548 +0000|291326.766864875|-0.0569000244140625|0.8623046875|0.412322998046875|291326.746901875|-1.572764138288283|-2.366335615418073|-0.7762253581389875|0.5780331492424011|-0.3175338208675385|-0.4726543128490448|0.4440637826919556|0.180024266242981|-0.2263004779815674|XArbitraryZVertical|0.7076030366927892|0.5041092016817722|0.0001448630576322829|-0.4951484015101104|-0.4994227290153503|0.700590968132019|0.5096563100814819|0|0|0|-1|-1|3
2021-03-10 21:16:06.568 +0000|291326.786827875|-0.090301513671875|0.88348388671875|0.4622802734375|291326.766864875|-1.553942269714978|-2.359125666206855|-0.7797551750106682|0.615444004535675|-0.2730183899402618|-0.235455185174942|0.4483285546302795|0.1625409722328186|-0.1106083989143372|XArbitraryZVertical|0.7028495344866316|0.508079871084363|-0.003236613168953184|-0.4978422822984791|-0.5013375878334045|0.7031053304672241|0.5042852759361267|0|0|0|-1|-1|3
2021-03-10 21:16:06.588 +0000|291326.806790875|-0.14556884765625|0.882080078125|0.4997406005859375|291326.786827875|-1.539466764533077|-2.353671642738594|-0.7862668037030858|0.5454076528549194|-0.1983674466609955|-0.03236181288957596|0.4235232472419739|0.1768923401832581|-0.05019873380661011|XArbitraryZVertical|0.699201005853478|0.5101664250810352|-0.007260542560014877|-0.5007948786145398|-0.5008243322372437|0.7077207565307617|0.4983036518096924|0|0|0|-1|-1|3
2021-03-10 21:16:06.607 +0000|291326.8267536667|-0.1848907470703125|0.861480712890625|0.547943115234375|291326.806790875|-1.531555039188417|-2.350982882474569|-0.7929343340768629|0.2930511236190796|-0.08619791269302368|0.1090518608689308|0.3665034770965576|0.1723959445953369|-0.002551376819610596|XArbitraryZVertical|0.6972232313515325|0.5105803736192734|-0.01069367681613934|-0.5030638208936111|-0.4987972676753998|0.7124155163764954|0.4936251044273376|0|0|0|-1|-1|3
2021-03-10 21:16:06.627 +0000|291326.8467166667|-0.219940185546875|0.88519287109375|0.578887939453125|291326.8267536667|-1.532364707963803|-2.352265737435176|-0.7965974428299762|-0.05938920751214027|-0.01168394647538662|0.1694651395082474|0.3206484913825989|0.1484982967376709|0.04813480377197266|XArbitraryZVertical|0.6974371946032458|0.5096988863670977|-0.01224971555534549|-0.5036252950036604|-0.4963077008724213|0.7149813771247864|0.4924231767654419|0|0|0|-1|-1|3
2021-03-10 21:16:06.647 +0000|291326.8666796667|-0.2745361328125|0.8846893310546875|0.546478271484375|291326.8467166667|-1.540203177407647|-2.358370323492077|-0.7963503989522035|-0.338040292263031|-0.0547870509326458|0.2053851336240768|0.2855769693851471|0.1554763913154602|0.0805269181728363|XArbitraryZVertical|0.6993944703250361|0.5085585124641667|-0.01232237267337208|-0.5020595331625296|-0.4934169054031372|0.7148086428642273|0.4955687820911407|0|0|0|-1|-1|3
2021-03-10 21:16:06.667 +0000|291326.8866426667|-0.2950286865234375|0.9135894775390625|0.4400634765625|291326.8666796667|-1.552677247067431|-2.369277426823881|-0.7933944555873027|-0.4563753604888916|-0.1578022241592407|0.204717755317688|0.2240281105041504|0.1734311580657959|0.05916744470596313|XArbitraryZVertical|0.7024972773055246|0.5076551675778498|-0.01197032636453094|-0.498638766010453|-0.4894548356533051|0.7127383351325989|0.5024324059486389|0|0|0|-1|-1|3
2021-03-10 21:16:06.687 +0000|291326.9066056667|-0.3212738037109375|0.928924560546875|0.3883209228515625|291326.8866426667|-1.564580486375752|-2.382574901438425|-0.7904061329091703|-0.2981028854846954|-0.3467340171337128|0.1824985593557358|0.1924463212490082|0.1965570449829102|-0.04249793291091919|XArbitraryZVertical|0.7054458114975831|0.5075095060091774|-0.01263416420215352|-0.4945916045795471|-0.4841944575309753|0.7106390595436096|0.510439395904541|0|0|0|-1|-1|3
2021-03-10 21:16:06.707 +0000|291326.9265676667|-0.3497314453125|0.953460693359375|0.401611328125|291326.9066056667|-1.572016128193367|-2.397594889542937|-0.7970163635403581|-0.04021761193871498|-0.5770356059074402|0.1370158493518829|0.1597438454627991|0.2096220850944519|-0.1220812797546387|XArbitraryZVertical|0.7071676652123607|0.5069586888544599|-0.01844230575418598|-0.4925106459477306|-0.4732815027236938|0.7152741551399231|0.5141864418983459|0|0|0|-1|-1|3
2021-03-10 21:16:06.727 +0000|291326.9465306667|-0.3637847900390625|0.88421630859375|0.4468841552734375|291326.9265676667|-1.573700210676271|-2.413539808238549|-0.8059331467133295|0.2455537021160126|-0.8084985613822937|0.09490098059177399|0.1185821294784546|0.2311748266220093|-0.1227660775184631|XArbitraryZVertical|0.7073092067109852|0.5080909124989739|-0.02681538374902093|-0.4907526944064705|-0.4607604444026947|0.7214770913124084|0.5168853998184204|0|0|0|-1|-1|3
2021-03-10 21:16:06.747 +0000|291326.9664936667|-0.374755859375|0.8275146484375|0.4863433837890625|291326.9465306667|-1.570119953894706|-2.429440299257206|-0.8168406304398008|0.3757545351982117|-0.9850392937660217|0.0851270854473114|0.08763456344604492|0.1772937774658203|-0.08323699235916138|XArbitraryZVertical|0.7059656699152744|0.5105797437024314|-0.03716146982175247|-0.4894281955665724|-0.4473147988319397|0.7289867997169495|0.5181583762168884|0|0|0|-1|-1|3
2021-03-10 21:16:06.767 +0000|291326.9864566667|-0.386962890625|0.82672119140625|0.501007080078125|291326.9664936667|-1.564432765566829|-2.446089058301157|-0.8281139661359475|0.3826109766960144|-1.111945033073425|0.08872324228286743|0.06121659278869629|0.09963130950927734|-0.03859990835189819|XArbitraryZVertical|0.7039214573308729|0.5138968921792212|-0.04840314953174588|-0.4879157734751802|-0.433332771062851|0.7366572022438049|0.5191908478736877|0|0|0|-1|-1|3
2021-03-10 21:16:06.787 +0000|291327.0064196667|-0.415557861328125|0.8261871337890625|0.53082275390625|291326.9864566667|-1.560029689803551|-2.465829961938298|-0.8351505083000968|0.3475767076015472|-1.183168172836304|0.1264951229095459|0.03809410333633423|0.0827450156211853|-0.0256001353263855|XArbitraryZVertical|0.7020812782717993|0.518531531980565|-0.05890148749445501|-0.4844972976097223|-0.419746994972229|0.741397500038147|0.5235861539840698|0|0|0|-1|-1|3
2021-03-10 21:16:06.807 +0000|291327.0263826667|-0.445709228515625|0.8516845703125|0.5941009521484375|291327.0064196667|-1.557092913432321|-2.487333916500667|-0.8418619846208932|0.3023246228694916|-1.181083798408508|0.1318928301334381|-0.005183517932891846|0.07485508918762207|-0.007884979248046875|XArbitraryZVertical|0.7004303895861128|0.5231274923566716|-0.06952452955347216|-0.4805218750777799|-0.405354231595993|0.7458846569061279|0.5285301804542542|0|0|0|-1|-1|3
2021-03-10 21:16:06.827 +0000|291327.0463456667|-0.457794189453125|0.811187744140625|0.64703369140625|291327.0263826667|-1.553922195767195|-2.507757641866495|-0.8499917771444961|0.3279154598712921|-1.131466031074524|0.1190700456500053|-0.04714715480804443|0.09935665130615234|0.04407232999801636|XArbitraryZVertical|0.6985580682907726|0.5271753711976535|-0.08030265245936666|-0.4771312845638275|-0.3908715844154358|0.7512750029563904|0.5317944884300232|0|0|0|-1|-1|3
2021-03-10 21:16:06.847 +0000|291327.0663086667|-0.413482666015625|0.7144622802734375|0.5876617431640625|291327.0463456667|-1.550679395119906|-2.52725412468871|-0.8567488596068066|0.3491502404212952|-1.070646524429321|0.104074589908123|-0.08177918195724487|0.07376575469970703|0.1084168553352356|XArbitraryZVertical|0.6966101679311149|0.53132937165436|-0.09026321756093125|-0.4735779268645556|-0.3774951696395874|0.755717396736145|0.5351532697677612|0|0|0|-1|-1|3
2021-03-10 21:16:06.867 +0000|291327.0862716667|-0.360137939453125|0.6393280029296875|0.4658050537109375|291327.0663086667|-1.547217160811149|-2.545770724024018|-0.8639727395101294|0.3758644461631775|-1.055353403091431|0.1203918680548668|-0.06388100981712341|-0.02254408597946167|0.07347434759140015|XArbitraryZVertical|0.6944994763407297|0.5351911655745851|-0.1000738544827528|-0.4703468299222223|-0.3644484579563141|0.7604285478591919|0.5375182032585144|0|0|0|-1|-1|3
2021-03-10 21:16:06.887 +0000|291327.1062346667|-0.3340911865234375|0.603424072265625|0.3995361328125|291327.0862716667|-1.543860732573631|-2.564651775362441|-0.8722052461206395|0.4320648610591888|-1.090071439743042|0.1481200903654099|-0.01935431361198425|-0.1118945479393005|-0.04164731502532959|XArbitraryZVertical|0.6922209875140484|0.5388406219792403|-0.1103153479250239|-0.4672382872635634|-0.3508087396621704|0.7657490968704224|0.5390382409095764|0|0|0|-1|-1|3
2021-03-10 21:16:06.907 +0000|291327.1261976667|-0.3194122314453125|0.6114349365234375|0.4352569580078125|291327.1062346667|-1.540049862621513|-2.583594636993717|-0.8813553081695142|0.4639832377433777|-1.098129868507385|0.1332187950611115|-0.002574771642684937|-0.162623405456543|-0.1342086791992188|XArbitraryZVertical|0.6896280406451614|0.5424232384337428|-0.1209780938329158|-0.4642785750446056|-0.3368112146854401|0.7716017365455627|0.5396196246147156|0|0|0|-1|-1|3
2021-03-10 21:16:06.927 +0000|291327.1461596667|-0.3268890380859375|0.6103668212890625|0.4913330078125|291327.1261976667|-1.535867811480499|-2.602482077366739|-0.8902824536550529|0.4284288883209229|-1.115597486495972|0.1039884760975838|0.004117101430892944|-0.1704988479614258|-0.11896151304245|XArbitraryZVertical|0.6868016876117899|0.5461494957789098|-0.1315951836875567|-0.4612016985729832|-0.3230105638504028|0.7772495150566101|0.5399516820907593|0|0|0|-1|-1|3
2021-03-10 21:16:06.947 +0000|291327.1661226667|-0.330230712890625|0.593719482421875|0.5030670166015625|291327.1461596667|-1.53113053246|-2.621032039907885|-0.89825490362561|0.4065527021884918|-1.103119611740112|0.03421312943100929|-0.01525616645812988|-0.1696462035179138|-0.06058341264724731|XArbitraryZVertical|0.6837587994586124|0.5501840771118378|-0.1418510492000989|-0.4578753293065329|-0.3098476231098175|0.7822409272193909|0.5404572486877441|0|0|0|-1|-1|3
2021-03-10 21:16:06.966 +0000|291327.1860856667|-0.3343505859375|0.5933685302734375|0.4774932861328125|291327.1661226667|-1.523973437043465|-2.636944896838022|-0.9055659848425454|0.4511649310588837|-1.051498174667358|-0.04594296216964722|-0.03132236003875732|-0.1904457211494446|-0.03800952434539795|XArbitraryZVertical|0.6801515495034023|0.5545657190883465|-0.151488132326207|-0.4548650811915039|-0.298435389995575|0.7867746353149414|0.5402985215187073|0|0|0|-1|-1|3
2021-03-10 21:16:06.986 +0000|291327.2060486667|-0.347137451171875|0.648468017578125|0.430450439453125|291327.1860856667|-1.513084945954966|-2.648666007900767|-0.9141090555313648|0.6542949080467224|-0.9806067943572998|-0.1539308577775955|-0.04579555988311768|-0.2072411179542542|-0.05249691009521484|XArbitraryZVertical|0.6756397790720196|0.5589453415821587|-0.1609483369367744|-0.4529753542293354|-0.2888907194137573|0.7920190095901489|0.5378180146217346|0|0|0|-1|-1|3
2021-03-10 21:16:07.006 +0000|291327.2260116667|-0.35736083984375|0.633819580078125|0.436492919921875|291327.2060486667|-1.49497651507976|-2.652764204205199|-0.9254432181232287|0.8893617391586304|-0.8622223138809204|-0.2854436933994293|-0.0582631528377533|-0.1429122090339661|-0.08581620454788208|XArbitraryZVertical|0.6694539141006092|0.5633383423183143|-0.1704442071402844|-0.4532439812127418|-0.2824503481388092|0.7988874316215515|0.5310372710227966|0|0|0|-1|-1|3
2021-03-10 21:16:07.029 +0000|291327.2459746667|-0.380859375|0.56695556640625|0.5743560791015625|291327.2260116667|-1.468931497157133|-2.648499706261724|-0.9379225921515144|0.8577752113342285|-0.8037580251693726|-0.4646335244178772|-0.07600095868110657|-0.1625474691390991|-0.1029142737388611|XArbitraryZVertical|0.6616240080911381|0.5681164691417013|-0.1793907005024226|-0.45532016549873|-0.2799713909626007|0.8063311576843262|0.5210052728652954|0|0|0|-1|-1|3
2021-03-10 21:16:07.047 +0000|291327.2659376667|-0.40679931640625|0.6766357421875|0.7043304443359375|291327.2459746667|-1.442042640534556|-2.642579076107915|-0.9448317832001729|0.5101596713066101|-0.7777013182640076|-0.6141564846038818|-0.09097498655319214|-0.2303202748298645|0.01974546909332275|XArbitraryZVertical|0.6540415566837752|0.5739745576075019|-0.1860556540546384|-0.4562523290581657|-0.2803781926631927|0.8103983998298645|0.514434278011322|0|0|0|-1|-1|3
2021-03-10 21:16:07.067 +0000|291327.2859006667|-0.4475860595703125|0.84942626953125|0.861572265625|291327.2659376667|-1.412598733912941|-2.633796438724219|-0.9459617563146393|0.4637911319732666|-0.7076200842857361|-0.814528226852417|-0.1175832748413086|-0.17429518699646|0.1524225473403931|XArbitraryZVertical|0.6462956941477843|0.581272563228592|-0.1903279531826415|-0.4562888718804788|-0.2844401299953461|0.8110598921775818|0.5111518502235413|0|0|0|-1|-1|3
2021-03-10 21:16:07.086 +0000|291327.3058636667|-0.524444580078125|0.946044921875|0.929718017578125|291327.2859006667|-1.377801707817586|-2.618541213551756|-0.9465102661753315|0.6085687875747681|-0.6068090796470642|-0.9692131280899048|-0.1306864023208618|0.01064085960388184|0.3349564075469971|XArbitraryZVertical|0.6375506590672138|0.5888233598896374|-0.1935825847023471|-0.457539124615571|-0.2919820547103882|0.8113806247711182|0.506367564201355|0|0|0|-1|-1|3
2021-03-10 21:16:07.106 +0000|291327.3258266667|-0.5376739501953125|0.9298858642578125|0.87933349609375|291327.3058636667|-1.337673494273435|-2.596336279980932|-0.9471961072943591|0.6305416226387024|-0.4361112117767334|-0.9986774325370789|-0.2113110423088074|0.1013505458831787|0.4235218167304993|XArbitraryZVertical|0.6277921386842765|0.5962542097979758|-0.1960216472741714|-0.4603624608218851|-0.3028644025325775|0.8117813467979431|0.4992841184139252|0|0|0|-1|-1|3
2021-03-10 21:16:07.126 +0000|291327.3457896667|-0.515899658203125|0.825439453125|0.760955810546875|291327.3258266667|-1.296906618862333|-2.570580535147059|-0.9476770873022345|0.6269760727882385|-0.2997661232948303|-0.9807224869728088|-0.2232549488544464|0.1369583010673523|0.4059520959854126|XArbitraryZVertical|0.6180868622829735|0.6028795235347392|-0.197603135222112|-0.4641745193097134|-0.3154108226299286|0.8120620846748352|0.4909901916980743|0|0|0|-1|-1|3
2021-03-10 21:16:07.146 +0000|291327.3657516667|-0.479766845703125|0.7882537841796875|0.6386260986328125|291327.3457896667|-1.26007024619494|-2.545520655922609|-0.9459299244817539|0.3925223648548126|-0.1887878775596619|-0.887585461139679|-0.1913799345493317|0.04308474063873291|0.3077640533447266|XArbitraryZVertical|0.6094534871883301|0.6087852797292348|-0.1978288023147396|-0.467772165049993|-0.3284107148647308|0.8110412955284119|0.4841061532497406|0|0|0|-1|-1|3
2021-03-10 21:16:07.166 +0000|291327.3857146667|-0.4548492431640625|0.7922821044921875|0.5613250732421875|291327.3657516667|-1.233373212424901|-2.52679830337634|-0.9406147378110479|0.04670022800564766|-0.1196141913533211|-0.7035582065582275|-0.1515116095542908|-0.01263254880905151|0.1862304210662842|XArbitraryZVertical|0.6032380818538166|0.6138383350127282|-0.1963655115724203|-0.4698370116949285|-0.339897632598877|0.807920515537262|0.4813873767852783|0|0|0|-1|-1|3
2021-03-10 21:16:07.186 +0000|291327.4056776667|-0.4227142333984375|0.8341217041015625|0.5330352783203125|291327.3857146667|-1.219577374035588|-2.517960999854999|-0.931209436284265|-0.3167238235473633|-0.1069692894816399|-0.5090230107307434|-0.1097826063632965|-0.02298450469970703|0.0938723087310791|XArbitraryZVertical|0.5999663401728041|0.6183012750490016|-0.193305610887231|-0.469443156598464|-0.3485608994960785|0.802342414855957|0.4845121502876282|0|0|0|-1|-1|3
2021-03-10 21:16:07.206 +0000|291327.4256406667|-0.3665924072265625|0.8090057373046875|0.5247650146484375|291327.4056776667|-1.215920173484861|-2.516954175394285|-0.9196696610418753|-0.4802660346031189|-0.0828738659620285|-0.3510631918907166|-0.08093932271003723|0.03969669342041016|0.04543989896774292|XArbitraryZVertical|0.599030183626549|0.6220790504083833|-0.1893772503597521|-0.4672437431254696|-0.3544397056102753|0.7954014539718628|0.4916390180587769|0|0|0|-1|-1|3
2021-03-10 21:16:07.226 +0000|291327.4456036667|-0.32733154296875|0.790557861328125|0.509552001953125|291327.4256406667|-1.217459933317936|-2.519660204938884|-0.9083527264757248|-0.4701124727725983|-0.06954463571310043|-0.2392827719449997|-0.02346023917198181|0.02507662773132324|0.02729505300521851|XArbitraryZVertical|0.5993373095883326|0.6250882550051506|-0.1854256150107367|-0.4644103618396542|-0.3583299517631531|0.7884916663169861|0.4998810887336731|0|0|0|-1|-1|3
2021-03-10 21:16:07.246 +0000|291327.4655666667|-0.3070068359375|0.7934417724609375|0.5087890625|291327.4456036667|-1.220061936012308|-2.5228938366191|-0.8995219638302547|-0.3309730589389801|-0.04606636613607407|-0.147680327296257|0.02553072571754456|0.01154112815856934|0.008111655712127686|XArbitraryZVertical|0.5999116277944143|0.6272565251704316|-0.1823540380844902|-0.4619548295525898|-0.3607357442378998|0.7830296754837036|0.5066894292831421|0|0|0|-1|-1|3
2021-03-10 21:16:07.266 +0000|291327.4855296667|-0.3004150390625|0.7751007080078125|0.5186004638671875|291327.4655666667|-1.221913782458154|-2.524774723309352|-0.8944302069818145|-0.1549006551504135|0.005442575551569462|-0.05270756408572197|0.05089601874351501|0.01052218675613403|-0.002388298511505127|XArbitraryZVertical|0.6003537896015169|0.628396176444019|-0.180508195117688|-0.4605544502283374|-0.36208376288414|0.7798525094985962|0.5106128454208374|0|0|0|-1|-1|3
2021-03-10 21:16:07.286 +0000|291327.5054926667|-0.299224853515625|0.7700653076171875|0.5205841064453125|291327.4855296667|-1.222984208532593|-2.524833616722544|-0.8930317047099446|-0.009902631863951683|0.07617858797311783|0.02228687144815922|0.06150603294372559|0.0041046142578125|0.006009101867675781|XArbitraryZVertical|0.6006933109284385|0.6284338615420239|-0.1797347820314533|-0.4603626414469959|-0.3626839816570282|0.7789763808250427|0.5115231275558472|0|0|0|-1|-1|3
2021-03-10 21:16:07.306 +0000|291327.5254556667|-0.32177734375|0.7997894287109375|0.54754638671875|291327.5054926667|-1.224074436886272|-2.52323591864213|-0.8941192706822476|0.03777657076716423|0.168792724609375|0.09641365706920624|0.06505134701728821|-0.01259839534759521|0.01040762662887573|XArbitraryZVertical|0.6011725041014016|0.6274695645106574|-0.1794269636195311|-0.4611720801040899|-0.3630097806453705|0.7796578407287598|0.5102528929710388|0|0|0|-1|-1|3
2021-03-10 21:16:07.326 +0000|291327.5454186667|-0.3599700927734375|0.84051513671875|0.5663604736328125|291327.5254556667|-1.227412997966493|-2.521537067285473|-0.8965348352130827|0.04406699538230896|0.2912584543228149|0.1723796129226685|0.04747298359870911|0.009084582328796387|0.03265517950057983|XArbitraryZVertical|0.6023554542172241|0.6254746125979378|-0.1790848017080889|-0.4624696533259017|-0.3627806305885315|0.7811682224273682|0.5081011652946472|0|0|0|-1|-1|3
2021-03-10 21:16:07.346 +0000|291327.5653816667|-0.39825439453125|0.8345489501953125|0.614837646484375|291327.5454186667|-1.232717085982119|-2.518969670308306|-0.9001438423270648|0.08765759319067001|0.4437811076641083|0.237053856253624|0.01291948556900024|0.04751622676849365|0.05323117971420288|XArbitraryZVertical|0.6042150615452897|0.6223835884913724|-0.1784835894848419|-0.4644420813440094|-0.3624373078346252|0.7834163308143616|0.5048743486404419|0|0|0|-1|-1|3
2021-03-10 21:16:07.366 +0000|291327.5853436667|-0.445068359375|0.8478546142578125|0.7060546875|291327.5653816667|-1.239540214390801|-2.514658855839629|-0.9046833928366336|0.0915091261267662|0.5969359278678894|0.3121683895587921|-0.02796730399131775|0.04874664545059204|0.09921783208847046|XArbitraryZVertical|0.6066805525473246|0.6181826775131651|-0.1773497025894294|-0.4672644618940046|-0.3625203669071198|0.7862295508384705|0.5004222393035889|0|0|0|-1|-1|3
2021-03-10 21:16:07.386 +0000|291327.6053066667|-0.515716552734375|0.8607025146484375|0.7699127197265625|291327.5853436667|-1.248997669883827|-2.509357216425872|-0.9089058314874707|0.0007833349518477917|0.7435473203659058|0.3827039897441864|-0.06762871146202087|0.05056965351104736|0.1818169951438904|XArbitraryZVertical|0.6100238442829174|0.6130059231594008|-0.1751531069702079|-0.4705487722051438|-0.363203227519989|0.7888317108154297|0.4958107173442841|0|0|0|-1|-1|3
2021-03-10 21:16:07.406 +0000|291327.6252696667|-0.5270843505859375|0.821136474609375|0.7061614990234375|291327.6053066667|-1.26254493571167|-2.504619908015731|-0.9117828758154649|-0.1444025039672852|0.8694434762001038|0.4341715276241302|-0.1324160695075989|0.07233357429504395|0.2730467319488525|XArbitraryZVertical|0.6145398517857514|0.6070170407231527|-0.1716140695870473|-0.4737295602241045|-0.3641964495182037|0.7905967235565186|0.492257833480835|0|0|0|-1|-1|3
2021-03-10 21:16:07.426 +0000|291327.6452326667|-0.4737396240234375|0.7695770263671875|0.5683135986328125|291327.6252696667|-1.279021342834955|-2.499380287681105|-0.9135262971461459|-0.3340951502323151|0.9399457573890686|0.4827977418899536|-0.1687693297863007|0.04132944345474243|0.2435191869735718|XArbitraryZVertical|0.6199375504729884|0.6002470273847222|-0.1667501934493276|-0.4770484221567325|-0.3659443855285645|0.7916630506515503|0.4892381131649017|0|0|0|-1|-1|3
2021-03-10 21:16:07.446 +0000|291327.6651956667|-0.4091644287109375|0.737579345703125|0.4325714111328125|291327.6452326667|-1.300597055054007|-2.498079947091627|-0.9119697965582783|-0.5825756192207336|0.8857004046440125|0.4887348413467407|-0.1231437623500824|-0.006012499332427979|0.1113573312759399|XArbitraryZVertical|0.6265027999790935|0.5936059787706202|-0.1605937207256153|-0.4788904183397431|-0.3673196136951447|0.7907111644744873|0.4897476434707642|0|0|0|-1|-1|3
2021-03-10 21:16:07.466 +0000|291327.6851586667|-0.3301239013671875|0.6938323974609375|0.344696044921875|291327.6651956667|-1.325624214908548|-2.50090124150815|-0.9075541979083269|-0.6652587056159973|0.8034974932670593|0.4698139727115631|-0.05930286645889282|-0.04422593116760254|-0.03071567416191101|XArbitraryZVertical|0.6337372229811307|0.587507460234976|-0.1538110011934633|-0.4791181863780857|-0.3680194914340973|0.7880002856254578|0.493575781583786|0|0|0|-1|-1|3
2021-03-10 21:16:07.486 +0000|291327.7051216667|-0.2913818359375|0.6963043212890625|0.308685302734375|291327.6851586667|-1.349993206312994|-2.505099755114159|-0.9023387988412439|-0.5946429371833801|0.654568076133728|0.373024195432663|0.02684450149536133|-0.0892828106880188|-0.1250325441360474|XArbitraryZVertical|0.6406401822223317|0.5820547874988627|-0.1473448573837534|-0.4786251661196624|-0.368382066488266|0.7847785949707031|0.4984152317047119|0|0|0|-1|-1|3
2021-03-10 21:16:07.506 +0000|291327.7250846667|-0.2594451904296875|0.685546875|0.2989654541015625|291327.7051216667|-1.368239832455415|-2.507394759696895|-0.8978701762058188|-0.4221892356872559|0.5572866201400757|0.2795056104660034|0.06640920042991638|-0.08804655075073242|-0.1841012239456177|XArbitraryZVertical|0.6458567189460871|0.5778483874586717|-0.1420403234623182|-0.478314812268727|-0.3693114817142487|0.7820011973381042|0.5020793080329895|0|0|0|-1|-1|3
2021-03-10 21:16:07.527 +0000|291327.7450476667|-0.2653045654296875|0.7153167724609375|0.34674072265625|291327.7250846667|-1.380045769895977|-2.506438940627727|-0.895499737783186|-0.2098572254180908|0.4727604389190674|0.1713451445102692|0.1073399484157562|-0.09119057655334473|-0.2074553370475769|XArbitraryZVertical|0.6493763896453396|0.5743853688313691|-0.1380194812565125|-0.4788970216217247|-0.3708896934986115|0.7805215716362|0.5032165050506592|0|0|0|-1|-1|3
2021-03-10 21:16:07.546 +0000|291327.7650106667|-0.2709503173828125|0.76727294921875|0.429473876953125|291327.7450476667|-1.384764361789572|-2.501161788568988|-0.895057455163961|0.003029062412679195|0.4308177828788757|0.04588611796498299|0.1097997725009918|-0.08110266923904419|-0.168627917766571|XArbitraryZVertical|0.6510983516952943|0.5716952023773408|-0.1350068959122565|-0.4806335541913873|-0.373746246099472|0.7802450060844421|0.5015289187431335|0|0|0|-1|-1|3
2021-03-10 21:16:07.566 +0000|291327.7849736667|-0.28662109375|0.7766265869140625|0.51312255859375|291327.7650106667|-1.382139524520501|-2.490629717460476|-0.8976117979350463|0.3023745119571686|0.4196096062660217|-0.01389163918793201|0.1080690026283264|-0.01766484975814819|-0.0906432569026947|XArbitraryZVertical|0.6510021497659192|0.5693725024712999|-0.1331641483658265|-0.4840230853395783|-0.3777985870838165|0.7818401455879211|0.4959776997566223|0|0|0|-1|-1|3
2021-03-10 21:16:07.585 +0000|291327.8049356667|-0.2921600341796875|0.7476654052734375|0.5575103759765625|291327.7849736667|-1.373512557014229|-2.475370644578803|-0.9036052308611765|0.4835968017578125|0.4370533227920532|-0.03953699022531509|0.1001779437065125|-0.009867072105407715|0.01094317436218262|XArbitraryZVertical|0.6494538393532514|0.5669578328208094|-0.1325408138110024|-0.4890823010723352|-0.3824197947978973|0.7855628728866577|0.4864629507064819|0|0|0|-1|-1|3
2021-03-10 21:16:07.606 +0000|291327.8248986667|-0.3205108642578125|0.7365570068359375|0.558349609375|291327.8049356667|-1.362389640387072|-2.4577867115789|-0.9111038461933685|0.5043581128120422|0.4426233768463135|-0.02176438644528389|0.09795144200325012|-0.0331464409828186|0.076567143201828|XArbitraryZVertical|0.6473577528488418|0.5643313756384318|-0.1323847633601572|-0.494906398668132|-0.38718181848526|0.7901807427406311|0.4750839173793793|0|0|0|-1|-1|3
2021-03-10 21:16:07.625 +0000|291327.8448616667|-0.3792572021484375|0.7536773681640625|0.534912109375|291327.8248986667|-1.351981086668296|-2.440943111638067|-0.9183933197457784|0.435975193977356|0.4167110621929169|0.005263146944344044|0.08114761114120483|-0.06272423267364502|0.09610095620155334|XArbitraryZVertical|0.6454554478298993|0.5616289837190834|-0.1322684195603138|-0.5004649665140142|-0.3914045095443726|0.7946272492408752|0.4640797078609467|0|0|0|-1|-1|3
2021-03-10 21:16:07.645 +0000|291327.8648246667|-0.4287109375|0.8044281005859375|0.5102386474609375|291327.8448616667|-1.345425659398573|-2.427813940157775|-0.9237261052538546|0.2094445675611496|0.3758115768432617|0.03749272227287292|0.03176867961883545|-0.05192744731903076|0.08697205781936646|XArbitraryZVertical|0.6444371129259061|0.5590586796088075|-0.131688595060277|-0.5047894699726082|-0.394683837890625|0.7978534698486328|0.4556916058063507|0|0|0|-1|-1|3
2021-03-10 21:16:07.665 +0000|291327.8847876667|-0.42828369140625|0.83758544921875|0.4904327392578125|291327.8648246667|-1.344886981796651|-2.420142273208132|-0.9253773198082097|-0.06757728010416031|0.3496557176113129|0.03938445448875427|-0.02016794681549072|-0.007984757423400879|0.0663907527923584|XArbitraryZVertical|0.6447768727539964|0.5568599311695943|-0.1299740684894836|-0.5072243720505389|-0.3972973227500916|0.7988477945327759|0.4516603946685791|0|0|0|-1|-1|3
2021-03-10 21:16:07.685 +0000|291327.9047506667|-0.3828125|0.8294830322265625|0.4629058837890625|291327.9047506667|-1.359913334353858|-2.422317357576495|-0.9130369424285372|-0.4079382419586182|0.1940422654151917|-0.1276651620864868|0.005760103464126587|0.04411572217941284|0.00814327597618103|XArbitraryZVertical|0.6489023444904385|0.5557681182824921|-0.1222346433207598|-0.5050804459880311|-0.4027785360813141|0.7913640141487122|0.4599049091339111|0|0|0|-1|-1|3
2021-03-10 21:16:07.705 +0000|291327.9247136667|-0.3183441162109375|0.8188018798828125|0.431640625||||||||||||||||||||||||3
2021-03-10 21:16:07.725 +0000|291327.9446766667|-0.27191162109375|0.799224853515625|0.3651123046875|291327.9247136667|-1.366682388863246|-2.426470147176899|-0.9021239149317476|-0.452576220035553|0.003262353129684925|-0.2490145117044449|0.07486957311630249|0.04044312238693237|-0.02168583869934082|XArbitraryZVertical|0.6506116823018973|0.557438522937211|-0.1177843284758361|-0.502089312350138|-0.4065041244029999|0.7846453785896301|0.468066543340683|0|0|0|-1|-1|3
2021-03-10 21:16:07.745 +0000|291327.9646396667|-0.2427825927734375|0.8196868896484375|0.318603515625|291327.9446766667|-1.368081399970767|-2.430286837708553|-0.8904661604563312|-0.3773436546325684|-0.2377327382564545|-0.4350731372833252|0.128782719373703|0.02523183822631836|-0.09870371222496033|XArbitraryZVertical|0.6508546357975673|0.5609312775298865|-0.1143029062731077|-0.4986773419881638|-0.4106582701206207|0.7773650884628296|0.4765112996101379|0|0|0|-1|-1|3
2021-03-10 21:16:07.765 +0000|291327.9846026667|-0.227447509765625|0.8429412841796875|0.3307952880859375|291327.9646396667|-1.361859251707473|-2.432666450344481|-0.8791200627868399|-0.2316948026418686|-0.4766974747180939|-0.5996644496917725|0.1685957312583923|0.04026198387145996|-0.1575369238853455|XArbitraryZVertical|0.6490192931682941|0.5664358658366528|-0.1123594587994144|-0.4952773204809561|-0.4152387678623199|0.7701779007911682|0.4841512739658356|0|0|0|-1|-1|3
2021-03-10 21:16:07.785 +0000|291328.0045656667|-0.229461669921875|0.8552398681640625|0.3359832763671875|291327.9846026667|-1.348559238766111|-2.433745404968964|-0.8692670015848974|-0.06259375810623169|-0.6794236898422241|-0.7177929878234863|0.1893293559551239|0.07189834117889404|-0.1655731201171875|XArbitraryZVertical|0.6451886135443249|0.5735000137069339|-0.1122768273295887|-0.4921619333802836|-0.4196302890777588|0.763856053352356|0.4903412163257599|0|0|0|-1|-1|3
2021-03-10 21:16:07.805 +0000|291328.0245286667|-0.2197113037109375|0.7694244384765625|0.350494384765625|291328.0045656667|-1.328989235809866|-2.433548231126896|-0.8627482856317101|0.2067446708679199|-0.8202993273735046|-0.757103443145752|0.1926402449607849|0.1036942601203918|-0.1612515449523926|XArbitraryZVertical|0.6395412945048814|0.5813795990093892|-0.1145471229312084|-0.4897588847870162|-0.4229564070701599|0.7596327662467957|0.494030624628067|0|0|0|-1|-1|3
2021-03-10 21:16:07.825 +0000|291328.0444906667|-0.2163848876953125|0.70635986328125|0.398406982421875|291328.0245286667|-1.304249886855703|-2.431618524974157|-0.8605564314381433|0.3682093620300293|-0.9393723011016846|-0.7577366828918457|0.202397882938385|0.04022592306137085|-0.1530442237854004|XArbitraryZVertical|0.6324024933208233|0.5893254963823877|-0.1191476121999624|-0.4884326338011016|-0.4249931275844574|0.7582054734230042|0.4944749176502228|0|0|0|-1|-1|3
2021-03-10 21:16:07.845 +0000|291328.0644536667|-0.2490997314453125|0.7438201904296875|0.455535888671875|291328.0444906667|-1.277806582121415|-2.431159684253359|-0.8587859253292038|0.419749915599823|-1.068676233291626|-0.7360724806785583|0.2092368602752686|-0.0408174991607666|-0.1132928729057312|XArbitraryZVertical|0.6245659594380918|0.5979680395839091|-0.1247694143400248|-0.4866048520521125|-0.4260948300361633|0.7570499181747437|0.495296835899353|0|0|0|-1|-1|3
2021-03-10 21:16:07.865 +0000|291328.0844166667|-0.2862091064453125|0.810760498046875|0.486358642578125|291328.0644536667|-1.252876912333549|-2.434881679929578|-0.8563281383689499|0.4641270637512207|-1.182034611701965|-0.6489758491516113|0.1877234280109406|-0.03183931112289429|-0.05247676372528076|XArbitraryZVertical|0.6167872267326682|0.6072232176416646|-0.1310199633070822|-0.4834123066361906|-0.4254554808139801|0.7554417848587036|0.4982930421829224|0|0|0|-1|-1|3
2021-03-10 21:16:07.885 +0000|291328.1043796667|-0.305267333984375|0.842926025390625|0.4790496826171875|291328.1043796667|-1.207624739626093|-2.4498283806746|-0.8579463920360461|0.5010553002357483|-1.279559016227722|-0.4479775726795197|0.1156812012195587|0.07907015085220337|-0.01943159103393555|XArbitraryZVertical|0.6018397787742624|0.6241920535159707|-0.1470595938378519|-0.4759690830533052|-0.4171796143054962|0.7565011382102966|0.5036537051200867|0|0|0|-1|-1|3
2021-03-10 21:16:07.905 +0000|291328.1243426667|-0.319732666015625|0.8506622314453125|0.4570465087890625||||||||||||||||||||||||3
2021-03-10 21:16:07.925 +0000|291328.1443056667|-0.3885955810546875|0.929443359375|0.4319915771484375|291328.1243426667|-1.189605223804726|-2.462015084771836|-0.8591509647688406|0.3199716508388519|-1.313193798065186|-0.3971751034259796|0.09676313400268555|0.09013897180557251|-0.04378825426101685|XArbitraryZVertical|0.5952770986254692|0.6321714608311336|-0.1554463490718386|-0.4709998566745854|-0.4104380309581757|0.7572883367538452|0.5079911351203918|0|0|0|-1|-1|3
2021-03-10 21:16:07.945 +0000|291328.1642686667|-0.503021240234375|1.058486938476562|0.5355377197265625|291328.1443056667|-1.17625934919375|-2.47816586041288|-0.857841432391008|0.1549085080623627|-1.298627972602844|-0.3743642568588257|0.03757166862487793|0.1457738876342773|-0.08392256498336792|XArbitraryZVertical|0.5897271722869125|0.6402257844560334|-0.1628359553245964|-0.4645613593293396|-0.402790755033493|0.7564324736595154|0.5153343677520752|0|0|0|-1|-1|3
2021-03-10 21:16:07.965 +0000|291328.1842316667|-0.585784912109375|1.06402587890625|0.6707000732421875|291328.1642686667|-1.163235334701342|-2.492987222710953|-0.8562000070819671|0.2757221162319183|-1.164693474769592|-0.398990660905838|-0.07934603095054626|0.2761973142623901|-0.02382314205169678|XArbitraryZVertical|0.5842791720429097|0.6478703838755409|-0.1695414388527434|-0.4584076508234426|-0.3958584070205688|0.7553578615188599|0.5222363471984863|0|0|0|-1|-1|3
2021-03-10 21:16:07.985 +0000|291328.2041946667|-0.549041748046875|0.9138336181640625|0.6232757568359375|291328.1842316667|-1.146550760501708|-2.502362288464275|-0.8580909861439909|0.524885356426239|-1.048668742179871|-0.3376311659812927|-0.1831651628017426|0.3246422410011292|0.124117910861969|XArbitraryZVertical|0.5780598768792813|0.6543970410967695|-0.176823988483351|-0.4542518014638428|-0.3900923728942871|0.7565956711769104|0.5247774124145508|0|0|0|-1|-1|3
2021-03-10 21:16:08.005 +0000|291328.2241576667|-0.4800872802734375|0.790557861328125|0.43902587890625|291328.2041946667|-1.12896921447703|-2.509192833834059|-0.8644275916795265|0.6480550765991211|-0.9855879545211792|-0.204892486333847|-0.186823308467865|0.1887084245681763|0.1293261051177979|XArbitraryZVertical|0.571748018814125|0.6594543649692338|-0.185295669597302|-0.4515413772528502|-0.3836570084095001|0.7607238292694092|0.5235517024993896|0|0|0|-1|-1|3
2021-03-10 21:16:08.027 +0000|291328.2441206667|-0.44512939453125|0.6892852783203125|0.298583984375|291328.2241576667|-1.114811178973753|-2.518591423416943|-0.8737129582706761|0.6101143360137939|-1.040005326271057|0.01744560152292252|-0.1142792403697968|0.05431175231933594|-0.03169012069702148|XArbitraryZVertical|0.5662845802800289|0.6633320465316154|-0.1948688277076993|-0.4487076093629195|-0.3745818436145782|0.7667178511619568|0.5213752388954163|0|0|0|-1|-1|3
2021-03-10 21:16:08.045 +0000|291328.2640826667|-0.4137115478515625|0.7120208740234375|0.2380523681640625|291328.2441206667|-1.108160411287117|-2.534728479397017|-0.8839177106008429|0.4472315311431885|-1.081024050712585|0.2147857397794724|-0.09279826283454895|-0.06754064559936523|-0.1968158483505249|XArbitraryZVertical|0.5625563559777618|0.666317535209601|-0.2049933256766087|-0.4444424377887002|-0.361638993024826|0.7732291221618652|0.5208974480628967|0|0|0|-1|-1|3
2021-03-10 21:16:08.065 +0000|291328.2840456667|-0.413604736328125|0.693115234375|0.304840087890625|291328.2640826667|-1.110241164801256|-2.558023110388424|-0.8926475982649902|0.2180203199386597|-1.080556392669678|0.3674927353858948|-0.06974536180496216|-0.07580870389938354|-0.2827426791191101|XArbitraryZVertical|0.5608457196527614|0.6687416085559046|-0.2145694997596234|-0.4384025144145474|-0.3456752300262451|0.7787354588508606|0.5235265493392944|0|0|0|-1|-1|3
2021-03-10 21:16:08.085 +0000|291328.3040086667|-0.384490966796875|0.6833343505859375|0.401214599609375|291328.2840456667|-1.118434998709203|-2.585320498310325|-0.8995642757871197|0.09120011329650879|-1.004249930381775|0.4247756600379944|-0.08577936887741089|-0.08606511354446411|-0.2451592087745667|XArbitraryZVertical|0.5605855014683536|0.6706962883866946|-0.2232025804583029|-0.4313826338285047|-0.3284052014350891|0.7830559611320496|0.5281792283058167|0|0|0|-1|-1|3
2021-03-10 21:16:08.105 +0000|291328.3239716667|-0.38555908203125|0.67071533203125|0.491668701171875|291328.3040086667|-1.129165373139546|-2.612766039667781|-0.9050177897910956|0.04901928827166557|-0.8987043499946594|0.4202395677566528|-0.07936310768127441|-0.100675642490387|-0.1523464918136597|XArbitraryZVertical|0.5610194299377032|0.672239527413856|-0.2307732346696711|-0.4243759997317044|-0.3116281032562256|0.786436140537262|0.5332975387573242|0|0|0|-1|-1|3
2021-03-10 21:16:08.124 +0000|291328.3439346667|-0.3908233642578125|0.677215576171875|0.54949951171875|291328.3239716667|-1.139781380906064|-2.637667568759136|-0.9097774377074932|0.03196367621421814|-0.7464717626571655|0.3830488920211792|-0.08591267466545105|-0.1158595085144043|-0.06815534830093384|XArbitraryZVertical|0.5615948583256932|0.6733608857056896|-0.2374134190538874|-0.4181282077719633|-0.296442061662674|0.789367139339447|0.5376073122024536|0|0|0|-1|-1|3
2021-03-10 21:16:08.144 +0000|291328.3638976667|-0.3801116943359375|0.71502685546875|0.56353759765625|291328.3439346667|-1.150205585758887|-2.658730550924173|-0.91261790447313|-0.09553992748260498|-0.541367769241333|0.3090894520282745|-0.1071780622005463|-0.1204074025154114|-0.0003619790077209473|XArbitraryZVertical|0.5625140307818877|0.6741290876024781|-0.2422893944118153|-0.4128244612588227|-0.284011572599411|0.7911077737808228|0.5417441129684448|0|0|0|-1|-1|3
2021-03-10 21:16:08.164 +0000|291328.3838606667|-0.3749542236328125|0.7075042724609375|0.559814453125|291328.3638976667|-1.160683168725962|-2.676063702532819|-0.9118119769393018|-0.2721160352230072|-0.3707841038703918|0.237047553062439|-0.1059942245483398|-0.08634519577026367|0.01417088508605957|XArbitraryZVertical|0.5639605698346363|0.6749263732675722|-0.2447031585731456|-0.4080970639511329|-0.2748650908470154|0.7906145453453064|0.5471542477607727|0|0|0|-1|-1|3
2021-03-10 21:16:08.184 +0000|291328.4038236667|-0.3495025634765625|0.6735992431640625|0.5608367919921875|291328.3838606667|-1.171563995378884|-2.690288858860252|-0.9073857006851718|-0.4214062988758087|-0.1957409232854843|0.1666047275066376|-0.1110760271549225|-0.07376980781555176|0.009400308132171631|XArbitraryZVertical|0.5660382544913117|0.6757788631186868|-0.2447754416061855|-0.4037433738342189|-0.2685779631137848|0.7878965139389038|0.5541527271270752|0|0|0|-1|-1|3
2021-03-10 21:16:08.204 +0000|291328.4237866667|-0.33172607421875|0.7051239013671875|0.572998046875|291328.4038236667|-1.182067065536313|-2.700805021861493|-0.8997519978551496|-0.5408980846405029|-0.03938769176602364|0.09201348572969437|-0.08962523937225342|-0.1090545058250427|-0.004951000213623047|XArbitraryZVertical|0.5685782451219404|0.6766859192223769|-0.2426578938770579|-0.3999153756641964|-0.2652941942214966|0.7831727266311646|0.5623701214790344|0|0|0|-1|-1|3
2021-03-10 21:16:08.224 +0000|291328.4437496667|-0.3377838134765625|0.71905517578125|0.61474609375|291328.4237866667|-1.191268083290418|-2.707554059242415|-0.8899818756426366|-0.5845344066619873|0.07846075296401978|0.01226530782878399|-0.0691797137260437|-0.07730764150619507|-0.003450632095336914|XArbitraryZVertical|0.5712423963260771|0.677652801549938|-0.2389278224052198|-0.3967143599489853|-0.264697790145874|0.777060329914093|0.5710623860359192|0|0|0|-1|-1|3
2021-03-10 21:16:08.244 +0000|291328.4637116667|-0.330810546875|0.7477569580078125|0.6570281982421875|291328.4437496667|-1.196773182254259|-2.708264892884088|-0.8783370040661818|-0.6392496228218079|0.1942352801561356|-0.08394023776054382|-0.06897801160812378|-0.05489552021026611|0.02007853984832764|XArbitraryZVertical|0.5734565420659856|0.6788664404706379|-0.2334903467581659|-0.3946774336711474|-0.2680734097957611|0.7696782350540161|0.5794240832328796|0|0|0|-1|-1|3
2021-03-10 21:16:08.264 +0000|291328.4836746667|-0.34088134765625|0.77813720703125|0.694580078125|291328.4637116667|-1.198167642384492|-2.703027171030139|-0.865580450689568|-0.6351228356361389|0.277099221944809|-0.2060195356607437|-0.05650493502616882|-0.02235126495361328|0.06214827299118042|XArbitraryZVertical|0.5749823439309247|0.6803104084298816|-0.2267204606934433|-0.3939173657689685|-0.2752516567707062|0.7614716291427612|0.5868539214134216|0|0|0|-1|-1|3
2021-03-10 21:16:08.284 +0000|291328.5036376667|-0.329803466796875|0.7889556884765625|0.7126617431640625|291328.4836746667|-1.197013939821399|-2.694715834157456|-0.8521165275770114|-0.5658754706382751|0.3300734460353851|-0.2783548831939697|-0.05327436327934265|0.02012097835540771|0.09200698137283325|XArbitraryZVertical|0.5759473450297559|0.6820218446382579|-0.21927688602262|-0.3937619864091501|-0.28452467918396|0.7526755928993225|0.5937382578849792|0|0|0|-1|-1|3
2021-03-10 21:16:08.304 +0000|291328.5236006667|-0.3061065673828125|0.7699127197265625|0.70367431640625|291328.5036376667|-1.193943724742739|-2.684886415910757|-0.8404065977609456|-0.4122265875339508|0.3262102007865906|-0.3154157102108002|-0.03598645329475403|0.04538387060165405|0.1128263473510742|XArbitraryZVertical|0.5762902922414974|0.6835793641766617|-0.2124464479429578|-0.3943033899812033|-0.2942136824131012|0.7449144721031189|0.598782479763031|0|0|0|-1|-1|3
2021-03-10 21:16:08.324 +0000|291328.5435636667|-0.2929229736328125|0.7554168701171875|0.6811676025390625|291328.5236006667|-1.188936191920414|-2.674820494314791|-0.8312992724161556|-0.2715436816215515|0.2460352182388306|-0.3225553631782532|-0.008516222238540649|0.03571337461471558|0.1056490540504456|XArbitraryZVertical|0.575853524518691|0.6850584985905178|-0.2069447538556514|-0.3952993698475358|-0.3032666444778442|0.7388076186180115|0.6018248796463013|0|0|0|-1|-1|3
2021-03-10 21:16:08.344 +0000|291328.5635266667|-0.272125244140625|0.73162841796875|0.639007568359375|291328.5435636667|-1.183857933693633|-2.6674074990532|-0.8237780074328006|-0.1757460385560989|0.132271945476532|-0.3067196011543274|0.01297637820243835|0.02545255422592163|0.08608037233352661|XArbitraryZVertical|0.5750279271014354|0.6867214014224513|-0.2028427675127173|-0.3957417386593112|-0.3102481365203857|0.7337180376052856|0.6044868230819702|0|0|0|-1|-1|3
2021-03-10 21:16:08.364 +0000|291328.5834896667|-0.25640869140625|0.710968017578125|0.5955657958984375|291328.5635266667|-1.178396967736685|-2.662394913053003|-0.8183479438770511|-0.07656696438789368|-0.007396043743938208|-0.270962655544281|0.03855621814727783|0.008232951164245605|0.04239916801452637|XArbitraryZVertical|0.5737537656345331|0.6884996842241999|-0.2003320190740463|-0.395780148401798|-0.3151065111160278|0.7300177812576294|0.6064503788948059|0|0|0|-1|-1|3
2021-03-10 21:16:08.384 +0000|291328.6034526667|-0.26531982421875|0.73321533203125|0.604278564453125|291328.5834896667|-1.171783632714593|-2.659231490221384|-0.8155904018713499|0.1146419122815132|-0.1233574822545052|-0.2542319893836975|0.05790042877197266|-0.01107418537139893|-0.002601921558380127|XArbitraryZVertical|0.5718344662628086|0.6903775194628493|-0.1996393689890798|-0.39563664987116|-0.3179559409618378|0.7281304001808167|0.6072315573692322|0|0|0|-1|-1|3
2021-03-10 21:16:08.404 +0000|291328.6234156667|-0.2699127197265625|0.7187042236328125|0.6595306396484375|291328.6034526667|-1.163221327567571|-2.656650151441637|-0.8169256919917562|0.3919881880283356|-0.1777218729257584|-0.212170273065567|0.05739590525627136|0.0006149411201477051|-0.008105337619781494|XArbitraryZVertical|0.5691146290104998|0.6920134314998425|-0.2011289399436595|-0.3959458613132085|-0.3190688788890839|0.729045033454895|0.605548083782196|0|0|0|-1|-1|3
2021-03-10 21:16:08.424 +0000|291328.6433786667|-0.2772216796875|0.66888427734375|0.69561767578125|291328.6234156667|-1.152214093310794|-2.652893133641999|-0.8236428079183842|0.64039146900177|-0.1845127642154694|-0.1546212285757065|0.04906168580055237|-0.008040189743041992|0.04624789953231812|XArbitraryZVertical|0.5655953459113426|0.6928966891173653|-0.2049253543876061|-0.3974944083157724|-0.3190354704856873|0.7336261868476868|0.6000078320503235|0|0|0|-1|-1|3
2021-03-10 21:16:08.444 +0000|291328.6633416667|-0.2814178466796875|0.6497650146484375|0.704559326171875|291328.6433786667|-1.140325605609503|-2.648182503333071|-0.8335115382997079|0.7003625631332397|-0.1454325318336487|-0.1150937080383301|0.04180219769477844|-0.05983102321624756|0.09876435995101929|XArbitraryZVertical|0.5618422277760988|0.6930942324082691|-0.2099106590980164|-0.3998639761723292|-0.3184134960174561|0.7402966618537903|0.5920926332473755|0|0|0|-1|-1|3
2021-03-10 21:16:08.464 +0000|291328.6833036667|-0.2966766357421875|0.637054443359375|0.7146759033203125|291328.6633416667|-1.129125858380202|-2.642642753431392|-0.8435872125284297|0.6345618367195129|-0.06407439708709717|-0.09042076766490936|0.04014912247657776|-0.09455156326293945|0.1199952363967896|XArbitraryZVertical|0.5584341105795932|0.692835788649751|-0.2146382762829601|-0.402567185115899|-0.3181032240390778|0.747032642364502|0.5837401747703552|0|0|0|-1|-1|3
2021-03-10 21:16:08.484 +0000|291328.7032666667|-0.3067169189453125|0.6539764404296875|0.7421417236328125|291328.6833036667|-1.11958081385554|-2.636258339978836|-0.8520903963756881|0.5164682269096375|0.05437150597572327|-0.08475568890571594|0.02515777945518494|-0.116611123085022|0.1342853903770447|XArbitraryZVertical|0.5557313975940623|0.692258388875135|-0.2181955812604499|-0.4053783427753489|-0.3187368512153625|0.7526583671569824|0.5761181116104126|0|0|0|-1|-1|3
2021-03-10 21:16:08.504 +0000|291328.7232296667|-0.31512451171875|0.6633148193359375|0.769622802734375|291328.7032666667|-1.112235781760563|-2.629286073082281|-0.8581988235462653|0.408359169960022|0.1639737337827682|-0.06317520886659622|0.01521897315979004|-0.1089153289794922|0.1640839576721191|XArbitraryZVertical|0.5538991018379897|0.6914678302277785|-0.2202058635763467|-0.4081389880702849|-0.320486307144165|0.7566661834716797|0.5698639750480652|0|0|0|-1|-1|3
2021-03-10 21:16:08.528 +0000|291328.7431926667|-0.3140106201171875|0.6752777099609375|0.7791290283203125|291328.7232296667|-1.108035791442018|-2.62321553081447|-0.8613839621682674|0.2738891541957855|0.2571302354335785|-0.04434266686439514|0.00842815637588501|-0.09478926658630371|0.1974942684173584|XArbitraryZVertical|0.5530922448432612|0.6906480004965639|-0.2206641513392991|-0.410367601460413|-0.3227438628673553|0.7587447762489319|0.5658113956451416|0|0|0|-1|-1|3
2021-03-10 21:16:08.544 +0000|291328.7631556667|-0.3241424560546875|0.7194366455078125|0.7632293701171875|291328.7431926667|-1.106787771202987|-2.618056156554251|-0.8614441487019042|0.1162278056144714|0.3088848888874054|-0.03609663248062134|0.01005378365516663|-0.09054064750671387|0.211825430393219|XArbitraryZVertical|0.5532288636667148|0.6899184678880974|-0.2195179103996738|-0.4120221287534349|-0.3256360590457916|0.7587839961051941|0.5640993118286133|0|0|0|-1|-1|3
2021-03-10 21:16:08.564 +0000|291328.7831186667|-0.3448944091796875|0.7292633056640625|0.723358154296875|291328.7631556667|-1.107908633363524|-2.614186666517504|-0.8592870163604068|0.02617060020565987|0.3203661143779755|-0.00803836528211832|0.009898662567138672|-0.05174970626831055|0.2049779891967773|XArbitraryZVertical|0.5540497840640963|0.6893133901919275|-0.2173488876852291|-0.4130803846397602|-0.3286394774913788|0.7573772072792053|0.5642482042312622|0|0|0|-1|-1|3
2021-03-10 21:16:08.584 +0000|291328.8030816667|-0.3582000732421875|0.7262420654296875|0.6970977783203125|291328.7831186667|-1.110669624114634|-2.611417172529505|-0.8565155650900537|0.0105419559404254|0.3285268247127533|0.02275532111525536|-0.009086370468139648|-0.02628612518310547|0.16932213306427|XArbitraryZVertical|0.5553132230315994|0.6886213588508762|-0.2148967097914954|-0.4138202039294284|-0.3312608897686005|0.7555645704269409|0.5651443004608154|0|0|0|-1|-1|3
2021-03-10 21:16:08.604 +0000|291328.8230446667|-0.3547210693359375|0.71533203125|0.7060699462890625|291328.8030816667|-1.114621897034058|-2.609386493160904|-0.8539850055166657|0.01245011016726494|0.3358671367168427|0.06957165151834488|-0.02076402306556702|-0.02429008483886719|0.1342008709907532|XArbitraryZVertical|0.5569008042514819|0.6876916599138586|-0.2124974243177794|-0.4144715297228768|-0.3333772420883179|0.7539044618606567|0.5661166310310364|0|0|0|-1|-1|3
2021-03-10 21:16:08.623 +0000|291328.8430074167|-0.3409881591796875|0.684722900390625|0.701171875|291328.8230446667|-1.11999821732396|-2.608293826306338|-0.8517137376208443|0.0006706833373755217|0.3454619646072388|0.1218114197254181|-0.02240398526191711|-0.0359642505645752|0.1355947852134705|XArbitraryZVertical|0.5588726738167731|0.6864939419247661|-0.2101663908621408|-0.4149911534435571|-0.3348653316497803|0.752410352230072|0.5672252178192139|0|0|0|-1|-1|3
2021-03-10 21:16:08.643 +0000|291328.8629704167|-0.3344268798828125|0.6960296630859375|0.6763916015625|291328.8430074167|-1.123935597365013|-2.604414080161977|-0.8529971675491773|-0.02764084935188293|0.3429261147975922|0.1611761450767517|-0.006982713937759399|-0.06125372648239136|0.1425349712371826|XArbitraryZVertical|0.5606230758565688|0.6842861067715749|-0.2087761035174132|-0.4169735013387874|-0.3365689516067505|0.7532551288604736|0.5650914311408997|0|0|0|-1|-1|3
2021-03-10 21:16:08.663 +0000|291328.8829334167|-0.3309478759765625|0.6944427490234375|0.67510986328125|291328.8629704167|-1.129632265615934|-2.601763085035261|-0.8539663143287037|-0.08187694102525711|0.3587042391300201|0.2116251140832901|0.003065198659896851|-0.06060898303985596|0.1173527836799622|XArbitraryZVertical|0.562840417509185|0.6819062101993005|-0.207229437195922|-0.4186534002110489|-0.3376905024051666|0.753892183303833|0.5635708570480347|0|0|0|-1|-1|3
2021-03-10 21:16:08.683 +0000|291328.9028954167|-0.3205108642578125|0.675262451171875|0.6746978759765625|291328.8829334167|-1.137444972237581|-2.600054369771776|-0.854589768873067|-0.1301019191741943|0.4024452269077301|0.2635493874549866|0.003724336624145508|-0.05866855382919312|0.1105209589004517|XArbitraryZVertical|0.5656722472729974|0.6791980763953759|-0.2053581728288502|-0.4201584060088336|-0.3384107351303101|0.7543016672134399|0.5625902414321899|0|0|0|-1|-1|3
2021-03-10 21:16:08.703 +0000|291328.9228584167|-0.311004638671875|0.6761627197265625|0.6626739501953125|291328.9028954167|-1.148548465339596|-2.600767433913063|-0.8528750657268821|-0.1642639935016632|0.4533701241016388|0.2899580001831055|0.01555457711219788|-0.07327371835708618|0.1133528351783752|XArbitraryZVertical|0.5693726266841947|0.6765976237882139|-0.2025425333848507|-0.4207220160810575|-0.3386746942996979|0.7531747817993164|0.563939094543457|0|0|0|-1|-1|3
2021-03-10 21:16:08.723 +0000|291328.9428214167|-0.3202972412109375|0.7001953125|0.6511077880859375|291328.9228584167|-1.160848846413709|-2.601563709871076|-0.850727559008353|-0.1748760193586349|0.498675137758255|0.3106073439121246|0.02738034725189209|-0.07544511556625366|0.09944456815719604|XArbitraryZVertical|0.5734597202206669|0.6737515999854926|-0.1993265687945366|-0.4212738720891446|-0.3390563726425171|0.7517603635787964|0.5655945539474487|0|0|0|-1|-1|3
2021-03-10 21:16:08.743 +0000|291328.9627844167|-0.325927734375|0.6974029541015625|0.637298583984375|291328.9428214167|-1.173714995100949|-2.601802189492561|-0.8489700209662682|-0.165526881814003|0.5425741076469421|0.3485499322414398|0.02377364039421082|-0.05394500494003296|0.08478826284408569|XArbitraryZVertical|0.5777742625084766|0.6705079087475212|-0.1959852496910941|-0.4221206704569536|-0.3396000266075134|0.7506002187728882|0.5668079257011414|0|0|0|-1|-1|3
2021-03-10 21:16:08.763 +0000|291328.9827474167|-0.329437255859375|0.695892333984375|0.6193695068359375|291328.9627844167|-1.187122186781765|-2.601411645549351|-0.8481152447510821|-0.1499090492725372|0.5856318473815918|0.3900204002857208|0.01465076208114624|-0.05225062370300293|0.07501715421676636|XArbitraryZVertical|0.5823024486614464|0.666735754080609|-0.1926999943254759|-0.423384114104929|-0.340151309967041|0.7500351667404175|0.5672253966331482|0|0|0|-1|-1|3
2021-03-10 21:16:08.783 +0000|291329.0027104167|-0.339813232421875|0.725067138671875|0.6056060791015625|291328.9827474167|-1.201820713259331|-2.601392075433547|-0.8476620004507071|-0.158089816570282|0.6117176413536072|0.4454598724842072|0.01205956935882568|-0.05758142471313477|0.05471289157867432|XArbitraryZVertical|0.5871938894048628|0.6625393725742507|-0.1893992598219548|-0.4247033121187198|-0.3403371572494507|0.7497352957725525|0.567510187625885|0|0|0|-1|-1|3
2021-03-10 21:16:08.803 +0000|291329.0226734167|-0.347320556640625|0.7203216552734375|0.602264404296875|291329.0027104167|-1.218011627470799|-2.601827728864511|-0.8477945226384526|-0.1267191171646118|0.6610212922096252|0.5036004185676575|0.002453386783599854|-0.02895194292068481|0.03922325372695923|XArbitraryZVertical|0.5924958093193787|0.6578262016140002|-0.1861358863050044|-0.4261067058910989|-0.3400388360023499|0.7498229742050171|0.5675731897354126|0|0|0|-1|-1|3
2021-03-10 21:16:08.823 +0000|291329.0426364167|-0.3453826904296875|0.6968536376953125|0.6205596923828125|291329.0226734167|-1.235041185492146|-2.601535184416582|-0.849597275513991|-0.1086513251066208|0.7325292825698853|0.580049455165863|-0.007597655057907104|-0.02909070253372192|0.03408956527709961|XArbitraryZVertical|0.5980737534584617|0.6522763947196613|-0.1831162725623564|-0.4281492923957005|-0.3395092785358429|0.7510145306587219|0.5663134455680847|0|0|0|-1|-1|3
2021-03-10 21:16:08.843 +0000|291329.0625994167|-0.3643798828125|0.722259521484375|0.656341552734375|291329.0426364167|-1.253915999911594|-2.601094087660892|-0.8519645491213533|-0.1637178361415863|0.7970892190933228|0.628643810749054|-0.006890326738357544|-0.05238008499145508|0.05238217115402222|XArbitraryZVertical|0.6041992236452776|0.6459583278722068|-0.1798521989601014|-0.4305049163278245|-0.3388433456420898|0.7525755167007446|0.5646377205848694|0|0|0|-1|-1|3
