loggingTime(txt)|accelerometerTimestamp_sinceReboot(s)|accelerometerAccelerationX(G)|accelerometerAccelerationY(G)|accelerometerAccelerationZ(G)|motionTimestamp_sinceReboot(s)|motionYaw(rad)|motionRoll(rad)|motionPitch(rad)|motionRotationRateX(rad/s)|motionRotationRateY(rad/s)|motionRotationRateZ(rad/s)|motionUserAccelerationX(G)|motionUserAccelerationY(G)|motionUserAccelerationZ(G)|motionAttitudeReferenceFrame(txt)|motionQuaternionX(R)|motionQuaternionY(R)|motionQuaternionZ(R)|motionQuaternionW(R)|motionGravityX(G)|motionGravityY(G)|motionGravityZ(G)|motionMagneticFieldX(µT)|motionMagneticFieldY(µT)|motionMagneticFieldZ(µT)|motionHeading(°)|motionMagneticFieldCalibrationAccuracy(Z)|label
2021-03-03 00:34:25.989 +0000|217393.9256937917|-0.3067169189453125|0.1754608154296875|-0.908843994140625|217393.9057317917|-0.4928742250086722|-0.3130599995619834|-0.1891029721666359|-0.009236578829586506|0.1993488371372223|-0.04284572973847389|-0.1307616233825684|0.001185283064842224|0.02067804336547852|XArbitraryZVertical|-0.1282988562159524|-0.1277565320036606|-0.2256182843870979|0.957242957435823|-0.3024812042713165|0.1879779398441315|-0.9344353675842285|0|0|0|-1|-1|3
2021-03-03 00:34:25.991 +0000|217393.9456557917|-0.2931976318359375|0.1951751708984375|-0.9175872802734375|217393.9256937917|-0.4931106161692101|-0.3128622505288151|-0.1892235216862823|0.01164360251277685|-0.05205052345991135|-0.02220232784748077|0.08030453324317932|-0.03477601706981659|0.004709839820861816|XArbitraryZVertical|-0.1283488816890189|-0.1276313894756529|-0.2257336568124988|0.9572258458140167|-0.3022894561290741|0.1880963295698166|-0.9344735741615295|0|0|0|-1|-1|3
2021-03-03 00:34:25.992 +0000|217393.9656167917|-0.318145751953125|0.1890869140625|-0.9179840087890625|217393.9456557917|-0.4934944038224184|-0.3116638440257445|-0.1891857843127177|0.005933451931923628|0.04098418354988098|-0.02355903014540672|-0.02944070100784302|0.01611858606338501|0.02718812227249146|XArbitraryZVertical|-0.1282200692429872|-0.1270379950734647|-0.2259974930788721|0.9572596844002507|-0.3011715412139893|0.1880592703819275|-0.9348419308662415|0|0|0|-1|-1|3
2021-03-03 00:34:25.993 +0000|217393.9855787917|-0.29736328125|0.18292236328125|-0.9284515380859375|217393.9855787917|-0.4949885893333973|-0.3130415403130272|-0.1878645246465762|-0.0200058538466692|0.01891590096056461|-0.03591139242053032|-0.001480728387832642|-0.006463557481765747|0.008376955986022949|XArbitraryZVertical|-0.1278435777628139|-0.12776996874402|-0.226738578639008|0.9570374460758191|-0.3025354444980621|0.1867614239454269|-0.9346616864204407|0|0|0|-1|-1|3
2021-03-03 00:34:26.002 +0000|217394.0055407917|-0.29632568359375|0.1865386962890625|-0.929962158203125||||||||||||||||||||||||3
2021-03-03 00:34:26.022 +0000|217394.0255027917|-0.292938232421875|0.18084716796875|-0.9410400390625|217394.0055407917|-0.4954274207602463|-0.3108064498589325|-0.1880257938615426|-0.03350215405225754|0.01166800130158663|-0.03612648695707321|0.003042548894882202|-0.002944633364677429|0.007267355918884277|XArbitraryZVertical|-0.1276945105062846|-0.1266517777996637|-0.2270774462340616|0.9571256155316374|-0.300436407327652|0.1869198530912399|-0.9353069067001343|0|0|0|-1|-1|3
2021-03-03 00:34:26.042 +0000|217394.0454637917|-0.2922515869140625|0.182342529296875|-0.942962646484375|217394.0255027917|-0.4965266824302582|-0.3118995248186515|-0.189003891194448|-0.05037513002753258|0.00497931195423007|-0.02920102514326572|0.009349048137664795|-0.006468877196311951|-0.004680156707763672|XArbitraryZVertical|-0.128352943654756|-0.1269794774107461|-0.2274491400056765|0.9569058459158253|-0.3014023303985596|0.1878806203603745|-0.9348034858703613|0|0|0|-1|-1|3
2021-03-03 00:34:26.061 +0000|217394.0654257917|-0.2955322265625|0.19049072265625|-0.9381561279296875|217394.0454637917|-0.497339470394318|-0.3117939802185853|-0.1901042042107376|-0.05472515150904655|-0.001584261190146208|-0.02300731278955936|0.009736120700836182|-0.0113336443901062|-0.008431494235992432|XArbitraryZVertical|-0.1289149420584623|-0.1267358222056832|-0.2277497112703915|0.9567910159136582|-0.301240086555481|0.1889612227678299|-0.9346379637718201|0|0|0|-1|-1|3
2021-03-03 00:34:26.082 +0000|217394.0853877917|-0.2959747314453125|0.1943817138671875|-0.93212890625|217394.0654257917|-0.4980648259362561|-0.3120984359610635|-0.1907873186574261|-0.04116132482886314|0.008999887853860855|-0.01781849935650826|0.005037099123001099|-0.0008502453565597534|-0.005091011524200439|XArbitraryZVertical|-0.1293198812175652|-0.1267470178391388|-0.228017939738554|0.9566710549078619|-0.3014849126338959|0.1896319836378098|-0.9344231486320496|0|0|0|-1|-1|3
2021-03-03 00:34:26.101 +0000|217394.1053497917|-0.2909393310546875|0.185699462890625|-0.9328765869140625|217394.0853877917|-0.4985321830596507|-0.3119464600114092|-0.1912366577286011|-0.02754651010036469|0.0146754551678896|-0.01142273936420679|0.006242215633392334|0.007604464888572693|-9.101629257202148e-05|XArbitraryZVertical|-0.1295454449250737|-0.1265863796692291|-0.2282124365594502|0.9566153630614224|-0.3013167083263397|0.1900731474161148|-0.934387743473053|0|0|0|-1|-1|3
2021-03-03 00:34:26.121 +0000|217394.1253107917|-0.2982940673828125|0.1884765625|-0.9343414306640625|217394.1053497917|-0.4987645422767614|-0.3115796036166675|-0.1915252758580473|-0.02054149843752384|0.005020644050091505|-0.000964506296440959|0.01004821062088013|-0.003802552819252014|0.003186821937561035|XArbitraryZVertical|-0.1296552635937558|-0.1263587651628717|-0.2283223786414834|0.9566043168396061|-0.3009570837020874|0.190356507897377|-0.9344459772109985|0|0|0|-1|-1|3
2021-03-03 00:34:26.142 +0000|217394.1452727917|-0.2987213134765625|0.185577392578125|-0.93597412109375|217394.1253107917|-0.4988315470568931|-0.3113623569404316|-0.1915565075886215|-0.01100034080445766|0.002491280902177095|0.001884720870293677|0.004807978868484497|0.001568406820297241|0.001857995986938477|XArbitraryZVertical|-0.1296495109037084|-0.1262464955309775|-0.2283658060248641|0.9566095788489993|-0.3007522523403168|0.1903871595859528|-0.9345056414604187|0|0|0|-1|-1|3
2021-03-03 00:34:26.161 +0000|217394.1652347917|-0.307464599609375|0.185211181640625|-0.93670654296875|217394.1452727917|-0.4988815046254979|-0.3112321307583733|-0.1917300561195704|-0.01215959805995226|-0.00650386605411768|-0.002191513543948531|0.003043502569198608|-0.005422666668891907|-0.001750648021697998|XArbitraryZVertical|-0.1297201667265815|-0.1261586570430288|-0.2283831447707865|0.9566074491850025|-0.3006204068660736|0.1905575394630432|-0.9345133304595947|0|0|0|-1|-1|3
2021-03-03 00:34:26.181 +0000|217394.1851957917|-0.3072509765625|0.1907196044921875|-0.935333251953125|217394.1652347917|-0.4990261863796108|-0.3111825308793295|-0.1920565105306665|-0.01649805344641209|-1.15581788122654e-05|-0.007990989834070206|-0.005795747041702271|-0.006277173757553101|-0.0005743503570556641|XArbitraryZVertical|-0.1298785629391394|-0.1260835622265767|-0.228427342363405|0.9565853543750047|-0.300555020570755|0.1908779889345169|-0.9344689846038818|0|0|0|-1|-1|3
2021-03-03 00:34:26.201 +0000|217394.2051577917|-0.30413818359375|0.1871337890625|-0.9293365478515625|217394.1851957917|-0.4993089920153636|-0.3111400302393239|-0.1923014820017465|-0.01283202972263098|-0.001525831408798695|-0.01099503599107265|-0.004690110683441162|-0.00467132031917572|-0.001094400882720947|XArbitraryZVertical|-0.130007802676415|-0.1260133469044027|-0.2285441952987568|0.9565491097020926|-0.3005009591579437|0.1911184638738632|-0.9344372153282166|0|0|0|-1|-1|3
2021-03-03 00:34:26.221 +0000|217394.2251197917|-0.2978363037109375|0.1813201904296875|-0.9256439208984375|217394.2051577917|-0.4997676721810258|-0.3109800171298084|-0.1924544980166147|-0.01609818078577518|0.01380843669176102|-0.02360945381224155|-0.007015317678451538|0.001312509179115295|0.003839194774627686|XArbitraryZVertical|-0.1300910064329062|-0.1258872912422503|-0.2287607386581039|0.9565026722309042|-0.3003425002098083|0.191268652677536|-0.9344574213027954|0|0|0|-1|-1|3
2021-03-03 00:34:26.249 +0000|217394.2450817917|-0.294281005859375|0.1790008544921875|-0.9208831787109375|217394.2251197917|-0.5004370592692114|-0.3107658297484288|-0.1926143229178634|-0.03089288994669914|0.01752493157982826|-0.02854784205555916|2.306699752807617e-05|-0.008609980344772339|0.008696138858795166|XArbitraryZVertical|-0.1301844503205579|-0.1257207080525349|-0.2290809983568571|0.9564351689111733|-0.3001329898834229|0.1914255172014236|-0.9344926476478577|0|0|0|-1|-1|3
2021-03-03 00:34:26.261 +0000|217394.26504275|-0.2928924560546875|0.1856536865234375|-0.925537109375|217394.2450817917|-0.5013253083363546|-0.3105530926903684|-0.1930009689273874|-0.04521440342068672|0.02438102476298809|-0.03738820552825928|0.0030517578125|-0.01078999042510986|0.01416736841201782|XArbitraryZVertical|-0.1303993004668216|-0.1255112045225569|-0.2294862018616699|0.9563363556282639|-0.2999115288257599|0.1918050050735474|-0.934485912322998|0|0|0|-1|-1|3
2021-03-03 00:34:26.281 +0000|217394.28500475|-0.300506591796875|0.1927337646484375|-0.9326934814453125|217394.26504275|-0.5024544149068121|-0.3103966979409372|-0.1935603545948357|-0.05474868416786194|0.02101713418960571|-0.04723551124334335|0.00844225287437439|-0.008332997560501099|0.008664548397064209|XArbitraryZVertical|-0.1307175335386111|-0.1252903839385165|-0.2299879718472498|0.9562012444050748|-0.2997325658798218|0.1923539787530899|-0.9344304800033569|0|0|0|-1|-1|3
2021-03-03 00:34:26.301 +0000|217394.30496675|-0.3079071044921875|0.1966094970703125|-0.936553955078125|217394.28500475|-0.5037135170062546|-0.3103306704515136|-0.1942882919552732|-0.04972859472036362|0.02619591727852821|-0.05130339786410332|-0.0009396374225616455|-0.003309980034828186|0.002340435981750488|XArbitraryZVertical|-0.1311340327518838|-0.1250820385341241|-0.2305313301634376|0.9560406197094514|-0.2996280193328857|0.193068265914917|-0.9343166947364807|0|0|0|-1|-1|3
2021-03-03 00:34:26.321 +0000|217394.32492875|-0.304229736328125|0.17425537109375|-0.9303131103515625|217394.30496675|-0.5051549292429061|-0.3100510071361468|-0.1945582750617113|-0.04259912669658661|0.04142658784985542|-0.06854648143053055|-0.006587982177734375|0.002864345908164978|-0.004141032695770264|XArbitraryZVertical|-0.1313198325055154|-0.1248187010738672|-0.231215314523971|0.9558843798223081|-0.2993507981300354|0.19333316385746|-0.9343507885932922|0|0|0|-1|-1|3
2021-03-03 00:34:26.341 +0000|217394.34488975|-0.3030548095703125|0.1625823974609375|-0.9209747314453125|217394.32492875|-0.5069961117738069|-0.3093985907413008|-0.1947606756724953|-0.05957659706473351|0.0577617809176445|-0.08741266280412674|-0.009437322616577148|-0.01549218595027924|0.002929031848907471|XArbitraryZVertical|-0.1314549258935351|-0.1243595773797484|-0.2321205996475836|0.9557062182360219|-0.2987292408943176|0.1935317367315292|-0.9345086216926575|0|0|0|-1|-1|3
2021-03-03 00:34:26.361 +0000|217394.36485175|-0.3019256591796875|0.1426544189453125|-0.912628173828125|217394.34488975|-0.5093554416378235|-0.3085922770944743|-0.1953182622044706|-0.09245297312736511|0.06126698106527328|-0.1110656186938286|-0.004639029502868652|-0.02673561871051788|0.01228296756744385|XArbitraryZVertical|-0.1317717603765228|-0.1237461065008771|-0.2332528561497174|0.9554665596624399|-0.2979428172111511|0.1940787583589554|-0.9346461892127991|0|0|0|-1|-1|3
2021-03-03 00:34:26.381 +0000|217394.38481375|-0.31146240234375|0.1385955810546875|-0.9127960205078125|217394.36485175|-0.5125046994345647|-0.3078966955947307|-0.1967637114950003|-0.1516675800085068|0.06941193342208862|-0.1390912234783173|-0.005496621131896973|-0.04687590897083282|0.02238398790359497|XArbitraryZVertical|-0.1325695883817341|-0.1230156440725248|-0.2346785492385781|0.9551013418880266|-0.2972072958946228|0.1954965144395828|-0.93458491563797|0|0|0|-1|-1|3
2021-03-03 00:34:26.401 +0000|217394.40477575|-0.3235015869140625|0.1510772705078125|-0.907806396484375|217394.38481375|-0.5168657052880405|-0.3074161368636567|-0.1994170103468228|-0.2385476976633072|0.07677558064460754|-0.1873282641172409|-0.01197841763496399|-0.06058570742607117|0.02297508716583252|XArbitraryZVertical|-0.1340367517744468|-0.1221440901729461|-0.2365639713193317|0.9545430902084154|-0.2966001331806183|0.1980979293584824|-0.9342299699783325|0|0|0|-1|-1|3
2021-03-03 00:34:26.421 +0000|217394.42473675|-0.314910888671875|0.1287689208984375|-0.8924713134765625|217394.40477575|-0.5228706622771915|-0.3070358469332906|-0.2031835020080116|-0.3294894099235535|0.1110826283693314|-0.2477375566959381|-0.02585172653198242|-0.05449526011943817|0.02186638116836548|XArbitraryZVertical|-0.1361386407228141|-0.1210531807238307|-0.2391293359565856|0.9537450013599486|-0.2960172295570374|0.2017883658409119|-0.933624804019928|0|0|0|-1|-1|3
2021-03-03 00:34:26.441 +0000|217394.44469875|-0.3177947998046875|0.0946502685546875|-0.87371826171875|217394.42473675|-0.5306938635979542|-0.3062947239312495|-0.2081519415838458|-0.4520377516746521|0.1384440064430237|-0.3115057647228241|-0.01963227987289429|-0.07144394516944885|0.03614801168441772|XArbitraryZVertical|-0.1388675990011631|-0.1194886682695901|-0.2424789030760305|0.9527026137142316|-0.295019268989563|0.2066520899534225|-0.9328764677047729|0|0|0|-1|-1|3
2021-03-03 00:34:26.461 +0000|217394.46466075|-0.3263397216796875|0.111480712890625|-0.8668670654296875|217394.44469875|-0.5406953533791345|-0.3056475820746338|-0.2151911201648112|-0.6224642992019653|0.1737345606088638|-0.3829815685749054|-0.02147451043128967|-0.114764004945755|0.05090433359146118|XArbitraryZVertical|-0.1427017326404542|-0.1175065047887196|-0.246673613483812|0.9513046812995215|-0.2939704656600952|0.2135341465473175|-0.9316568970680237|0|0|0|-1|-1|3
2021-03-03 00:34:26.481 +0000|217394.48462275|-0.330780029296875|0.17108154296875|-0.8728179931640625|217394.46466075|-0.5529511523570972|-0.3046600780749544|-0.2246335562688038|-0.7867782711982727|0.2197239995002747|-0.4244248867034912|-0.03239670395851135|-0.1204999983310699|0.0585065484046936|XArbitraryZVertical|-0.1477351836014376|-0.1148191275787619|-0.2517444126950149|0.9495344331935177|-0.2924324572086334|0.2227491438388824|-0.9299817681312561|0|0|0|-1|-1|3
2021-03-03 00:34:26.501 +0000|217394.50458375|-0.335723876953125|0.2626190185546875|-0.8784332275390625|217394.48462275|-0.5669007012518569|-0.3035889483528156|-0.2370893312834851|-0.957472562789917|0.2681341171264648|-0.4286997020244598|-0.03867006301879883|-0.08193553984165192|0.0549246072769165|XArbitraryZVertical|-0.1542349709480126|-0.111463922564956|-0.2573441023962653|0.9473971592295996|-0.2905841171741486|0.2348743826150894|-0.9275747537612915|0|0|0|-1|-1|3
2021-03-03 00:34:26.521 +0000|217394.52454575|-0.2991180419921875|0.2886810302734375|-0.8876190185546875|217394.50458375|-0.5814703846406506|-0.3011928543624899|-0.2536039854299328|-1.042684078216553|0.3220539093017578|-0.4415513873100281|-0.04400601983070374|-0.008783102035522461|0.04598921537399292|XArbitraryZVertical|-0.1624452047915731|-0.1067367069113072|-0.2629601396331939|0.9450241708246327|-0.2871707677841187|0.2508942782878876|-0.9244376420974731|0|0|0|-1|-1|3
2021-03-03 00:34:26.541 +0000|217394.54450775|-0.287811279296875|0.303955078125|-0.8802947998046875|217394.52454575|-0.5966779422834776|-0.2983057325663686|-0.2713192261366389|-1.090866088867188|0.3398741185665131|-0.441012978553772|-0.02381137013435364|0.01376616954803467|0.03735518455505371|XArbitraryZVertical|-0.1711116618677726|-0.1014199296193964|-0.2687894128520252|0.9424367664936381|-0.2831497490406036|0.2680026292800903|-0.9208695888519287|0|0|0|-1|-1|3
2021-03-03 00:34:26.561 +0000|217394.56446875|-0.28936767578125|0.2860107421875|-0.8672027587890625|217394.54450775|-0.6122669687341862|-0.2961072814790033|-0.2899990060789435|-1.132390379905701|0.3159226477146149|-0.4387797713279724|-0.008898437023162842|0.01524195075035095|0.03449147939682007|XArbitraryZVertical|-0.1802568691000463|-0.09610907696761732|-0.2746256199693972|0.9396016475570722|-0.2796148061752319|0.2859512865543365|-0.9165410399436951|0|0|0|-1|-1|3
2021-03-03 00:34:26.581 +0000|217394.58443075|-0.2730712890625|0.32666015625|-0.8787384033203125|217394.56446875|-0.6278936335230505|-0.2950090258446658|-0.3080154958670597|-1.168658018112183|0.3384758234024048|-0.4186885952949524|-0.0110209584236145|-0.01051983237266541|0.04037082195281982|XArbitraryZVertical|-0.1891668506757699|-0.09127444448509671|-0.2804028838638711|0.9366211910983897|-0.2770650088787079|0.3031681180000305|-0.9117697477340698|0|0|0|-1|-1|3
2021-03-03 00:34:26.601 +0000|217394.60439275|-0.2860260009765625|0.36016845703125|-0.8963775634765625|217394.58443075|-0.643578324569963|-0.2939925803152019|-0.326388737253437|-1.116561770439148|0.3127934336662292|-0.4152750670909882|0.001299351453781128|-0.01711192727088928|0.0326494574546814|XArbitraryZVertical|-0.1981762374433207|-0.08627366049838156|-0.2861215937769426|0.9334974632979336|-0.274477481842041|0.3206245005130768|-0.9065660834312439|0|0|0|-1|-1|3
2021-03-03 00:34:26.621 +0000|217394.62435475|-0.2687530517578125|0.37249755859375|-0.89947509765625|217394.60439275|-0.65869372350088|-0.2926436766331727|-0.3444832865973975|-1.043482184410095|0.3152122497558594|-0.41548091173172|-0.01131612062454224|0.02778339385986328|0.006289243698120117|XArbitraryZVertical|-0.2069042825399488|-0.08108272907826491|-0.2915885595782836|0.9303721350114156|-0.2715360522270203|0.3377103805541992|-0.9012324213981628|0|0|0|-1|-1|3
2021-03-03 00:34:26.641 +0000|217394.64431575|-0.2720794677734375|0.38348388671875|-0.878875732421875|217394.62435475|-0.6738778509037973|-0.2918238641849073|-0.3621662524406053|-1.063274741172791|0.282503068447113|-0.4193934500217438|-0.006079167127609253|0.01288673281669617|-0.002995193004608154|XArbitraryZVertical|-0.2154439082448626|-0.07606899899858|-0.297025982644971|0.927131650009691|-0.2690368294715881|0.3543007969856262|-0.8955948352813721|0|0|0|-1|-1|3
2021-03-03 00:34:26.661 +0000|217394.66427775|-0.2556915283203125|0.39190673828125|-0.8508148193359375|217394.64431575|-0.6891604789329357|-0.2918882818268978|-0.3802972689653919|-1.083595395088196|0.2747537195682526|-0.4200938642024994|-0.005228579044342041|0.01301977038383484|0.001049160957336426|XArbitraryZVertical|-0.2242433407819714|-0.07124357306437154|-0.3023160796459361|0.9237123166475566|-0.2672018706798553|0.3711965084075928|-0.8892785310745239|0|0|0|-1|-1|3
2021-03-03 00:34:26.680 +0000|217394.68423975|-0.2200164794921875|0.364166259765625|-0.8300628662109375|217394.66427775|-0.7047663141995741|-0.2920462460374659|-0.3984409596171413|-1.068437576293945|0.2973591387271881|-0.4418531060218811|-0.000891268253326416|0.003848552703857422|0.02621060609817505|XArbitraryZVertical|-0.2329933612468513|-0.06628560153566404|-0.3076819552770879|0.9201370867911202|-0.2653593719005585|0.3879818916320801|-0.8826406002044678|0|0|0|-1|-1|3
2021-03-03 00:34:26.700 +0000|217394.70420175|-0.2273406982421875|0.3807373046875|-0.815582275390625|217394.68423975|-0.7205992889664067|-0.2929007244527705|-0.4166853637601048|-1.127442002296448|0.2290628999471664|-0.4195241034030914|0.0373256504535675|-0.03246298432350159|0.04313838481903076|XArbitraryZVertical|-0.2418207058847097|-0.06146320903039991|-0.3129928992660593|0.9163953832687672|-0.2640255391597748|0.4047316610813141|-0.8754900693893433|0|0|0|-1|-1|3
2021-03-03 00:34:26.720 +0000|217394.72416275|-0.24139404296875|0.364349365234375|-0.8026275634765625|217394.70420175|-0.7364515570824823|-0.2960449704685546|-0.4361629973536176|-1.162664175033569|0.1270509511232376|-0.4264102578163147|0.03868809342384338|-0.05425494909286499|0.04132729768753052|XArbitraryZVertical|-0.2514771557696089|-0.05730898029189378|-0.3178217968966168|0.9123947827013538|-0.2644266784191132|0.4224648177623749|-0.8669498562812805|0|0|0|-1|-1|3
2021-03-03 00:34:26.762 +0000|217394.74412475|-0.2869415283203125|0.4141082763671875|-0.7957000732421875|217394.74412475|-0.7734049564985156|-0.3082643659131039|-0.4774476221978682|-1.252832770347595|0.1787981986999512|-0.5086338520050049|-0.006235420703887939|-0.06794267892837524|0.03346800804138184|XArbitraryZVertical|-0.2726626305799054|-0.05003229180539986|-0.3284752110812963|0.9029151920529627|-0.2694756686687469|0.4595137238502502|-0.8463037014007568|0|0|0|-1|-1|3
2021-03-03 00:34:26.763 +0000|217394.76408675|-0.2388763427734375|0.4480133056640625|-0.7763214111328125||||||||||||||||||||||||3
2021-03-03 00:34:26.781 +0000|217394.78404875|-0.2167205810546875|0.3778839111328125|-0.762420654296875|217394.76408675|-0.793009441291001|-0.3125038840481228|-0.4960029308744214|-1.053350210189819|0.2641404569149017|-0.5965620279312134|0.01254984736442566|-0.03807824850082397|0.04253792762756348|XArbitraryZVertical|-0.2819244620095557|-0.04550821851109672|-0.3345847636447693|0.8980538074986343|-0.2703929245471954|0.4759139716625214|-0.836895227432251|0|0|0|-1|-1|3
2021-03-03 00:34:26.800 +0000|217394.80400975|-0.2675628662109375|0.3717193603515625|-0.7248992919921875|217394.78404875|-0.8151084017585443|-0.3180821649526017|-0.5112541340871757|-1.004338622093201|0.2095016688108444|-0.7259244322776794|0.05891850590705872|-0.08784317970275879|0.07455289363861084|XArbitraryZVertical|-0.2899451698733836|-0.04171804154476866|-0.3418807665880381|0.8929215713284403|-0.2727552354335785|0.4892714023590088|-0.8283827900886536|0|0|0|-1|-1|3
2021-03-03 00:34:26.821 +0000|217394.82397175|-0.2688446044921875|0.32098388671875|-0.685791015625|217394.80400975|-0.8394126551063589|-0.326450256217257|-0.5263950667593484|-1.147486567497253|0.1864824295043945|-0.815281867980957|0.01878607273101807|-0.125848114490509|0.08177763223648071|XArbitraryZVertical|-0.2983685628454437|-0.0386794040463703|-0.3496212406869429|0.8872683814779881|-0.2772699892520905|0.5024197101593018|-0.8189601898193359|0|0|0|-1|-1|3
2021-03-03 00:34:26.840 +0000|217394.84393375|-0.2877960205078125|0.3607940673828125|-0.6588287353515625|217394.82397175|-0.867899244452603|-0.3364122796483741|-0.544780808004525|-1.3737872838974|0.2700007259845734|-0.901448130607605|0.01190096139907837|-0.1924249529838562|0.1178778409957886|XArbitraryZVertical|-0.308448471766205|-0.03477535619783408|-0.3583748122122091|0.8804645089970707|-0.2823172509670258|0.5182306170463562|-0.8073004484176636|0|0|0|-1|-1|3
2021-03-03 00:34:26.860 +0000|217394.86389575|-0.3057861328125|0.47161865234375|-0.6911468505859375|217394.84393375|-0.8997998629231146|-0.3474257071456145|-0.5654447885733508|-1.480222463607788|0.3275201618671417|-0.9771097302436829|0.006049960851669312|-0.1875248551368713|0.1251859664916992|XArbitraryZVertical|-0.3196100311470208|-0.02997045051981501|-0.3679061551382765|0.872694844448355|-0.2874830961227417|0.5357913970947266|-0.7939023971557617|0|0|0|-1|-1|3
2021-03-03 00:34:26.880 +0000|217394.88385675|-0.4103851318359375|0.6233367919921875|-0.72027587890625|217394.86389575|-0.9345739788626385|-0.3601378873035885|-0.5858102411652515|-1.437346816062927|0.2488064169883728|-1.043373465538025|-0.001871883869171143|-0.137194812297821|0.09595590829849243|XArbitraryZVertical|-0.330853809556196|-0.02512468644766844|-0.3781389901108929|0.8642426646663747|-0.2936451137065887|0.5528746843338013|-0.7798089981079102|0|0|0|-1|-1|3
2021-03-03 00:34:26.900 +0000|217394.90381875|-0.4350433349609375|0.6713104248046875|-0.7428131103515625|217394.88385675|-0.9705070758170004|-0.3755257522032143|-0.6042623147989931|-1.327162384986877|0.2795561850070953|-1.078654885292053|-0.08223244547843933|0.04094517230987549|0.05225825309753418|XArbitraryZVertical|-0.341700114765017|-0.02128359095156931|-0.3883485896593108|0.8555544082774665|-0.3018160462379456|0.5681551694869995|-0.7655760645866394|0|0|0|-1|-1|3
2021-03-03 00:34:26.920 +0000|217394.92378075|-0.40380859375|0.6375274658203125|-0.766387939453125|217394.90381875|-1.006812382541227|-0.3898914978958171|-0.6189517467423543|-1.162294149398804|0.3496389091014862|-1.130653142929077|-0.1274807155132294|0.08357566595077515|0.0168488621711731|XArbitraryZVertical|-0.3507340402593739|-0.01748095260977468|-0.3991122308700452|0.8469885247914194|-0.3095768094062805|0.5801817178726196|-0.7533600926399231|0|0|0|-1|-1|3
2021-03-03 00:34:26.940 +0000|217394.94374275|-0.4203033447265625|0.648223876953125|-0.777069091796875|217394.92378075|-1.043327416584783|-0.4046424153484958|-0.6305798786691383|-1.077301979064941|0.290494829416275|-1.160276532173157|-0.09201058745384216|0.05281227827072144|-0.01394897699356079|XArbitraryZVertical|-0.3585623949482953|-0.01425450734785672|-0.4100726342092568|0.8384928146482794|-0.3179778456687927|0.5896131992340088|-0.7424596548080444|0|0|0|-1|-1|3
2021-03-03 00:34:26.960 +0000|217394.96370375|-0.4728240966796875|0.689178466796875|-0.8160858154296875|217394.94374275|-1.080797716060921|-0.4223263897617671|-0.6418644504118381|-1.19680917263031|0.1845391094684601|-1.137879967689514|-0.07969588041305542|0.04999172687530518|-0.04432779550552368|XArbitraryZVertical|-0.366819697426469|-0.01186588594640189|-0.4206692575587544|0.8296625037005743|-0.3283089101314545|0.59868985414505|-0.7306050062179565|0|0|0|-1|-1|3
2021-03-03 00:34:26.980 +0000|217394.98366575|-0.4883270263671875|0.7356414794921875|-0.8038482666015625|217394.96370375|-1.119706564884285|-0.4426207520725662|-0.6572006714266455|-1.506873726844788|0.1689131706953049|-1.022077202796936|-0.1192183494567871|0.06074309349060059|-0.09014660120010376|XArbitraryZVertical|-0.3771160591778234|-0.008841237296498758|-0.4303636085461788|0.8200564299670394|-0.3390946686267853|0.6109030246734619|-0.7154106497764587|0|0|0|-1|-1|3
2021-03-03 00:34:27.000 +0000|217395.00362775|-0.4617156982421875|0.7657318115234375|-0.7770233154296875|217394.98366575|-1.159074235787382|-0.4625339657742863|-0.6788300161641985|-1.739999890327454|0.2893604338169098|-0.8202305436134338|-0.1431078910827637|0.100312352180481|-0.1131349205970764|XArbitraryZVertical|-0.3895191672149744|-0.003369594346478447|-0.4387938422014723|0.8097675466894586|-0.3472943902015686|0.6278828382492065|-0.6965269446372986|0|0|0|-1|-1|3
2021-03-03 00:34:27.020 +0000|217395.02358875|-0.425567626953125|0.7418060302734375|-0.7289886474609375|217395.00362775|-1.196774540508921|-0.47947178628444|-0.704494793612097|-1.858305931091309|0.4208512902259827|-0.6116980910301208|-0.1170917153358459|0.1154736280441284|-0.1045569181442261|XArbitraryZVertical|-0.4024519661684475|0.004645921545623474|-0.4459154759794468|0.7994812465729829|-0.3514904677867889|0.6476489901542664|-0.6760216355323792|0|0|0|-1|-1|3
2021-03-03 00:34:27.040 +0000|217395.04355075|-0.362945556640625|0.7077484130859375|-0.704803466796875|217395.04355075|-1.265507809643045|-0.5040777167668276|-0.7642324706003639|-1.949153780937195|0.5765702724456787|-0.2727736532688141|-0.02532383799552917|0.01178270578384399|-0.08211106061935425|XArbitraryZVertical|-0.4280334029776821|0.02694938902690307|-0.4563936929992683|0.7795934212796533|-0.3486843705177307|0.6919831037521362|-0.632122278213501|0|0|0|-1|-1|3
2021-03-03 00:34:27.060 +0000|217395.06351275|-0.3116607666015625|0.7025909423828125|-0.6076812744140625||||||||||||||||||||||||3
2021-03-03 00:34:27.080 +0000|217395.08347475|-0.277496337890625|0.716217041015625|-0.5391387939453125|217395.06351275|-1.299211467235732|-0.5154781519921217|-0.7981427492454446|-2.145626544952393|0.6297978758811951|-0.1867060512304306|0.02090191841125488|-0.004787743091583252|-0.003461360931396484|XArbitraryZVertical|-0.4412646394665394|0.04023868985678757|-0.4600632853668662|0.769420600387663|-0.3440983593463898|0.7160608768463135|-0.607332706451416|0|0|0|-1|-1|3
2021-03-03 00:34:27.100 +0000|217395.10343575|-0.2557525634765625|0.776947021484375|-0.487701416015625|217395.08347475|-1.336249583290212|-0.5297602365936859|-0.8358477986029955|-2.345749855041504|0.6300051808357239|-0.1427912414073944|0.05539888143539429|-0.03814518451690674|0.02954822778701782|XArbitraryZVertical|-0.455711909654086|0.0548526130500302|-0.4630422540806075|0.7582280591479238|-0.3388461470603943|0.7418652772903442|-0.5786356925964355|0|0|0|-1|-1|3
2021-03-03 00:34:27.120 +0000|217395.12339775|-0.2487335205078125|0.8434295654296875|-0.5071258544921875|217395.10343575|-1.376443509708589|-0.5478927319898553|-0.8755176872493836|-2.385518550872803|0.5835757255554199|-0.07856662571430206|0.07322925329208374|-0.002891123294830322|0.03727912902832031|XArbitraryZVertical|-0.4708392592877009|0.06996313361517134|-0.4652423024460757|0.7463009962199838|-0.333681583404541|0.7678752541542053|-0.5468311309814453|0|0|0|-1|-1|3
2021-03-03 00:34:27.140 +0000|217395.14335975|-0.2650146484375|0.8297882080078125|-0.4598541259765625|217395.12339775|-1.417372776893313|-0.5690725080621887|-0.914983168943775|-2.324310541152954|0.4827619194984436|-0.02016705274581909|0.08471217751502991|0.03282606601715088|0.008297979831695557|XArbitraryZVertical|-0.4857719839305619|0.0847103124913506|-0.4662936265482653|0.734452159976639|-0.3285934031009674|0.7925523519515991|-0.513699471950531|0|0|0|-1|-1|3
2021-03-03 00:34:27.160 +0000|217395.16332175|-0.25311279296875|0.8176727294921875|-0.3994293212890625|217395.14335975|-1.460344540755009|-0.5943295819517743|-0.9532472621618903|-2.249530553817749|0.4757810235023499|-0.0248298030346632|0.06294319033622742|0.02346032857894897|0.01365262269973755|XArbitraryZVertical|-0.5003750218294536|0.0987473900837371|-0.4665960541914114|0.7226078177830781|-0.3242347538471222|0.8153001070022583|-0.4797475934028625|0|0|0|-1|-1|3
2021-03-03 00:34:27.180 +0000|217395.18328275|-0.2419281005859375|0.842315673828125|-0.3878936767578125|217395.16332175|-1.505905672157396|-0.6225055065467914|-0.9898553794469463|-2.27564811706543|0.4831042587757111|0.01889157854020596|0.06161937117576599|-0.01426088809967041|0.02504277229309082|XArbitraryZVertical|-0.5142033946168705|0.1125274063399636|-0.4666915661939275|0.7107259915723073|-0.3199964761734009|0.8359466195106506|-0.4458649158477783|0|0|0|-1|-1|3
2021-03-03 00:34:27.200 +0000|217395.20324475|-0.2507476806640625|0.8816680908203125|-0.43450927734375|217395.18328275|-1.557314104004977|-0.6560512608899597|-1.027162779498274|-2.341598987579346|0.5013327598571777|0.007016987539827824|0.07281193137168884|-0.02868640422821045|0.03348350524902344|XArbitraryZVertical|-0.5281673571406039|0.126898452590228|-0.4664252480768463|0.6981287196071096|-0.3155182600021362|0.8558349013328552|-0.4098720550537109|0|0|0|-1|-1|3
2021-03-03 00:34:27.220 +0000|217395.22320675|-0.261993408203125|0.9024505615234375|-0.40875244140625|217395.20324475|-1.612638057485768|-0.6943942636301353|-1.062551081635757|-2.134484767913818|0.4496031105518341|0.04645343124866486|0.06329077482223511|-0.003085911273956299|-0.05749925971031189|XArbitraryZVertical|-0.5414792505606913|0.1407874337729003|-0.46580928134599|0.6855660742921217|-0.3114139437675476|0.8735997676849365|-0.3739582300186157|0|0|0|-1|-1|3
2021-03-03 00:34:27.263 +0000|217395.24316875|-0.2546844482421875|0.9347381591796875|-0.396636962890625|217395.24316875|-1.718938985249296|-0.7722412961862891|-1.120594701369038|-1.576079726219177|0.3663491308689117|0.06193491816520691|0.0482189953327179|0.0114905834197998|-0.08405014872550964|XArbitraryZVertical|-0.5630531454445254|0.1646592107743471|-0.4637729083763988|0.6639075084160648|-0.3036206066608429|0.9003593921661377|-0.3117170035839081|0|0|0|-1|-1|3
2021-03-03 00:34:27.264 +0000|217395.263129875|-0.25628662109375|0.97967529296875|-0.3784332275390625||||||||||||||||||||||||3
2021-03-03 00:34:27.280 +0000|217395.283091875|-0.267669677734375|0.9831695556640625|-0.3545379638671875|217395.263129875|-1.762450973301731|-0.8050887210184977|-1.140831005098163|-1.163634181022644|0.2857036888599396|0.07071926444768906|0.04604056477546692|0.07370108366012573|-0.09314495325088501|XArbitraryZVertical|-0.5704770862887095|0.1735258718805123|-0.462878383799998|0.6558873907817585|-0.3004961609840393|0.9089801907539368|-0.2888893187046051|0|0|0|-1|-1|3
2021-03-03 00:34:27.299 +0000|217395.303053875|-0.2698516845703125|0.98614501953125|-0.3532257080078125|217395.283091875|-1.791944762364079|-0.8268573059316622|-1.153965888260828|-0.6484558582305908|0.2252693921327591|0.04383101686835289|0.03122407197952271|0.05359506607055664|-0.08026039600372314|XArbitraryZVertical|-0.57500294199545|0.179683767509647|-0.462358267768619|0.650622951502366|-0.2979019582271576|0.9143767952919006|-0.2741707265377045|0|0|0|-1|-1|3
2021-03-03 00:34:27.319 +0000|217395.323015875|-0.2776031494140625|0.9788665771484375|-0.3306427001953125|217395.303053875|-1.80846239610775|-0.838573057196726|-1.161082433697234|-0.3405354619026184|0.1154406815767288|0.04800019413232803|0.02674585580825806|0.08607631921768188|-0.09259718656539917|XArbitraryZVertical|-0.5772887893740639|0.1832628040790479|-0.4622013159522343|0.6477054686517026|-0.2962466478347778|0.9172348380088806|-0.2663047909736633|0|0|0|-1|-1|3
2021-03-03 00:34:27.339 +0000|217395.342976875|-0.3365478515625|1.03564453125|-0.34423828125|217395.323015875|-1.817602729484091|-0.8461501364059179|-1.166078574381396|-0.3053908944129944|-0.03657899796962738|0.1013932898640633|0.0205746591091156|0.05005514621734619|-0.07613155245780945|XArbitraryZVertical|-0.5789286213538339|0.1852996338360082|-0.4614552882276983|0.646192425042539|-0.2948209047317505|0.919213593006134|-0.2610113918781281|0|0|0|-1|-1|3
2021-03-03 00:34:27.359 +0000|217395.362938875|-0.353424072265625|1.036346435546875|-0.3300323486328125|217395.342976875|-1.826718656869984|-0.8561778201526432|-1.172791140385965|-0.4185106754302979|-0.1081511825323105|0.1711884438991547|-0.02912795543670654|0.1066827178001404|-0.08490490913391113|XArbitraryZVertical|-0.5813462856306294|0.1871900158037376|-0.4594476368844985|0.6449064659263934|-0.2927562594413757|0.9218359589576721|-0.2539927959442139|0|0|0|-1|-1|3
2021-03-03 00:34:27.379 +0000|217395.382900875|-0.314544677734375|1.0081787109375|-0.3308258056640625|217395.362938875|-1.838608428220906|-0.8694093792248263|-1.18228922580509|-0.5513837337493896|-0.1149318069219589|0.2525342404842377|-0.06580516695976257|0.1135563254356384|-0.0899452418088913|XArbitraryZVertical|-0.5845643112022297|0.189912178915344|-0.4565139050041909|0.6432829516269944|-0.2893889248371124|0.9254755973815918|-0.2444358617067337|0|0|0|-1|-1|3
2021-03-03 00:34:27.399 +0000|217395.402861875|-0.2860107421875|0.91070556640625|-0.3427734375|217395.382900875|-1.852201459779784|-0.8845737095331552|-1.194287695016547|-0.6177912354469299|-0.1456381529569626|0.3547569215297699|-0.04077523946762085|0.08913469314575195|-0.1049240082502365|XArbitraryZVertical|-0.5882887732697971|0.1934761907197837|-0.4527352216104824|0.641493646464395|-0.2844505906105042|0.9299539923667908|-0.2329665720462799|0|0|0|-1|-1|3
2021-03-03 00:34:27.419 +0000|217395.422823875|-0.250396728515625|0.8604278564453125|-0.3309173583984375|217395.402861875|-1.866071207345497|-0.9005312438138564|-1.20873665542537|-0.6466907262802124|-0.153510719537735|0.4565576910972595|-0.01724278926849365|0.0030784010887146|-0.115955650806427|XArbitraryZVertical|-0.5923285655921277|0.1978207777611734|-0.4479773102097543|0.6397891930798734|-0.2775723338127136|0.9351692795753479|-0.2200276255607605|0|0|0|-1|-1|3
2021-03-03 00:34:27.439 +0000|217395.442785875|-0.2524566650390625|0.920074462890625|-0.3199310302734375|217395.422823875|-1.878573228083834|-0.9149913976226309|-1.224641836484953|-0.661463737487793|-0.1202918961644173|0.5312848091125488|0.009105145931243896|-0.06986516714096069|-0.1291350424289703|XArbitraryZVertical|-0.5961687689249945|0.202819623300837|-0.4426896945443187|0.6383360771736809|-0.2689013779163361|0.9406843781471252|-0.2068939954042435|0|0|0|-1|-1|3
2021-03-03 00:34:27.459 +0000|217395.462747875|-0.2689361572265625|0.9186248779296875|-0.2515869140625|217395.442785875|-1.886739024797987|-0.9249939369190262|-1.240580625904185|-0.5164480209350586|-0.09796187281608582|0.5671358704566956|0.01265725493431091|-0.04999154806137085|-0.1279905438423157|XArbitraryZVertical|-0.5993080880761386|0.2079841911431168|-0.4372684376108127|0.6374706063002509|-0.2589493989944458|0.9459724426269531|-0.1951447874307632|0|0|0|-1|-1|3
2021-03-03 00:34:27.479 +0000|217395.482708875|-0.2691192626953125|0.9263153076171875|-0.2439422607421875|217395.462747875|-1.883910318910114|-0.9227952625863288|-1.253774722852331|-0.3283498883247375|0.01778341643512249|0.5882076025009155|-0.02093933522701263|-0.02205228805541992|-0.08094082772731781|XArbitraryZVertical|-0.6005552856797716|0.2127246651496246|-0.4328331511353646|0.6377593822158875|-0.2485461682081223|0.9501681327819824|-0.1881631314754486|0|0|0|-1|-1|3
2021-03-03 00:34:27.500 +0000|217395.502670875|-0.25616455078125|0.894012451171875|-0.2197113037109375|217395.482708875|-1.870801400735178|-0.9080046838955562|-1.26395285208093|-0.2514510452747345|0.1626128852367401|0.559634268283844|-0.03109546005725861|-0.02876174449920654|-0.05883185565471649|XArbitraryZVertical|-0.5998870254061888|0.2172706428143181|-0.4298457836926481|0.6388753025982896|-0.2381001263856888|0.9532917737960815|-0.1858580559492111|0|0|0|-1|-1|3
2021-03-03 00:34:27.519 +0000|217395.522632875|-0.2513275146484375|0.857086181640625|-0.21722412109375|217395.502670875|-1.85169040958914|-0.8850966589314185|-1.272753081374053|-0.2266606390476227|0.2389795631170273|0.5778716802597046|-0.02925209701061249|-0.06277006864547729|-0.03744466602802277|XArbitraryZVertical|-0.5980763451371002|0.2221096115417577|-0.4277930411585793|0.6402853366293784|-0.2272787392139435|0.9559129476547241|-0.1859440058469772|0|0|0|-1|-1|3
2021-03-03 00:34:27.539 +0000|217395.542594875|-0.24298095703125|0.8214569091796875|-0.2071533203125|217395.522632875|-1.835966646659662|-0.8638992876433216|-1.283486657986955|-0.4294354021549225|0.3241229057312012|0.6129235625267029|-0.03700017929077148|-0.07416772842407227|-0.04128181934356689|XArbitraryZVertical|-0.5966016542753723|0.2281317756897504|-0.4256745758366742|0.6409552452340203|-0.2154717892408371|0.9590097069740295|-0.1840447187423706|0|0|0|-1|-1|3
2021-03-03 00:34:27.559 +0000|217395.562555875|-0.195159912109375|0.8953857421875|-0.1846923828125|217395.542594875|-1.83420843321661|-0.854416088291622|-1.29768840307235|-0.6943221092224121|0.4345889091491699|0.6014322638511658|-0.04477579891681671|-0.1625374555587769|-0.02899795770645142|XArbitraryZVertical|-0.5965147395477712|0.2358204757851636|-0.4234209129843083|0.6397449796340647|-0.2034236937761307|0.9629372358322144|-0.1771177351474762|0|0|0|-1|-1|3
2021-03-03 00:34:27.579 +0000|217395.582517875|-0.1483306884765625|0.9197998046875|-0.1053619384765625|217395.562555875|-1.848095371697236|-0.8584391549372027|-1.314120481031493|-0.7809119820594788|0.4999690353870392|0.5590764880180359|-0.01717281341552734|-0.07263177633285522|-0.0397258847951889|XArbitraryZVertical|-0.5976404530786716|0.2446627582263772|-0.4213964506459494|0.6367031991408205|-0.1921320110559464|0.9672392010688782|-0.1659320443868637|0|0|0|-1|-1|3
2021-03-03 00:34:27.599 +0000|217395.602479875|-0.126495361328125|1.031768798828125|-0.1490478515625|217395.582517875|-1.869323786382492|-0.8681618827538231|-1.32959272337565|-0.8123978972434998|0.5917086601257324|0.4596742987632751|0.02334241569042206|-0.06931775808334351|0.03579021990299225|XArbitraryZVertical|-0.5987692245564739|0.2535592207977423|-0.420241724379544|0.6329139944175659|-0.1822932660579681|0.9710511565208435|-0.1543662697076797|0|0|0|-1|-1|3
2021-03-03 00:34:27.619 +0000|217395.622440875|-0.13177490234375|1.02471923828125|-0.1398162841796875|217395.602479875|-1.896287130390659|-0.8820660003820777|-1.342569938422521|-0.6062517762184143|0.5995159149169922|0.3036670982837677|0.04487121105194092|0.02988296747207642|0.01302759349346161|XArbitraryZVertical|-0.5995553108060167|0.2619842134428275|-0.4203665115552195|0.628641272613914|-0.174677774310112|0.9740691781044006|-0.1437954008579254|0|0|0|-1|-1|3
2021-03-03 00:34:27.639 +0000|217395.642402875|-0.1395416259765625|0.9863128662109375|-0.101531982421875|217395.622440875|-1.916728859771511|-0.8908208416917111|-1.349930384456286|-0.4683442711830139|0.522892951965332|0.2302385270595551|0.04251179099082947|0.06962579488754272|0.001075565814971924|XArbitraryZVertical|-0.5993927227336378|0.268056156390408|-0.421745973226402|0.6253036378733686|-0.1703499555587769|0.9757081270217896|-0.1377485245466232|0|0|0|-1|-1|3
2021-03-03 00:34:27.659 +0000|217395.662364875|-0.188232421875|0.9581451416015625|0.0386810302734375|217395.642402875|-1.945101278377769|-0.908131253583999|-1.357155430585168|-0.6673120260238647|0.505007266998291|0.08103848248720169|0.02972671389579773|0.004439413547515869|0.007483884692192078|XArbitraryZVertical|-0.5998395355871811|0.2738118505478684|-0.4230279277134789|0.6215039935035437|-0.1671474277973175|0.977265477180481|-0.1304392069578171|0|0|0|-1|-1|3
2021-03-03 00:34:27.678 +0000|217395.682326875|-0.2024383544921875|0.966156005859375|0.0194244384765625|217395.662364875|-2.027094054261431|-0.9787839642429552|-1.369737162456849|-1.501430034637451|0.4957350790500641|-0.03142112866044044|0.001063555479049683|0.01405614614486694|0.1392294764518738|XArbitraryZVertical|-0.6042730467306288|0.2813049740404523|-0.4229094730568603|0.6138967574438932|-0.1657211631536484|0.9798555970191956|-0.1114431917667389|0|0|0|-1|-1|3
2021-03-03 00:34:27.699 +0000|217395.702287875|-0.1419830322265625|1.186660766601562|-0.0207061767578125|217395.682326875|-2.196304636939331|-1.132468672967003|-1.386341978025659|-2.017292022705078|0.7406728863716125|-0.1418523043394089|-0.04744510352611542|-0.04939693212509155|0.1187986135482788|XArbitraryZVertical|-0.6129059550775597|0.2922742901033321|-0.4219484824549102|0.6007341603637346|-0.1660711765289307|0.9830364584922791|-0.07784406095743179|0|0|0|-1|-1|3
2021-03-03 00:34:27.718 +0000|217395.722249875|-0.1721343994140625|1.069320678710938|0.034271240234375|217395.702287875|-2.405247107934776|-1.324194001261117|-1.3957751856731|-1.794358849525452|0.6026738286018372|-0.209744781255722|0.02104955911636353|0.1621582508087158|0.02421152591705322|XArbitraryZVertical|-0.6218842598058543|0.3033258411728562|-0.4216261776504802|0.5860757981545015|-0.1688614934682846|0.9847228527069092|-0.04250680282711983|0|0|0|-1|-1|3
2021-03-03 00:34:27.738 +0000|217395.742211875|-0.2103118896484375|1.14849853515625|0.17108154296875|217395.722249875|-2.578985582390224|-1.484873390274245|-1.396891886922922|-1.205829858779907|0.4795825779438019|-0.1959073692560196|0.01371505856513977|0.1024246215820312|0.01935029029846191|XArbitraryZVertical|-0.6289536566818974|0.3114367301438756|-0.4214230141449491|0.5743058133934736|-0.1723912358283997|0.9849166870117188|-0.01484892144799232|0|0|0|-1|-1|3
2021-03-03 00:34:27.758 +0000|217395.762173875|-0.2013702392578125|1.110336303710938|0.2200927734375|217395.742211875|-2.697450962754942|-1.59183607568766|-1.393963595330254|-0.8257896304130554|0.5123296976089478|-0.1313964575529099|-0.02918827533721924|0.1401365995407104|0.1392586231231689|XArbitraryZVertical|-0.6333310071104007|0.3173992560950835|-0.4222737431054903|0.5655392203429109|-0.175874650478363|0.9844058156013489|0.003700904780998826|0|0|0|-1|-1|3
2021-03-03 00:34:27.779 +0000|217395.782134875|-0.1627960205078125|0.917327880859375|0.262451171875|217395.762173875|-2.778171968442523|-1.660193364827002|-1.391312065828851|-0.7180238962173462|0.5863605737686157|-0.06626885384321213|-0.0288090854883194|0.1739469170570374|0.2031475305557251|XArbitraryZVertical|-0.6353373470737318|0.3229791784796414|-0.424002453259959|0.5587960236356725|-0.1778102219104767|0.9839358925819397|0.01593818888068199|0|0|0|-1|-1|3
2021-03-03 00:34:27.798 +0000|217395.802096875|-0.165924072265625|0.8828582763671875|0.2450103759765625|217395.782134875|-2.85704436752314|-1.725943328454419|-1.388456360547096|-0.7890611886978149|0.6028062105178833|-0.04897410795092583|0.006271138787269592|-0.05204087495803833|0.2028299570083618|XArbitraryZVertical|-0.6370097647522706|0.3289813003734836|-0.425721024270386|0.5520430008438129|-0.179153248667717|0.9834221005439758|0.02802027203142643|0|0|0|-1|-1|3
2021-03-03 00:34:27.819 +0000|217395.822058875|-0.1496734619140625|0.9145965576171875|0.240753173828125|217395.802096875|-2.952427261114134|-1.808579977095786|-1.384636462143432|-0.840570330619812|0.5502132177352905|-0.01375637855380774|0.0251397043466568|-0.08256047964096069|0.2341891527175903|XArbitraryZVertical|-0.6395936691583097|0.3357357437071314|-0.4263949410979813|0.544416107200085|-0.1798791140317917|0.9827222228050232|0.04359710216522217|0|0|0|-1|-1|3
2021-03-03 00:34:27.838 +0000|217395.842020875|-0.1664276123046875|0.905303955078125|0.2758636474609375|217395.822058875|-3.019818193797999|-1.864465942123874|-1.382160533582218|-0.5893573760986328|0.438616156578064|0.1806604266166687|0.02359265089035034|-0.09178841114044189|0.1698708534240723|XArbitraryZVertical|-0.640692018337079|0.3415466387955108|-0.4272930682505324|0.5387767613744414|-0.1794917285442352|0.9822609424591064|0.05428073927760124|0|0|0|-1|-1|3
2021-03-03 00:34:27.858 +0000|217395.861981875|-0.152130126953125|1.097412109375|0.337738037109375|217395.842020875|-3.091295981431755|-1.927276247342111|-1.385229373995243|-0.5579032897949219|0.3664597570896149|0.5088880658149719|0.01479309797286987|-0.1037271618843079|0.1928905248641968|XArbitraryZVertical|-0.6409954318202234|0.3483084696122565|-0.425746830591442|0.535299719452355|-0.1729047000408173|0.9828317761421204|0.06438786536455154|0|0|0|-1|-1|3
2021-03-03 00:34:27.878 +0000|217395.881943875|-0.0830535888671875|0.631378173828125|0.21307373046875|217395.861981875|3.098495332930477|-2.010690638926424|-1.391207511723845|-0.8551563024520874|0.4798475503921509|0.7006995677947998|-0.007188156247138977|0.1065827012062073|0.2632583379745483|XArbitraryZVertical|-0.6406284040569198|0.3572513903198402|-0.422877228160002|0.5321105528343503|-0.1616198569536209|0.983917236328125|0.07606661319732666|0|0|0|-1|-1|3
2021-03-03 00:34:27.898 +0000|217395.901905875|-0.0950775146484375|0.592010498046875|0.1605377197265625|217395.881943875|2.944695832214257|-2.153065722485665|-1.393760029267209|-1.287005662918091|0.4545328915119171|0.8167279362678528|0.05325095355510712|-0.2185924053192139|0.1532586812973022|XArbitraryZVertical|-0.6418754904140763|0.3693507076855057|-0.4175535200631951|0.5265215726593653|-0.1470925062894821|0.9843699336051941|0.09684818238019943|0|0|0|-1|-1|3
2021-03-03 00:34:27.918 +0000|217395.921867875|-0.058746337890625|1.480255126953125|0.512969970703125|217395.901905875|2.781058220610265|-2.30610182405459|-1.390314169635346|-1.085207462310791|0.2945454120635986|0.711692750453949|0.04910986125469208|-0.5125811100006104|0.01976870745420456|XArbitraryZVertical|-0.6439499359205964|0.3814909458236849|-0.4114731625259994|0.5200797832034098|-0.1331247836351395|0.9837572574615479|0.1204137206077576|0|0|0|-1|-1|3
2021-03-03 00:34:27.938 +0000|217395.941828875|0.1160888671875|1.3958740234375|0.6116790771484375|217395.921867875|2.630448338709538|-2.449912892109903|-1.385437022281967|-1.017234683036804|0.1275864988565445|0.8917406797409058|0.03484921157360077|0.3086642026901245|0.2918188571929932|XArbitraryZVertical|-0.6457079757825324|0.3924698432697502|-0.4042681251158528|0.5153599025555597|-0.117551863193512|0.9828701019287109|0.1419427394866943|0|0|0|-1|-1|3
2021-03-03 00:34:27.958 +0000|217395.961790875|0.0562286376953125|1.444747924804688|0.514495849609375|217395.941828875|2.493346810891878|-2.583041641292174|-1.386809433585364|0.02370492555201054|0.02891495265066624|1.259955525398254|0.160600870847702|0.500108540058136|0.4663891792297363|XArbitraryZVertical|-0.6446704807748855|0.4024593263166253|-0.3966349077011003|0.5148857346103891|-0.09695649892091751|0.9831221103668213|0.1551470756530762|0|0|0|-1|-1|3
2021-03-03 00:34:27.978 +0000|217395.981752875|-0.01556396484375|1.01947021484375|0.555084228515625|217395.961790875|2.431223586956472|-2.647291242969061|-1.408754022200068|0.9536113739013672|-0.1638191342353821|0.8343155384063721|0.1635454446077347|0.4714589715003967|0.3661404848098755|XArbitraryZVertical|-0.6376494374710623|0.4054807848635853|-0.3931396736330401|0.5238604806339922|-0.07653986662626266|0.9868998527526855|0.1420229375362396|0|0|0|-1|-1|3
2021-03-03 00:34:27.998 +0000|217396.001713875|-0.00482177734375|1.099365234375|0.565338134765625|217395.981752875|2.430189406807908|-2.64742233875325|-1.435038063395426|1.294145345687866|0.2773410379886627|0.4239636957645416|0.04191479831933975|0.09611505270004272|0.3910585641860962|XArbitraryZVertical|-0.6288223712436329|0.4051631882572048|-0.3947649774949412|0.5334658469024016|-0.06419265270233154|0.9907990097999573|0.1191495656967163|0|0|0|-1|-1|3
2021-03-03 00:34:28.018 +0000|217396.021675875|0.027130126953125|0.9177093505859375|0.4425811767578125|217396.001713875|2.534857611202517|-2.535298268990609|-1.464180354311058|1.870285511016846|0.5225332379341125|0.1240839585661888|0.04551684856414795|0.1023578643798828|0.4792019128799438|XArbitraryZVertical|-0.6178384117821788|0.4024921837213404|-0.4024755810286539|0.5424843575927136|-0.06063831970095634|0.994321882724762|0.08744852244853973|0|0|0|-1|-1|3
2021-03-03 00:34:28.038 +0000|217396.041637875|0.04486083984375|0.8438720703125|0.345611572265625|217396.021675875|2.831431665544357|-2.228076699107695|-1.49653416274506|2.197171211242676|0.638055682182312|0.08611411601305008|0.09000250697135925|-0.05368608236312866|0.4305754899978638|XArbitraryZVertical|-0.6034983231692137|0.3980643287056265|-0.4136633311664746|0.5533690603595256|-0.05873728543519974|0.9972438216209412|0.04533087089657784|0|0|0|-1|-1|3
2021-03-03 00:34:28.058 +0000|217396.061599875|-0.020172119140625|0.925445556640625|0.3404693603515625|217396.041637875|-2.896923076382775|-1.661402159350273|-1.514315703120228|1.664767265319824|0.5885798931121826|0.2056403309106827|0.1040117368102074|-0.1359327435493469|0.3528785705566406|XArbitraryZVertical|-0.5891779150289588|0.394237700502331|-0.4245647154980257|0.5631970770769321|-0.05622126534581184|0.998405396938324|0.005107960198074579|0|0|0|-1|-1|3
2021-03-03 00:34:28.078 +0000|217396.081560875|0.0306549072265625|0.6717071533203125|0.2440643310546875|217396.061599875|-2.44887197109405|-1.203836044924883|-1.514836553976012|0.7225433588027954|0.52173912525177|0.1891444623470306|0.04595377296209335|-0.09126895666122437|0.3532130718231201|XArbitraryZVertical|-0.5792384989127499|0.39299973696515|-0.4312814771885205|0.5692367198629226|-0.05220991000533104|0.9984346628189087|-0.02006793580949306|0|0|0|-1|-1|3
2021-03-03 00:34:28.098 +0000|217396.101522875|0.0394134521484375|0.6902618408203125|0.287139892578125|217396.081560875|-2.370128411350463|-1.11332745130765|-1.518058504085317|-0.4793316125869751|0.6089898943901062|0.2814839482307434|0.05835679545998573|-0.2499982118606567|0.2916240096092224|XArbitraryZVertical|-0.574999760042227|0.3971571487361877|-0.4339016417853074|0.5686571116968868|-0.04729420691728592|0.9986096620559692|-0.02328295074403286|0|0|0|-1|-1|3
2021-03-03 00:34:28.118 +0000|217396.121484875|0.0167999267578125|0.9018707275390625|0.3096466064453125|217396.101522875|-2.840875026226565|-1.5707141891589|-1.527443315803854|-1.941333174705505|0.705702006816864|0.08807020634412766|0.08351609110832214|-0.3463656902313232|0.2749974727630615|XArbitraryZVertical|-0.57819546886358|0.4070481788122701|-0.4317260874188303|0.560012837362086|-0.04333972558379173|0.9990603923797607|-3.559822516763234e-06|0|0|0|-1|-1|3
2021-03-03 00:34:28.138 +0000|217396.141446875|0.004547119140625|1.105194091796875|0.2254638671875|217396.121484875|2.565281730764069|-2.430776705912717|-1.504026108905602|-3.004335880279541|0.900128960609436|-0.07109042257070541|0.06565731763839722|-0.1513513922691345|0.268269419670105|XArbitraryZVertical|-0.5888928886783297|0.4224768063435841|-0.4256490687106914|0.5417946038857757|-0.0435321107506752|0.997771680355072|0.05056297406554222|0|0|0|-1|-1|3
2021-03-03 00:34:28.158 +0000|217396.161407875|-0.049591064453125|0.7002105712890625|-0.2259674072265625|217396.141446875|2.244263628539106|-2.731498188628464|-1.449250555332023|-3.096667289733887|0.8893967866897583|-0.2016179859638214|0.05215537920594215|0.08300018310546875|0.1645632982254028|XArbitraryZVertical|-0.6019661101310696|0.4395834339550914|-0.4188647483168448|0.5186092561832125|-0.04834068939089775|0.9926223754882812|0.1111935898661613|0|0|0|-1|-1|3
2021-03-03 00:34:28.178 +0000|217396.181369875|-0.22900390625|0.628662109375|-0.35040283203125|217396.161407875|2.127796704872474|-2.83234010343813|-1.396387219317015|-2.428870677947998|0.525992214679718|-0.05752338841557503|0.02937477827072144|-0.151317834854126|-0.284069299697876|XArbitraryZVertical|-0.6136302586461898|0.4539882875239259|-0.4114908332399514|0.498024013764059|-0.05281231552362442|0.9848292469978333|0.1652949154376984|0|0|0|-1|-1|3
2021-03-03 00:34:28.198 +0000|217396.201331875|-0.333160400390625|0.8894500732421875|-0.1256256103515625|217396.181369875|2.046790034206858|-2.907437791502736|-1.353499302561453|-2.218433141708374|-0.04366002231836319|0.4747925996780396|-0.1257443726062775|-0.4141363501548767|-0.5931305885314941|XArbitraryZVertical|-0.6230638724510481|0.4654517301761452|-0.4014793846245459|0.4836945546429948|-0.05002166703343391|0.9764837622642517|0.2097078114748001|0|0|0|-1|-1|3
2021-03-03 00:34:28.218 +0000|217396.221292875|-0.1552276611328125|1.437896728515625|0.1065673828125|217396.201331875|1.951615451962394|-3.002181880112623|-1.310902369474236|-1.987888216972351|-0.114928662776947|0.9121560454368591|-0.3003195226192474|-0.08326911926269531|-0.4362778961658478|XArbitraryZVertical|-0.6311500164115191|0.4784265566193774|-0.3865314385661869|0.4726003393349835|-0.03570954129099846|0.9664172530174255|0.254484623670578|0|0|0|-1|-1|3
2021-03-03 00:34:28.238 +0000|217396.241254875|-0.0301513671875|2.20904541015625|0.0674896240234375|217396.221292875|1.870604744517641|-3.081675758603338|-1.293935535689321|0.2631223797798157|-0.09240923821926117|1.083616971969604|-0.1896564364433289|0.2614095211029053|-0.1810352504253387|XArbitraryZVertical|-0.631139763245761|0.4879408630833365|-0.3768633770910648|0.4706914309720998|-0.01636775955557823|0.9619182348251343|0.2728473842144012|0|0|0|-1|-1|3
2021-03-03 00:34:28.258 +0000|217396.261216875|0.0509185791015625|1.740310668945312|0.0463714599609375|217396.241254875|1.79001667773878|3.120810292838311|-1.329077443469132|3.327476263046265|-0.1965849548578262|0.9633730053901672|-0.06130984425544739|1.112690448760986|-0.145250529050827|XArbitraryZVertical|-0.6181609665431159|0.4873782539025395|-0.379348188542327|0.4862453908166523|0.004974373150616884|0.9709279537200928|0.2393210828304291|0|0|0|-1|-1|3
2021-03-03 00:34:28.278 +0000|217396.281179125|0.141082763671875|0.510528564453125|0.1231536865234375|217396.261216875|1.658258557310452|2.986037317244229|-1.414750140757896|4.83942174911499|-0.2665601968765259|0.8555715084075928|0.02569600939750671|1.03392481803894|-0.1269569396972656|XArbitraryZVertical|-0.5928469752048636|0.4746592094236736|-0.3941068898943125|0.5176011482762494|0.02407814934849739|0.9878494739532471|0.1535377949476242|0|0|0|-1|-1|3
2021-03-03 00:34:28.297 +0000|217396.301140125|-0.0032196044921875|1.129150390625|0.1403045654296875|217396.281179125|1.319629864232351|2.647813280077429|-1.485238400195641|2.772353887557983|0.130374938249588|0.9845560193061829|0.04395591840147972|-0.2676587104797363|0.03611253947019577|XArbitraryZVertical|-0.5684558998474233|0.4631209004540588|-0.40772393380867|0.5441857514293954|0.0405014380812645|0.9963421821594238|0.07524615526199341|0|0|0|-1|-1|3
2021-03-03 00:34:28.317 +0000|217396.321102125|0.11431884765625|1.068008422851562|0.2568359375|217396.301140125|0.8896131594736969|2.216526004412513|-1.504086158862113|0.8352054357528687|-0.01896868459880352|0.457782119512558|-0.02206587791442871|-0.127719521522522|0.0506744384765625|XArbitraryZVertical|-0.5563791568160986|0.4588026941846156|-0.4116474239922888|0.5572151651087804|0.05323954299092293|0.997775673866272|0.0401153564453125|0|0|0|-1|-1|3
2021-03-03 00:34:28.337 +0000|217396.341064125|0.2202301025390625|0.955474853515625|0.2261962890625|217396.321102125|0.6528641313488763|1.98197435767091|-1.504470797135633|0.8406365513801575|0.2020643055438995|0.2475821971893311|0.000509411096572876|0.2044540643692017|0.1939375400543213|XArbitraryZVertical|-0.5504449993402953|0.4585365762854726|-0.4131417832278247|0.562199703336019|0.06075459718704224|0.9978012442588806|0.02649097889661789|0|0|0|-1|-1|3
2021-03-03 00:34:28.357 +0000|217396.361026125|0.098480224609375|0.8238983154296875|0.2290191650390625|217396.341064125|0.3793203261743604|1.711830730052091|-1.508658997273217|0.8069140315055847|0.004577813670039177|-0.1257582902908325|0.1503246128559113|-0.03287535905838013|0.2426594495773315|XArbitraryZVertical|-0.5446042242638884|0.4558188188344426|-0.4178083579536675|0.566631918440184|0.06148258969187737|0.9980701208114624|0.008729113265872002|0|0|0|-1|-1|3
2021-03-03 00:34:28.377 +0000|217396.380987125|0.01824951171875|0.812957763671875|0.03436279296875|217396.361026125|0.2111289821675801|1.540598141741788|-1.514376047047424|0.2097740024328232|-0.2184994220733643|-0.360000878572464|0.08476248383522034|-0.1506761908531189|0.2294400930404663|XArbitraryZVertical|-0.5435570522722289|0.4513251558866354|-0.4206851451331945|0.5691005370860766|0.05636602267622948|0.9984087944030762|-0.001702669193036854|0|0|0|-1|-1|3
2021-03-03 00:34:28.397 +0000|217396.400949125|0.0345306396484375|0.8921661376953125|-0.102508544921875|217396.380987125|0.2157710891020987|1.543815756711043|-1.523159053230913|-0.2461231201887131|0.06865917146205902|-0.5419889688491821|-0.02398071065545082|-0.1964821815490723|0.09303569793701172|XArbitraryZVertical|-0.5459698230738964|0.4486364246257709|-0.4226815931307171|0.567435063313611|0.04760128632187843|0.99886554479599|-0.001284621539525688|0|0|0|-1|-1|3
2021-03-03 00:34:28.417 +0000|217396.420911125|-0.00830078125|1.02618408203125|-0.1031646728515625|217396.400949125|0.4246052137857933|1.754037907034727|-1.535436703451437|-0.4855625331401825|0.03639592975378036|-0.6822871565818787|-0.003464553505182266|-0.131470263004303|-0.09331011772155762|XArbitraryZVertical|-0.5506819763042123|0.4471803421648177|-0.4250210439350142|0.5622599146056042|0.03476030379533768|0.9993749260902405|0.00644179480150342|0|0|0|-1|-1|3
2021-03-03 00:34:28.437 +0000|217396.440873125|-0.0671844482421875|0.9839019775390625|-0.0375213623046875|217396.420911125|0.8583601992399507|2.186183277150365|-1.542745299521487|-0.5206859707832336|-0.1620979309082031|-0.5317758917808533|-0.0088768620043993|-0.0108676552772522|-0.1335294246673584|XArbitraryZVertical|-0.5563729981165546|0.4455824802743427|-0.4257734507922208|0.5573349329974124|0.02289966121315956|0.9996066093444824|0.01618932001292706|0|0|0|-1|-1|3
2021-03-03 00:34:28.457 +0000|217396.460834125|-0.12841796875|0.82745361328125|0.0129241943359375|217396.440873125|1.400502538035589|2.726649569580997|-1.539074542001725|-0.8461126685142517|0.04171575233340263|-0.4939075410366058|-0.06985539197921753|0.03390467166900635|-0.06270420551300049|XArbitraryZVertical|-0.5625092656714782|0.4450813135549567|-0.4253181425356586|0.5518972123206449|0.01278747990727425|0.9994968771934509|0.02902809903025627|0|0|0|-1|-1|3
2021-03-03 00:34:28.477 +0000|217396.480796125|-0.14111328125|0.813995361328125|-0.0446014404296875|217396.460834125|1.765382133342767|3.095439404165089|-1.518562157620303|-1.508726596832275|0.4025475084781647|-0.58860182762146|-0.1094797551631927|-0.1706942915916443|-0.056411512196064|XArbitraryZVertical|-0.5702211847927909|0.4482465503623261|-0.424140853314722|0.542242881966263|0.002408802742138505|0.9986361265182495|0.05215433984994888|0|0|0|-1|-1|3
2021-03-03 00:34:28.497 +0000|217396.500758125|-0.05755615234375|0.7614898681640625|-0.247589111328125|217396.480796125|1.933901795398484|-3.006098011136354|-1.482957445605913|-1.871352434158325|0.9563776850700378|-0.7890634536743164|-0.1352599561214447|-0.1644185781478882|-0.09127068519592285|XArbitraryZVertical|-0.5797020311545209|0.4554190450625983|-0.4237036211305054|0.5263214681636827|-0.01185005903244019|0.9961446523666382|0.08692190051078796|0|0|0|-1|-1|3
2021-03-03 00:34:28.517 +0000|217396.520719125|-0.0716094970703125|0.9095916748046875|-0.2980804443359375|217396.500758125|2.044042103546154|-2.875038321810339|-1.444132675945706|-1.70270037651062|1.068985939025879|-1.08530580997467|-0.04419382661581039|-0.2242887616157532|-0.3144752085208893|XArbitraryZVertical|-0.5887574172758592|0.4629216227015318|-0.4267935138439133|0.5068683379114848|-0.0332750678062439|0.9919888973236084|0.1218634471297264|0|0|0|-1|-1|3
2021-03-03 00:34:28.537 +0000|217396.540681125|-0.1177520751953125|1.077346801757812|-0.01422119140625|217396.520719125|2.126517308670628|-2.776427471897271|-1.411860665232013|-0.9674816727638245|0.6255820393562317|-0.9754747152328491|9.104609489440918e-05|-0.17144775390625|-0.4718530178070068|XArbitraryZVertical|-0.5967736775511963|0.4666663256331491|-0.4308233727889483|0.4903825301999047|-0.0565180703997612|0.9873962998390198|0.1478325575590134|0|0|0|-1|-1|3
2021-03-03 00:34:28.557 +0000|217396.560643125|-0.0540008544921875|0.9911651611328125|0.0782928466796875|217396.540681125|2.178510506298099|-2.716363118336568|-1.392213966227616|-0.4701350331306458|0.3592084646224976|-0.6427438855171204|-0.03846028447151184|0.1227914094924927|-0.2278558015823364|XArbitraryZVertical|-0.6021011202275267|0.467313768122959|-0.433806912881591|0.4805244483339046|-0.07327987253665924|0.9840965270996094|0.1618158370256424|0|0|0|-1|-1|3
2021-03-03 00:34:28.577 +0000|217396.580605125|-0.0379638671875|1.1566162109375|-0.0108795166015625|217396.560643125|2.227586941167346|-2.661959479961039|-1.383274692452627|-0.1398550122976303|0.198442205786705|-0.5160439610481262|0.01081549376249313|-0.01873958110809326|-0.1018358916044235|XArbitraryZVertical|-0.6045359038937773|0.46608014101109|-0.4375495117420161|0.4752430750543734|-0.08602605760097504|0.9824692606925964|0.1653887182474136|0|0|0|-1|-1|3
2021-03-03 00:34:28.597 +0000|217396.600566125|0.0391845703125|1.20611572265625|-0.0460968017578125|217396.580605125|2.261622289074861|-2.626603646539553|-1.376267917753862|-0.1218106225132942|0.02361451648175716|-0.4130294620990753|0.05304712802171707|0.150285005569458|-0.1567423492670059|XArbitraryZVertical|-0.6069374316007441|0.4644815260270805|-0.4395579001644463|0.4718821584283305|-0.09520719945430756|0.9811389446258545|0.168232262134552|0|0|0|-1|-1|3
2021-03-03 00:34:28.617 +0000|217396.620528125|0.085601806640625|1.232513427734375|-0.073577880859375|217396.600566125|2.29063175134143|-2.599625138283595|-1.371854898971711|-0.05805190652608871|-0.1873594522476196|-0.2941137254238129|0.1209100335836411|0.2061099410057068|-0.2183375209569931|XArbitraryZVertical|-0.609135223033522|0.462179387204202|-0.440567838284163|0.4703664849777196|-0.1019433885812759|0.980276346206665|0.1693110167980194|0|0|0|-1|-1|3
2021-03-03 00:34:28.637 +0000|217396.640490125|0.14129638671875|1.18701171875|-0.0955047607421875|217396.620528125|2.303728209104886|-2.592770803564015|-1.367410829248071|-0.1807087659835815|-0.3851505517959595|-0.1646899580955505|0.1842758059501648|0.2527741193771362|-0.2387591749429703|XArbitraryZVertical|-0.6120712571717258|0.4599238966500451|-0.4392474872849401|0.4700004528916248|-0.1053726449608803|0.9793883562088013|0.1723224222660065|0|0|0|-1|-1|3
2021-03-03 00:34:28.657 +0000|217396.660452125|0.178558349609375|1.244537353515625|-0.09661865234375|217396.640490125|2.302220070310939|-2.603357650647792|-1.36329177571155|-0.1196498051285744|-0.5334805846214294|-0.01078997272998095|0.230197548866272|0.2227764129638672|-0.2683212757110596|XArbitraryZVertical|-0.6153596465276215|0.4580151269613678|-0.4360453285364462|0.4705519448950537|-0.1056095808744431|0.9785480499267578|0.1768907010555267|0|0|0|-1|-1|3
2021-03-03 00:34:28.677 +0000|217396.680413125|0.211334228515625|1.221603393554688|-0.0779571533203125|217396.660452125|2.29560560975858|-2.622356698597348|-1.364041326955813|0.1217374205589294|-0.7190371751785278|0.165551945567131|0.2758466005325317|0.2472651600837708|-0.2735192775726318|XArbitraryZVertical|-0.6177319152216786|0.4555451206475949|-0.431808420097232|0.4737376882452454|-0.1018659025430679|0.978702187538147|0.1782281547784805|0|0|0|-1|-1|3
2021-03-03 00:34:28.697 +0000|217396.700375125|0.2291107177734375|1.214675903320312|-0.0384368896484375|217396.680413125|2.289100785106927|-2.644947419694248|-1.371655786745827|0.4571682512760162|-0.9095126986503601|0.3081524074077606|0.2980114817619324|0.2509644031524658|-0.2625507116317749|XArbitraryZVertical|-0.6186795363955925|0.4518844176796205|-0.4270033721766037|0.4803170210509621|-0.09426093846559525|0.9802369475364685|0.1739277839660645|0|0|0|-1|-1|3
2021-03-03 00:34:28.717 +0000|217396.720337125|0.232666015625|1.1689453125|0.00042724609375|217396.700375125|2.284100678267104|-2.670164652985552|-1.385142214997421|0.7231972813606262|-1.120420932769775|0.3989901840686798|0.3130202293395996|0.235018789768219|-0.2038227319717407|XArbitraryZVertical|-0.618600207106192|0.4467228893468326|-0.4215753213055241|0.4899457036833615|-0.0838332399725914|0.9828157424926758|0.1644551157951355|0|0|0|-1|-1|3
2021-03-03 00:34:28.737 +0000|217396.740298125|0.249908447265625|1.170852661132812|0.008331298828125|217396.720337125|2.282960619286936|-2.695207273626346|-1.405599508552369|1.049572229385376|-1.270407795906067|0.5462527275085449|0.299630880355835|0.1955904364585876|-0.1637297719717026|XArbitraryZVertical|-0.6170300760642405|0.4398189703137524|-0.4159385279589384|0.5028204639410065|-0.07099320739507675|0.9863860011100769|0.1483336836099625|0|0|0|-1|-1|3
2021-03-03 00:34:28.757 +0000|217396.760260125|0.25726318359375|1.235580444335938|0.032684326171875|217396.740298125|2.27173559535785|-2.733321906485658|-1.432289911653196|1.278038740158081|-1.431702017784119|0.7256611585617065|0.3019307851791382|0.1710605025291443|-0.1208878755569458|XArbitraryZVertical|-0.6138348757315293|0.4319318405358263|-0.409546195427163|0.5185687978581873|-0.05481472611427307|0.990423321723938|0.1267167329788208|0|0|0|-1|-1|3
2021-03-03 00:34:28.777 +0000|217396.780222125|0.266143798828125|1.22149658203125|0.04425048828125|217396.760260125|2.229994331367509|-2.80477507146017|-1.462927147299942|1.364460349082947|-1.589218139648438|0.8724456429481506|0.2868163287639618|0.2302385568618774|-0.07365763187408447|XArbitraryZVertical|-0.6094864651437853|0.423476245987656|-0.4018663268603764|0.5363745625000923|-0.03558040037751198|0.9941877722740173|0.1016117632389069|0|0|0|-1|-1|3
2021-03-03 00:34:28.797 +0000|217396.800184125|0.253509521484375|1.225662231445312|0.0224456787109375|217396.780222125|2.114614610110941|-2.952985281972554|-1.495194534178333|1.462477803230286|-1.741560816764832|0.9854281544685364|0.279725581407547|0.2279084920883179|-0.03114783018827438|XArbitraryZVertical|-0.6044662536938826|0.4143874670316221|-0.39263342907667|0.5556462391433552|-0.01416164077818394|0.997143566608429|0.07419285178184509|0|0|0|-1|-1|3
2021-03-03 00:34:28.816 +0000|217396.820145125|0.2113189697265625|1.205642700195312|0.0104217529296875|217396.800184125|1.770952499642818|2.950994758921594|-1.525851166186919|1.567570567131042|-1.867161512374878|1.082159876823425|0.2528558373451233|0.2251004576683044|-0.01582718268036842|XArbitraryZVertical|-0.5986960893410207|0.4045015504732364|-0.3821381971034099|0.5761179687995646|0.00851193442940712|0.9989901185035706|0.04411702230572701|0|0|0|-1|-1|3
2021-03-03 00:34:28.836 +0000|217396.840107125|0.1810455322265625|1.12371826171875|0.07684326171875|217396.820145125|0.7739993586036474|1.916929544390519|-1.536591474353886|1.537561178207397|-1.901127815246582|1.196358203887939|0.1892344355583191|0.2166799306869507|-0.008565902709960938|XArbitraryZVertical|-0.59196534122454|0.3941804572132918|-0.3706061159737163|0.5973691746235978|0.03217055648565292|0.9994150996208191|0.01160239614546299|0|0|0|-1|-1|3
2021-03-03 00:34:28.856 +0000|217396.860069125|0.1739654541015625|1.024459838867188|0.038726806640625|217396.840107125|0.1601422503555602|1.266262369584565|-1.511288794406838|1.213884592056274|-1.831673979759216|1.279746413230896|0.1265973001718521|0.1554871201515198|0.08025681972503662|XArbitraryZVertical|-0.5855167094848186|0.3850371994215004|-0.3575107013782437|0.6173351665859435|0.0567370280623436|0.9982299208641052|-0.01783307641744614|0|0|0|-1|-1|3
2021-03-03 00:34:28.876 +0000|217396.880031125|0.1445159912109375|1.035537719726562|0.0135040283203125|217396.860069125|0.03678925797558207|1.107781083409724|-1.47997398490213|0.7931607961654663|-1.728226184844971|1.263419508934021|0.09447918832302094|0.03788930177688599|0.09774637222290039|XArbitraryZVertical|-0.580510813323234|0.3778252194427779|-0.3430573339842427|0.6344817731854921|0.08114944398403168|0.9958784580230713|-0.04051059857010841|0|0|0|-1|-1|3
2021-03-03 00:34:28.896 +0000|217396.899992125|0.136627197265625|1.030044555664062|0.0350494384765625|217396.880031125|0.04746458379153094|1.084751612961186|-1.452405456259579|0.3564805686473846|-1.616289734840393|1.225325345993042|0.05111294984817505|0.02708053588867188|0.06408614665269852|XArbitraryZVertical|-0.5777343717680766|0.3723378927684324|-0.3274635576687106|0.6483479583690137|0.1044351160526276|0.9929999709129333|-0.05517498031258583|0|0|0|-1|-1|3
2021-03-03 00:34:28.916 +0000|217396.919954125|0.07818603515625|1.129989624023438|0.1918182373046875|217396.899992125|0.09199456091582432|1.097958312584109|-1.428723108623605|0.2203154712915421|-1.493199706077576|1.198041677474976|0.00551605224609375|0.06326764822006226|0.08062893152236938|XArbitraryZVertical|-0.5764043788705174|0.3681241979861863|-0.3118639830634329|0.6595328172278264|0.1260604411363602|0.9899245500564575|-0.06448513269424438|0|0|0|-1|-1|3
2021-03-03 00:34:28.936 +0000|217396.939916125|3.0517578125e-05|1.143630981445312|0.2196044921875|217396.919954125|0.1692097172610646|1.145649496446263|-1.407590769161977|-0.378566712141037|-1.38685131072998|1.178994178771973|-0.0435410737991333|0.101987898349762|0.2398377060890198|XArbitraryZVertical|-0.5767926229644357|0.3657894973806022|-0.2953461341819307|0.6680412073172532|0.1480179727077484|0.9867115020751953|-0.06701662391424179|0|0|0|-1|-1|3
2021-03-03 00:34:28.956 +0000|217396.959878125|0.049041748046875|1.118148803710938|0.2447357177734375|217396.939916125|0.2625676817095264|1.213859253152853|-1.389279441720107|-0.3264377415180206|-0.9831305146217346|1.155423164367676|-0.1609802693128586|0.1733808517456055|0.2750504612922668|XArbitraryZVertical|-0.5786247589580716|0.3655895308873998|-0.2793314742806256|0.6734327008720198|0.1691436767578125|0.9835709929466248|-0.06307536363601685|0|0|0|-1|-1|3
2021-03-03 00:34:28.976 +0000|217396.979839125|0.0753631591796875|0.995269775390625|0.2627410888671875|217396.959878125|0.3244066762341781|1.258473342631349|-1.368761750118236|-0.234223484992981|-0.6752458214759827|1.186949491500854|-0.1578132063150406|0.1474148631095886|0.2948883175849915|XArbitraryZVertical|-0.5780453131635983|0.3674707700706505|-0.26601777510145|0.6782797217146118|0.1909552812576294|0.9796603322029114|-0.06165769696235657|0|0|0|-1|-1|3
2021-03-03 00:34:28.996 +0000|217396.999801125|0.0277099609375|1.178298950195312|0.2555389404296875|217396.979839125|0.3845866190987772|1.306528285484522|-1.348351899342303|-0.3304408192634583|-0.4047075510025024|1.100889444351196|-0.1392713040113449|0.04063016176223755|0.3068165183067322|XArbitraryZVertical|-0.5773271275404486|0.3713230160606963|-0.2538573507381782|0.6814463551015902|0.212955966591835|0.9753611087799072|-0.05762521177530289|0|0|0|-1|-1|3
2021-03-03 00:34:29.016 +0000|217397.019763125|-0.0741729736328125|1.063140869140625|0.192657470703125|217396.999801125|0.4098992503668485|1.324841020811885|-1.329051473664324|0.3674135506153107|-0.3198811113834381|0.9864449501037598|-0.1896364986896515|0.1436871886253357|0.3140113949775696|XArbitraryZVertical|-0.5746176770703602|0.3750598121964398|-0.2450129977527371|0.684918610956409|0.2321932911872864|0.9709217548370361|-0.05828932672739029|0|0|0|-1|-1|3
2021-03-03 00:34:29.036 +0000|217397.039724125|-0.175384521484375|0.7705230712890625|-0.093719482421875|217397.019763125|0.3610849574712183|1.270749775927128|-1.303512981288641|1.457244157791138|-0.3113188743591309|1.143578410148621|-0.2987146973609924|0.1606301665306091|0.3239882588386536|XArbitraryZVertical|-0.5649962476287601|0.3764944592345342|-0.2392462867801143|0.6941127102859539|0.2523126602172852|0.9644919633865356|-0.07806232571601868|0|0|0|-1|-1|3
2021-03-03 00:34:29.056 +0000|217397.059686125|-0.38525390625|0.4111785888671875|-0.094329833984375|217397.039724125|0.2638113832624641|1.166894114303242|-1.264348737280461|2.208058834075928|-0.8335146307945251|1.618175745010376|-0.4042611122131348|-0.1516228914260864|0.06027216464281082|XArbitraryZVertical|-0.5473170293472813|0.3757175974654617|-0.2341487554721455|0.7102498137904499|0.2773995101451874|0.9534112811088562|-0.1185607090592384|0|0|0|-1|-1|3
2021-03-03 00:34:29.076 +0000|217397.079648125|-0.2205810546875|0.7073974609375|-0.0378265380859375|217397.059686125|0.2199631793636533|1.11032958686648|-1.216848632169962|1.154837608337402|-0.4949319064617157|2.058906555175781|-0.6696796417236328|-0.3902212381362915|0.08968783915042877|XArbitraryZVertical|-0.5302686787229167|0.3765709741477274|-0.2229103948798876|0.7261682639556706|0.3105029761791229|0.9380117654800415|-0.1540188640356064|0|0|0|-1|-1|3
2021-03-03 00:34:29.096 +0000|217397.099610125|0.040679931640625|1.319122314453125|-0.0839691162109375|217397.079648125|0.2157707873643084|1.102203125413418|-1.169265129050766|1.114943146705627|-0.03202009201049805|2.142351150512695|-0.6393178105354309|-0.436180055141449|0.06609790027141571|XArbitraryZVertical|-0.5144684344120448|0.3834931417706509|-0.2108064463518711|0.7374388149174137|0.3486989438533783|0.9204636216163635|-0.1765104830265045|0|0|0|-1|-1|3
2021-03-03 00:34:29.116 +0000|217397.119571125|0.1108856201171875|1.117477416992188|0.0180206298828125|217397.099610125|0.2059707526426396|1.091676607763343|-1.11603283634477|1.909234523773193|-0.2094966620206833|2.456117868423462|-0.4087576866149902|0.3618584871292114|0.1444796323776245|XArbitraryZVertical|-0.4954388117699539|0.3915273116883681|-0.1988909426943593|0.7494593179035727|0.3897910118103027|0.8983649611473083|-0.2024934887886047|0|0|0|-1|-1|3
2021-03-03 00:34:29.136 +0000|217397.139533125|0.1320648193359375|0.4770965576171875|0.2788848876953125|217397.119571125|0.15932950109749|1.042846784429388|-1.049249708793666|3.033059597015381|-0.4664823114871979|2.208775281906128|-0.312114030122757|0.35087651014328|0.2033936679363251|XArbitraryZVertical|-0.4672573903044364|0.3951931393207989|-0.1889837935808448|0.7679701550525448|0.4303849339485168|0.8670496344566345|-0.2509858310222626|0|0|0|-1|-1|3
2021-03-03 00:34:29.156 +0000|217397.159495125|0.324615478515625|0.06768798828125|0.29779052734375|217397.139533125|0.1077471323170669|0.9965895277260698|-0.9872837945177538|2.309646368026733|0.333825558423996|1.659393072128296|-0.3588991165161133|-0.172011137008667|0.5373007655143738|XArbitraryZVertical|-0.438276025480545|0.3978470748158119|-0.1844785194421784|0.7846015106759436|0.4625978171825409|0.8345325589179993|-0.2992636561393738|0|0|0|-1|-1|3
2021-03-03 00:34:29.176 +0000|217397.179457125|0.500274658203125|-0.0052337646484375|0.27197265625|217397.159495125|0.08491702204578715|0.9913339012896761|-0.9484595698188748|0.9046726226806641|0.9334932565689087|0.890922486782074|-0.2199836373329163|-0.6923707723617554|0.6293505430221558|XArbitraryZVertical|-0.4192940163778327|0.4056998034445001|-0.1837799250346636|0.7910911115232923|0.4877753853797913|0.8125184774398804|-0.3192003965377808|0|0|0|-1|-1|3
2021-03-03 00:34:29.196 +0000|217397.199418125|0.56158447265625|0.0057373046875|0.2107086181640625|217397.179457125|0.08779564605384813|1.013100763284661|-0.9364769047927702|-0.3975522518157959|0.9350346922874451|0.1747380793094635|-0.03498280048370361|-0.7959993481636047|0.5941716432571411|XArbitraryZVertical|-0.4132593458668612|0.4152075718037725|-0.1845080084094355|0.7891617888157169|0.5028325915336609|0.8054752349853516|-0.3136387765407562|0|0|0|-1|-1|3
2021-03-03 00:34:29.216 +0000|217397.219380125|0.5361480712890625|0.3545989990234375|0.0985107421875|217397.199418125|0.1154828181807754|1.0527736682749|-0.9499312503259851|-1.622408986091614|0.7727345824241638|-0.4864841401576996|0.04403877258300781|-0.8302059173583984|0.5218204259872437|XArbitraryZVertical|-0.4205267312299233|0.4232367781873559|-0.1850003718016473|0.7808987406981689|0.5054149031639099|0.8133755326271057|-0.288055807352066|0|0|0|-1|-1|3
2021-03-03 00:34:29.236 +0000|217397.239342125|0.4274444580078125|0.7354736328125|0.1012420654296875|217397.219380125|0.157996349805921|1.097628817994748|-0.9807935049159344|-1.874070048332214|0.16676065325737|-1.079161763191223|0.06439590454101562|-0.5976626873016357|0.3625786304473877|XArbitraryZVertical|-0.4368736717367312|0.4270500441518904|-0.1855386001160427|0.769639621102827|0.495235413312912|0.8309391140937805|-0.2535393238067627|0|0|0|-1|-1|3
2021-03-03 00:34:29.256 +0000|217397.259304125|0.402557373046875|0.8983001708984375|0.1109619140625|217397.239342125|0.2026787554816854|1.135919907228381|-1.021639341632634|-2.096524715423584|-0.001023879274725914|-1.530694842338562|-0.02245688438415527|-0.1853013634681702|0.3319191634654999|XArbitraryZVertical|-0.4574936569868263|0.4251439466548343|-0.1872365398136224|0.7582180414739212|0.4733845591545105|0.8529648780822754|-0.219904363155365|0|0|0|-1|-1|3
2021-03-03 00:34:29.276 +0000|217397.2792647917|0.3916015625|1.001617431640625|0.017242431640625|217397.259304125|0.2494956482284564|1.174417925473929|-1.065796879921574|-1.811654090881348|-0.2329978346824646|-1.486226677894592|-0.03479626774787903|-0.03839796781539917|0.2467553615570068|XArbitraryZVertical|-0.4790224137840396|0.4208840439417698|-0.1900632321506889|0.746505338736456|0.4462952613830566|0.8751747608184814|-0.1867882907390594|0|0|0|-1|-1|3
2021-03-03 00:34:29.296 +0000|217397.2992267917|0.42864990234375|0.912750244140625|0.1473388671875|217397.2792647917|0.2997792589559741|1.215651858867147|-1.106508965659636|-1.635301828384399|-0.1792991310358047|-1.329002141952515|-0.04534587264060974|0.162926971912384|0.2342895269393921|XArbitraryZVertical|-0.4990657284902466|0.4160289019011896|-0.1924207317783404|0.7354098756303836|0.4198423326015472|0.894140899181366|-0.1557067036628723|0|0|0|-1|-1|3
2021-03-03 00:34:29.315 +0000|217397.3191887917|0.4220733642578125|0.5260772705078125|0.254364013671875|217397.2992267917|0.3595176562324875|1.264138801825082|-1.13829405926175|-2.105951547622681|-0.3039822280406952|-0.8862075209617615|0.02806803584098816|0.007134556770324707|0.2234372049570084|XArbitraryZVertical|-0.5167745273644374|0.4119220824442319|-0.1917570127291396|0.7255987351280543|0.399590015411377|0.9079197645187378|-0.1265285760164261|0|0|0|-1|-1|3
2021-03-03 00:34:29.336 +0000|217397.3391497917|0.3297271728515625|1.340560913085938|0.586517333984375|217397.3191887917|0.5370230208920753|1.422900366302385|-1.170737492319644|-5.477133750915527|-0.1911255866289139|-0.6553513407707214|0.03808808326721191|-0.1926748752593994|0.301791787147522|XArbitraryZVertical|-0.5478629574544881|0.4137031723593654|-0.1803378042619568|0.704396443712915|0.3852212727069855|0.9210380911827087|-0.05739172920584679|0|0|0|-1|-1|3
2021-03-03 00:34:29.356 +0000|217397.3591117917|0.4671630859375|1.835769653320312|0.2183990478515625|217397.3591117917|1.022579582016778|1.876047718138998|-1.189834385221288|-2.914861917495728|0.2449444979429245|-0.8285311460494995|0.06807348132133484|1.049445390701294|0.2310922145843506|XArbitraryZVertical|-0.615828963426342|0.4202687862086684|-0.1544872241664779|0.6482766589422474|0.3546254634857178|0.9283074140548706|0.1117423325777054|0|0|0|-1|-1|3
2021-03-03 00:34:29.375 +0000|217397.3790737917|0.506011962890625|1.21856689453125|0.208221435546875||||||||||||||||||||||||3
2021-03-03 00:34:29.395 +0000|217397.3990357917|0.458709716796875|1.330108642578125|0.19146728515625|217397.3790737917|1.141581843841948|1.984987559430453|-1.192246965173049|-1.20185649394989|-0.3279189169406891|-0.9330533742904663|0.1767226755619049|0.3504612445831299|0.04093240201473236|XArbitraryZVertical|-0.632638205262107|0.4172962035164447|-0.1512243641211531|0.6346368406181366|0.3383224606513977|0.9292017221450806|0.1487344354391098|0|0|0|-1|-1|3
2021-03-03 00:34:29.415 +0000|217397.4189967917|0.4463958740234375|1.098892211914062|0.076446533203125|217397.3990357917|1.187141801000203|2.017816830712476|-1.202604445307569|-0.05241540819406509|-0.5976261496543884|-0.6897988319396973|0.1433026194572449|0.3702889084815979|0.05440093576908112|XArbitraryZVertical|-0.6401563676197001|0.4098720375728948|-0.1511189357824622|0.6319556076121198|0.3245623707771301|0.9329796433448792|0.1555905193090439|0|0|0|-1|-1|3
2021-03-03 00:34:29.435 +0000|217397.4389587917|0.37933349609375|1.052871704101562|0.0402679443359375|217397.4189967917|1.194513881160266|2.010375045548799|-1.214398732726421|0.1422014981508255|-0.880848228931427|-0.5080752968788147|0.1361275911331177|0.2409560680389404|-0.04865443706512451|XArbitraryZVertical|-0.6427718219477938|0.4013516431890158|-0.1507976199234777|0.6348396196361749|0.3157309293746948|0.9371597766876221|0.1484775096178055|0|0|0|-1|-1|3
2021-03-03 00:34:29.455 +0000|217397.4589207917|0.3534393310546875|1.22882080078125|-0.02886962890625|217397.4389587917|1.217117922382724|2.011716871377362|-1.221112218521496|-0.6242820620536804|-1.043669104576111|-0.4291550815105438|0.09005266427993774|0.08391070365905762|-0.1067075878381729|XArbitraryZVertical|-0.6474527137751256|0.3923152688734997|-0.146543171381121|0.6367250608818997|0.3098343908786774|0.9394809603691101|0.1462125778198242|0|0|0|-1|-1|3
2021-03-03 00:34:29.475 +0000|217397.4788827917|0.4176483154296875|1.214553833007812|-0.09124755859375|217397.4589207917|1.271537250009796|2.042395864568247|-1.219938937532381|-1.011574983596802|-0.9750218391418457|-0.2743345499038696|0.04137945175170898|0.2570732831954956|-0.1576283127069473|XArbitraryZVertical|-0.6557960246683949|0.3847150964883932|-0.1388079711028335|0.6345535009452993|0.3061851859092712|0.9390783905982971|0.1561482697725296|0|0|0|-1|-1|3
2021-03-03 00:34:29.495 +0000|217397.4988437917|0.5346527099609375|1.135055541992188|-0.0883331298828125|217397.4788827917|1.325001561186002|2.074661837253293|-1.215021620927653|-0.7594574093818665|-0.7940590381622314|-0.1957946270704269|0.09267616271972656|0.2997599244117737|-0.2543996572494507|XArbitraryZVertical|-0.6637291457077079|0.3788795997285441|-0.1307139856533414|0.6315280920482216|0.3050288558006287|0.9373769164085388|0.1681722551584244|0|0|0|-1|-1|3
2021-03-03 00:34:29.515 +0000|217397.5188057917|0.589508056640625|1.206085205078125|-0.086151123046875|217397.4988437917|1.351825607929857|2.085846457992016|-1.213612873679863|-0.06599511951208115|-0.637988269329071|-0.1227287575602531|0.2028627693653107|0.1985824704170227|-0.2470835000276566|XArbitraryZVertical|-0.6680466895877563|0.3739325967969966|-0.1254536654215321|0.630990984927012|0.3042783737182617|0.9368852972984314|0.1722239255905151|0|0|0|-1|-1|3
2021-03-03 00:34:29.535 +0000|217397.5387677917|0.5604705810546875|1.131134033203125|-0.0496978759765625|217397.5188057917|1.335979037494561|2.058392004186768|-1.217915775758265|0.7457032799720764|-0.6337541937828064|0.02896187826991081|0.2767809927463531|0.2554513216018677|-0.254887580871582|XArbitraryZVertical|-0.666853533285181|0.3691398884983559|-0.1228882800699863|0.6355632144156362|0.3053264915943146|0.9383810758590698|0.1619157791137695|0|0|0|-1|-1|3
2021-03-03 00:34:29.555 +0000|217397.5587287917|0.5538330078125|1.020950317382812|0.0084686279296875|217397.5387677917|1.274169628978309|1.988056700781122|-1.225481009511508|1.493313431739807|-0.5535193681716919|0.196189671754837|0.2630887925624847|0.2238261103630066|-0.1909641176462173|XArbitraryZVertical|-0.6600093745253971|0.364658852385442|-0.1221373190791681|0.6453634525740229|0.3094514310359955|0.9409687519073486|0.137176901102066|0|0|0|-1|-1|3
2021-03-03 00:34:29.575 +0000|217397.5786907917|0.5494842529296875|0.9030609130859375|0.0302581787109375|217397.5587287917|1.174743870031741|1.885742150598855|-1.231895465074307|1.755518913269043|-0.3191827833652496|0.3896045684814453|0.2361933290958405|0.1018775105476379|-0.1041565015912056|XArbitraryZVertical|-0.6485646646289841|0.3617383888051846|-0.1234405346277115|0.6582337357828769|0.3160984814167023|0.9431206583976746|0.1029815748333931|0|0|0|-1|-1|3
2021-03-03 00:34:29.595 +0000|217397.5986527917|0.50592041015625|0.85284423828125|0.0995941162109375|217397.5786907917|1.067563406845364|1.779293572159833|-1.231944918483693|1.673314094543457|-0.2541337609291077|0.5208866596221924|0.2295587956905365|-0.01946163177490234|-0.04179622232913971|XArbitraryZVertical|-0.6358060693278917|0.3607669025363074|-0.1248922617365456|0.6708201890418944|0.3252049386501312|0.9431371092796326|0.06880423426628113|0|0|0|-1|-1|3
2021-03-03 00:34:29.615 +0000|217397.6186147917|0.4822845458984375|0.783050537109375|0.0840301513671875|217397.5986527917|0.9742072023914607|1.687074775178419|-1.225575388791938|1.311288237571716|-0.1352211534976959|0.6195774674415588|0.1822671890258789|-0.06955599784851074|0.04287755489349365|XArbitraryZVertical|-0.6239287214124103|0.3610307976076722|-0.1251038923484659|0.6817028643412435|0.3361196219921112|0.9410006999969482|0.03926057368516922|0|0|0|-1|-1|3
2021-03-03 00:34:29.635 +0000|217397.6385757917|0.4580078125|0.7407073974609375|0.113922119140625|217397.6186147917|0.9043368623044474|1.619828721676247|-1.21439923164721|1.032655000686646|-0.03823079541325569|0.6781229972839355|0.1390073001384735|-0.1393085122108459|0.07831263542175293|XArbitraryZVertical|-0.6137680958421209|0.3630963956747458|-0.1242681854153535|0.6899326491350092|0.3484804332256317|0.9371599555015564|0.01710053533315659|0|0|0|-1|-1|3
2021-03-03 00:34:29.655 +0000|217397.6585377917|0.427398681640625|0.733306884765625|0.1897735595703125|217397.6385757917|0.8560145614338462|1.57354656992504|-1.200667504180702|0.6271443963050842|-0.06917369365692139|0.757946789264679|0.1046964526176453|-0.1822349429130554|0.09985053539276123|XArbitraryZVertical|-0.6054298654016346|0.365994682798625|-0.1220836529706987|0.6961308535529359|0.3617342114448547|0.9322807788848877|0.0009948594961315393|0|0|0|-1|-1|3
2021-03-03 00:34:29.675 +0000|217397.6784997917|0.4337310791015625|0.790191650390625|0.286468505859375|217397.6585377917|0.8425740384907|1.559532296740271|-1.184986456299731|-0.07954484969377518|-0.0689707025885582|0.7676987648010254|0.05656006932258606|-0.1849777102470398|0.1795163750648499|XArbitraryZVertical|-0.6008868664937429|0.3698859762155358|-0.1170880862934601|0.6988632462550334|0.3762860298156738|0.9264940023422241|-0.004238676745444536|0|0|0|-1|-1|3
2021-03-03 00:34:29.695 +0000|217397.6984617917|0.42724609375|0.9344940185546875|0.387603759765625|217397.6784997917|0.8569807418870424|1.57117342076359|-1.170619474137819|-0.4709666073322296|-0.1371736228466034|0.6852463483810425|0.03835156559944153|-0.1598837375640869|0.2450313568115234|XArbitraryZVertical|-0.600204541910817|0.3739357728575023|-0.1105472853612591|0.6983593776916004|0.3895811438560486|0.9209921360015869|0.00014690870011691|0|0|0|-1|-1|3
2021-03-03 00:34:29.715 +0000|217397.7184227917|0.42498779296875|0.9361114501953125|0.3651885986328125|217397.6984617917|0.8784777129424104|1.587160210941251|-1.15782223231766|-0.3297612965106964|-0.2211192846298218|0.5782573223114014|0.03023701906204224|-0.01772260665893555|0.371972918510437|XArbitraryZVertical|-0.6010200820895399|0.3769063758379775|-0.1033632855987425|0.6971603187013593|0.4012815058231354|0.9159312844276428|0.006567110307514668|0|0|0|-1|-1|3
2021-03-03 00:34:29.735 +0000|217397.7383847917|0.424835205078125|0.926910400390625|0.2869110107421875|217397.7184227917|0.8880846338439629|1.590760754365194|-1.147687056949261|-0.01652621664106846|-0.2982653677463531|0.4086442291736603|0.01769146323204041|0.03889757394790649|0.3665133714675903|XArbitraryZVertical|-0.6008039820039708|0.3783291926746076|-0.09752781942073206|0.6974166900845282|0.4105159938335419|0.9118167161941528|0.008196805603802204|0|0|0|-1|-1|3
2021-03-03 00:34:29.755 +0000|217397.7583467917|0.4331207275390625|0.819000244140625|0.1790618896484375|217397.7583467917|0.8755058491716027|1.565218813324338|-1.138849160838882|0.09950169920921326|-0.4307596385478973|0.08840993791818619|0.01248842477798462|-0.05616259574890137|0.2081760168075562|XArbitraryZVertical|-0.5979932531557212|0.3758145693982707|-0.09116984385632898|0.7020366824788707|0.4186333119869232|0.9081522822380066|-0.002334957243874669|0|0|0|-1|-1|3
2021-03-03 00:34:29.775 +0000|217397.7783077917|0.4235382080078125|0.8205718994140625|0.0859527587890625|217397.7783077917|0.8738255327205142|1.554194361524172|-1.137975312511701|-0.04883402213454247|-0.5177597403526306|-0.003750705625861883|0.009838700294494629|-0.1066080331802368|0.1134237051010132|XArbitraryZVertical|-0.5980060936284788|0.3727025097748857|-0.08815873958745896|0.7040665453792804|0.4193758070468903|0.9077861309051514|-0.006963102612644434|0|0|0|-1|-1|3
2021-03-03 00:34:29.795 +0000|217397.7982697917|0.39154052734375|0.8227996826171875|-0.008209228515625||||||||||||||||||||||||3
2021-03-03 00:34:29.814 +0000|217397.8182317917|0.3585357666015625|0.819580078125|-0.13067626953125|217397.7982697917|0.878805149679029|1.54797082555566|-1.138387209384716|-0.112220898270607|-0.5413026213645935|-0.01605211198329926|-0.01909375190734863|-0.07678204774856567|0.02721887826919556|XArbitraryZVertical|-0.5992774792671961|0.3688960513924221|-0.08468489164118456|0.7054152768652053|0.4189503192901611|0.9079588055610657|-0.009564411826431751|0|0|0|-1|-1|3
2021-03-03 00:34:29.835 +0000|217397.8381937917|0.32598876953125|0.83270263671875|-0.248443603515625|217397.8182317917|0.8847791972666947|1.542908757399711|-1.139196378074865|-0.1511986255645752|-0.5081092119216919|-0.06655168533325195|-0.05408719182014465|-0.08232414722442627|-0.08528977632522583|XArbitraryZVertical|-0.6007394774682699|0.3650750736798816|-0.08133927465419361|0.7065523102077845|0.4181618392467499|0.908297598361969|-0.01166454143822193|0|0|0|-1|-1|3
2021-03-03 00:34:29.855 +0000|217397.8581547917|0.2832489013671875|0.93017578125|-0.2806549072265625|217397.8381937917|0.8921823492960439|1.539864896655513|-1.1411114234572|-0.1396207809448242|-0.4505413472652435|-0.130859836935997|-0.07822012901306152|-0.09566622972488403|-0.2182871699333191|XArbitraryZVertical|-0.6025726800853215|0.3611985775374351|-0.07847309412330616|0.7073074729193903|0.4163854122161865|0.9090970754623413|-0.01288350578397512|0|0|0|-1|-1|3
2021-03-03 00:34:29.875 +0000|217397.8781167917|0.2844085693359375|0.929351806640625|-0.240753173828125|217397.8581547917|0.8941007845628509|1.534028239253326|-1.144669745871342|0.06732981652021408|-0.2965355813503265|-0.2169878929853439|-0.1208159029483795|0.001535713672637939|-0.2662996053695679|XArbitraryZVertical|-0.6038262636677452|0.3574864603354941|-0.07727086827568319|0.7082559299572766|0.4130674600601196|0.9105736613273621|-0.01519454829394817|0|0|0|-1|-1|3
2021-03-03 00:34:29.895 +0000|217397.8980787917|0.324615478515625|0.936065673828125|-0.142608642578125|217397.8781167917|0.8852990580987055|1.522936727798376|-1.150163470411171|0.2238527834415436|-0.03095743618905544|-0.3572532832622528|-0.1313202977180481|0.02036625146865845|-0.2408557534217834|XArbitraryZVertical|-0.6037520842047346|0.3545641026307899|-0.0789465978060746|0.7096020592536388|0.4078705012798309|0.9128307104110718|-0.01953543536365032|0|0|0|-1|-1|3
2021-03-03 00:34:29.914 +0000|217397.9180407917|0.3197784423828125|1.045242309570312|-0.0808868408203125|217397.8980787917|0.8730691588249289|1.512456072646282|-1.158708777940923|0.2132958024740219|0.07424722611904144|-0.5273716449737549|-0.08230650424957275|0.005039036273956299|-0.1450578570365906|XArbitraryZVertical|-0.6036845896022669|0.351977594130054|-0.08307405934184731|0.7104755598576331|0.3998419046401978|0.9162867069244385|-0.02335337921977043|0|0|0|-1|-1|3
2021-03-03 00:34:29.934 +0000|217397.9380017917|0.2818145751953125|1.047637939453125|-0.0665283203125|217397.9180407917|0.8619841090821526|1.50380513741059|-1.170651381979579|0.132503405213356|0.075276218354702|-0.6580646634101868|-0.06278109550476074|0.1092537045478821|-0.06176775693893433|XArbitraryZVertical|-0.6044675287236807|0.3486839326790443|-0.08850399014250648|0.7107782144155017|0.3886783123016357|0.9210045337677002|-0.02607704326510429|0|0|0|-1|-1|3
2021-03-03 00:34:29.954 +0000|217397.9579637917|0.261260986328125|1.063125610351562|-0.09698486328125|217397.9380017917|0.8559173260167169|1.500225764841688|-1.184332367059232|0.01036343723535538|0.1322176307439804|-0.7095486521720886|-0.08755606412887573|0.1245489120483398|-0.03454959392547607|XArbitraryZVertical|-0.6062802447527071|0.3451604249169865|-0.09426137072924409|0.7102136793778178|0.3759776949882507|0.9262476563453674|-0.02657709270715714|0|0|0|-1|-1|3
2021-03-03 00:34:29.974 +0000|217397.9779257917|0.247100830078125|1.089157104492188|-0.1197967529296875|217397.9579637917|0.8445429185113507|1.490830232024538|-1.199785418082854|-0.1946067661046982|0.1743197590112686|-0.6771548986434937|-0.09488928318023682|0.1268765926361084|-0.05566376447677612|XArbitraryZVertical|-0.6078427121328882|0.3406560061199136|-0.1007213489187283|0.710166155609056|0.3613992631435394|0.9319612979888916|-0.02896144613623619|0|0|0|-1|-1|3
2021-03-03 00:34:29.994 +0000|217397.9978867917|0.2140045166015625|1.150665283203125|-0.20233154296875|217397.9779257917|0.8470856129816232|1.495496364447018|-1.21366327553896|-0.3101412355899811|0.18751360476017|-0.6024813652038574|-0.09629502892494202|0.1415119767189026|-0.08887410163879395|XArbitraryZVertical|-0.6107596798385101|0.3373766475395518|-0.1059657251845067|0.7084637661493424|0.3485990762710571|0.9369029402732849|-0.02629922144114971|0|0|0|-1|-1|3
2021-03-03 00:34:30.014 +0000|217398.0178487917|0.1510772705078125|1.180374145507812|-0.25433349609375|217397.9978867917|0.8564692542524875|1.50750759997535|-1.225259453754015|-0.1966304928064346|0.2000281661748886|-0.4590780138969421|-0.1104541718959808|0.1975187063217163|-0.1573197245597839|XArbitraryZVertical|-0.6139175900382973|0.3352526554266289|-0.1102808270882521|0.7060800033521784|0.3380237221717834|0.9408937692642212|-0.02142169885337353|0|0|0|-1|-1|3
2021-03-03 00:34:30.034 +0000|217398.0378107917|0.113372802734375|1.090316772460938|-0.2934722900390625|217398.0178487917|0.8564839667600618|1.512223142467334|-1.232743696291096|0.1491575390100479|0.2833315432071686|-0.2819224894046783|-0.167218029499054|0.2348509430885315|-0.2192937135696411|XArbitraryZVertical|-0.6150670967186229|0.3346417415448737|-0.1142828341890333|0.7047318019699897|0.3310821354389191|0.9434022903442383|-0.01941474340856075|0|0|0|-1|-1|3
2021-03-03 00:34:30.054 +0000|217398.0577727917|0.108123779296875|0.950592041015625|-0.3178863525390625|217398.0378107917|0.8408093368000575|1.504137071478587|-1.235839750511498|0.3190914690494537|0.3843435049057007|-0.06411862373352051|-0.2079729437828064|0.1851226687431335|-0.2711942195892334|XArbitraryZVertical|-0.6134967669204312|0.3356686243486389|-0.1183797416128962|0.704935952170865|0.3279985785484314|0.944424569606781|-0.02189658395946026|0|0|0|-1|-1|3
2021-03-03 00:34:30.074 +0000|217398.0777337917|0.095062255859375|0.9759521484375|-0.3009033203125|217398.0577727917|0.8211776455102247|1.494958098034207|-1.234832871281953|0.3061286509037018|0.541905403137207|0.1124037727713585|-0.2195703685283661|0.02424508333206177|-0.2850344181060791|XArbitraryZVertical|-0.6105441339155776|0.3387428101484301|-0.1221506412458725|0.7053853817344738|0.3287317454814911|0.9440931081771851|-0.02497833780944347|0|0|0|-1|-1|3
2021-03-03 00:34:30.094 +0000|217398.0976957917|0.0950927734375|0.97601318359375|-0.3364410400390625|217398.0777337917|0.8089340083644563|1.496046754300517|-1.230691692621021|0.1879008859395981|0.727744460105896|0.2547169029712677|-0.2328010499477386|0.02479434013366699|-0.2757927179336548|XArbitraryZVertical|-0.607571906041425|0.3440934158323595|-0.1253960066632842|0.704792204162444|0.3326545357704163|0.9427197575569153|-0.02491220086812973|0|0|0|-1|-1|3
2021-03-03 00:34:30.114 +0000|217398.1176577917|0.1003875732421875|1.054031372070312|-0.2931365966796875|217398.0976957917|0.7980699807266309|1.501844864903611|-1.223480382292645|0.2181611061096191|0.8739569187164307|0.4665530025959015|-0.2432228326797485|0.03331267833709717|-0.3045979142189026|XArbitraryZVertical|-0.603881144035163|0.3515709927457926|-0.1285348465344805|0.703707547416159|0.3395667672157288|0.9402896761894226|-0.02345080114901066|0|0|0|-1|-1|3
2021-03-03 00:34:30.134 +0000|217398.1376197917|0.10772705078125|1.085952758789062|-0.29278564453125|217398.1176577917|0.7791900733868538|1.503484410859913|-1.21196587940051|0.5134055018424988|1.063417911529541|0.6410698890686035|-0.2532318234443665|0.09337019920349121|-0.2740477323532104|XArbitraryZVertical|-0.5980871521707561|0.3612220786833966|-0.131767164373612|0.7031699022955048|0.3503845036029816|0.9363082051277161|-0.02362073585391045|0|0|0|-1|-1|3
2021-03-03 00:34:30.154 +0000|217398.1575807917|0.12286376953125|0.91900634765625|-0.311004638671875|217398.1376197917|0.7440036172977803|1.492920370421896|-1.198249070965732|0.8317417502403259|1.15231192111969|0.5941670536994934|-0.2562580406665802|0.1681453585624695|-0.262667715549469|XArbitraryZVertical|-0.5894878507968822|0.3719480803840219|-0.1363783506388165|0.7039601090201087|0.3628864586353302|0.9314032196998596|-0.0283173993229866|0|0|0|-1|-1|3
2021-03-03 00:34:30.174 +0000|217398.1775427917|0.0963287353515625|0.8040618896484375|-0.2524871826171875|217398.1575807917|0.6964173024736084|1.471704882359112|-1.185737193799735|0.9703966379165649|1.160715222358704|0.5107019543647766|-0.2497328221797943|0.03364253044128418|-0.2721668481826782|XArbitraryZVertical|-0.579260145088523|0.3819398556676953|-0.1427669539175717|0.7058309211351458|0.3737715184688568|0.9267762303352356|-0.0371592603623867|0|0|0|-1|-1|3
2021-03-03 00:34:30.194 +0000|217398.1975047917|0.0936737060546875|0.719085693359375|-0.2038421630859375|217398.1775427917|0.6543831040459921|1.456854944153598|-1.174471693087032|0.61674964427948|1.244503855705261|0.4197108149528503|-0.2773566544055939|-0.1028449535369873|-0.2272284030914307|XArbitraryZVertical|-0.569623021803493|0.3918989031537427|-0.1496221821141877|0.7067941918664815|0.3835272490978241|0.9224860072135925|-0.04388972371816635|0|0|0|-1|-1|3
2021-03-03 00:34:30.214 +0000|217398.2174657917|0.0946197509765625|0.8712921142578125|-0.1606903076171875|217398.1975047917|0.6386411964912554|1.469183394592908|-1.167187513818055|0.08968640118837357|1.408650636672974|0.212675154209137|-0.3032047152519226|-0.1990381479263306|-0.1803913116455078|XArbitraryZVertical|-0.5638380531636642|0.4026999614730301|-0.1562691587434373|0.7039170986196157|0.3907137811183929|0.9196496605873108|-0.03983878344297409|0|0|0|-1|-1|3
2021-03-03 00:34:30.234 +0000|217398.2374277917|0.1116485595703125|1.01165771484375|-0.143585205078125|217398.2174657917|0.6377711115778893|1.497106120813464|-1.164017136374385|0.06268889456987381|1.456907510757446|0.1202029287815094|-0.2973812222480774|-0.0964394211769104|-0.1611781716346741|XArbitraryZVertical|-0.5606872469142951|0.4136001816068335|-0.1633735619575494|0.6984796273983624|0.3945796489715576|0.9183999300003052|-0.0291294027119875|0|0|0|-1|-1|3
2021-03-03 00:34:30.254 +0000|217398.2573897917|0.0778656005859375|0.8961029052734375|-0.128204345703125|217398.2374277917|0.6285658852868011|1.517892505681463|-1.160419759981077|0.212931215763092|1.507906198501587|0.2019403129816055|-0.2900438010692596|0.08287668228149414|-0.133322536945343|XArbitraryZVertical|-0.5561888173359582|0.4243887496602315|-0.1711796771019272|0.6937187268360104|0.3983964025974274|0.9169706702232361|-0.02109637670218945|0|0|0|-1|-1|3
2021-03-03 00:34:30.274 +0000|217398.277352375|0.0358123779296875|0.9638824462890625|-0.1803131103515625|217398.2573897917|0.6149210268962926|1.536463219770152|-1.15664987550212|0.2407455295324326|1.58306872844696|0.146057516336441|-0.3062705099582672|-0.02816134691238403|-0.1285817623138428|XArbitraryZVertical|-0.5507590377934566|0.4356120528358638|-0.1797687735290752|0.6889049369388883|0.4021720290184021|0.9154601097106934|-0.01381324324756861|0|0|0|-1|-1|3
2021-03-03 00:34:30.294 +0000|217398.297313375|0.1082305908203125|1.141128540039062|-0.13543701171875|217398.277352375|0.6068059617316939|1.562754138239218|-1.154159875079344|0.2050427943468094|1.803807497024536|0.09068392217159271|-0.3762161731719971|0.02725613117218018|-0.1497148275375366|XArbitraryZVertical|-0.5459762722673855|0.4475294890426573|-0.1889182621593516|0.6825958798921292|0.4046737849712372|0.9144552946090698|-0.003254533046856523|0|0|0|-1|-1|3
2021-03-03 00:34:30.314 +0000|217398.317275375|0.112762451171875|1.002716064453125|0.03448486328125|217398.297313375|0.5798249631754756|1.574843047031148|-1.153278177543404|1.015243411064148|1.819996118545532|-0.0111504765227437|-0.3136321604251862|0.1849774122238159|-0.1588369607925415|XArbitraryZVertical|-0.5384808320431955|0.4591936960885894|-0.2010695056221327|0.6773114152034235|0.4054901003837585|0.9140981435775757|0.001640914008021355|0|0|0|-1|-1|3
2021-03-03 00:34:30.334 +0000|217398.337237375|0.20074462890625|0.8365631103515625|0.0550537109375|217398.317275375|0.5100405900889555|1.546438137796031|-1.155284390482664|1.820424914360046|1.794313788414001|-0.2775720357894897|-0.2810565531253815|0.1737743020057678|0.02003955841064453|XArbitraryZVertical|-0.5257565484758343|0.4676155918812662|-0.2178042188037904|0.6763705537313136|0.403538852930069|0.9149097800254822|-0.00983142014592886|0|0|0|-1|-1|3
2021-03-03 00:34:30.353 +0000|217398.357199375|0.31109619140625|0.5610198974609375|0.0669097900390625|217398.337237375|0.4063688592022505|1.489977013036847|-1.161947672382146|2.104215145111084|2.001522779464722|-0.4908275008201599|-0.2393343150615692|-0.06433814764022827|0.09714329242706299|XArbitraryZVertical|-0.5095090774230584|0.4736591487501176|-0.2404408478509941|0.6769311557637464|0.3962556719779968|0.917579174041748|-0.03209502249956131|0|0|0|-1|-1|3
2021-03-03 00:34:30.374 +0000|217398.377160375|0.18194580078125|0.4565582275390625|0.1019134521484375|217398.357199375|0.3187515260853322|1.44579179671906|-1.167828785859252|1.099927425384521|1.579631209373474|-0.5543822050094604|-0.07276025414466858|-0.2645972967147827|0.1468849182128906|XArbitraryZVertical|-0.4957670481099124|0.4793417869049701|-0.2608003571907448|0.6755958361210903|0.3890901803970337|0.9199013113975525|-0.04889297112822533|0|0|0|-1|-1|3
2021-03-03 00:34:30.393 +0000|217398.397122375|0.248626708984375|0.931976318359375|0.134735107421875|217398.377160375|0.2887276747320988|1.449542012257089|-1.181896609166287|-0.06588742882013321|1.633981347084045|-0.8930363059043884|-0.1801739633083344|-0.5272707343101501|0.08855760097503662|XArbitraryZVertical|-0.4919725526907032|0.4848002216211534|-0.2760891258965764|0.668361143407499|0.3763867020606995|0.9253268241882324|-0.04586350545287132|0|0|0|-1|-1|3
2021-03-03 00:34:30.414 +0000|217398.417084375|0.30352783203125|1.007369995117188|0.2666473388671875|217398.397122375|0.3082425541497686|1.50131702758235|-1.200784085919357|-0.7185888886451721|1.650522232055664|-0.896097719669342|-0.143453985452652|-0.0795244574546814|0.1430405378341675|XArbitraryZVertical|-0.4946294405970246|0.4927362696001827|-0.2881845743310112|0.6553642804194934|0.3607543408870697|0.9323229193687439|-0.02510537020862103|0|0|0|-1|-1|3
2021-03-03 00:34:30.433 +0000|217398.437045375|0.2435760498046875|1.053512573242188|0.34173583984375|217398.417084375|0.3492188737549092|1.56935320896333|-1.218587229757062|-0.7068435549736023|1.350168347358704|-0.8391638398170471|-0.03953701257705688|0.06047171354293823|0.2379246354103088|XArbitraryZVertical|-0.4994665829778769|0.5002841338029408|-0.2974191253121716|0.6417093852649927|0.3449722230434418|0.9386129379272461|-0.0004978359211236238|0|0|0|-1|-1|3
2021-03-03 00:34:30.454 +0000|217398.457007375|0.1834716796875|1.037887573242188|0.2965087890625|217398.437045375|0.3835874516854159|1.626931209140394|-1.234628207168823|-0.4476046860218048|1.247373342514038|-0.7525985240936279|-0.06835103034973145|0.1118215322494507|0.3201764822006226|XArbitraryZVertical|-0.5033201126491936|0.5058880016554499|-0.3061356221009623|0.6301009353031635|0.3293525874614716|0.9440256357192993|0.01850761286914349|0|0|0|-1|-1|3
2021-03-03 00:34:30.473 +0000|217398.476969375|0.1630706787109375|0.85064697265625|0.3126068115234375|217398.457007375|0.4108200820274011|1.677956086019459|-1.248811272704911|-0.4490377902984619|1.271809935569763|-0.7375347018241882|-0.1202690005302429|0.1149285435676575|0.2578105926513672|XArbitraryZVertical|-0.5055530283353503|0.5112133506000323|-0.3152082452636304|0.6194521199084944|0.3146354258060455|0.9486091136932373|0.03384590893983841|0|0|0|-1|-1|3
2021-03-03 00:34:30.493 +0000|217398.496931375|0.2204132080078125|1.169525146484375|0.3849639892578125|217398.476969375|0.4526440987614487|1.744608479077606|-1.261937366644857|-0.4806534051895142|1.450819492340088|-0.7692821621894836|-0.1383661031723022|-0.08514255285263062|0.2542858123779297|XArbitraryZVertical|-0.5084432880019764|0.517464625042782|-0.3237365092089571|0.6073800813079737|0.2993921041488647|0.9526810050010681|0.05256843194365501|0|0|0|-1|-1|3
2021-03-03 00:34:30.513 +0000|217398.516892375|0.30267333984375|1.37255859375|0.3366241455078125|217398.496931375|0.4512008073847649|1.772980545304734|-1.27900843935192|1.163655042648315|1.470644474029541|-0.9077738523483276|-0.08299934864044189|0.110491156578064|0.3144264221191406|XArbitraryZVertical|-0.5067751560964772|0.5215955890532114|-0.3372541339222223|0.5978100438459785|0.2818061411380768|0.9577310681343079|0.05776603519916534|0|0|0|-1|-1|3
2021-03-03 00:34:30.533 +0000|217398.536854375|0.2402496337890625|1.176162719726562|0.3985748291015625|217398.516892375|0.2942621586876237|1.649038238448016|-1.304602667785455|3.354003429412842|1.166424512863159|-1.009120345115662|0.032085120677948|0.3931921720504761|0.3528668880462646|XArbitraryZVertical|-0.4931956011009456|0.5167579979063058|-0.361774775703731|0.5990312607871096|0.262256920337677|0.9647791981697083|0.020561458542943|0|0|0|-1|-1|3
2021-03-03 00:34:30.553 +0000|217398.556816375|0.381683349609375|0.925079345703125|0.3431243896484375|217398.536854375|-0.02446942178284547|1.362896619043737|-1.323715729104666|4.775064468383789|1.313432455062866|-1.594116449356079|0.0149034857749939|0.2991072535514832|0.3844352960586548|XArbitraryZVertical|-0.4712080026472827|0.5027149181196875|-0.3946041355508784|0.6078884365251449|0.2393079251050949|0.9696305394172668|-0.05048145726323128|0|0|0|-1|-1|3
2021-03-03 00:34:30.573 +0000|217398.576778375|0.3370208740234375|1.371505737304688|0.2665863037109375|217398.556816375|-0.4881430233014571|0.9415177926292743|-1.310732639871346|6.22661018371582|1.253812193870544|-1.672740340232849|0.1432022452354431|-0.004001736640930176|0.4918286800384521|XArbitraryZVertical|-0.4401601252022133|0.4801947916930669|-0.438981072722745|0.6188438283776239|0.2078872323036194|0.96637362241745|-0.151344045996666|0|0|0|-1|-1|3
2021-03-03 00:34:30.593 +0000|217398.596739375|0.3593597412109375|1.328292846679688|0.0997772216796875|217398.576778375|-0.909623411723317|0.5614426953685751|-1.229286113381029|8.013531684875488|1.124539017677307|-1.93706476688385|0.1545616090297699|0.3015701174736023|0.5917555093765259|XArbitraryZVertical|-0.3983356963245319|0.4467437477302196|-0.4883687746766617|0.6350153466910324|0.1783088445663452|0.9422499537467957|-0.2834973931312561|0|0|0|-1|-1|3
2021-03-03 00:34:30.613 +0000|217398.616701375|0.38446044921875|0.7660980224609375|-0.076446533203125|217398.596739375|-1.176580467051374|0.3351062483569289|-1.08640564441222|9.270615577697754|0.8294965028762817|-1.609969735145569|0.2096942961215973|0.522939145565033|0.5855948328971863|XArbitraryZVertical|-0.3447404938088041|0.4015852115891952|-0.5401165140280024|0.6543374694831842|0.153144434094429|0.8849588632583618|-0.4397666156291962|0|0|0|-1|-1|3
2021-03-03 00:34:30.633 +0000|217398.636663375|0.35198974609375|0.5247955322265625|-0.3440093994140625|217398.616701375|-1.325222508827631|0.2234394484881321|-0.9144350325547754|9.188907623291016|0.6077049970626831|-1.35275673866272|0.2426033020019531|0.1110565662384033|0.5391602516174316|XArbitraryZVertical|-0.2843270053139523|0.3487461890709346|-0.5873497340163317|0.6727218636493781|0.1352195888757706|0.7922179698944092|-0.5950685143470764|0|0|0|-1|-1|3
2021-03-03 00:34:30.653 +0000|217398.656625375|0.277984619140625|0.6183624267578125|-0.722991943359375|217398.636663375|-1.411267095816806|0.1707275094508234|-0.7480446507023426|8.139312744140625|0.5197548866271973|-1.088221192359924|0.2368342280387878|-0.1645359992980957|0.4730803966522217|XArbitraryZVertical|-0.2256317146770667|0.2964939978347684|-0.6251951082221479|0.685793565966021|0.1245396658778191|0.6802067756652832|-0.722363293170929|0|0|0|-1|-1|3
2021-03-03 00:34:30.673 +0000|217398.676586375|0.2826080322265625|0.5391845703125|-0.8168487548828125|217398.656625375|-1.463122383712554|0.1482481522766851|-0.6091179062555436|6.262721061706543|0.5044563412666321|-0.7337806224822998|0.1772290468215942|0.0537559986114502|0.1567534208297729|XArbitraryZVertical|-0.1753368665981915|0.252345878614161|-0.6520641765650583|0.6931024277819103|0.1211412996053696|0.5721442103385925|-0.8111571073532104|0|0|0|-1|-1|3
2021-03-03 00:34:30.693 +0000|217398.696548375|0.3161468505859375|0.60552978515625|-0.8775787353515625|217398.676586375|-1.49576454752812|0.1408932666442169|-0.5086422603332262|4.044475555419922|0.4910230934619904|-0.5683516263961792|0.1480710506439209|0.07152563333511353|0.07840543985366821|XArbitraryZVertical|-0.1376592373294042|0.2206218054894817|-0.6695625769025878|0.6957456395604404|0.1226503700017929|0.486991822719574|-0.864751935005188|0|0|0|-1|-1|3
2021-03-03 00:34:30.713 +0000|217398.716510375|0.291473388671875|0.4750518798828125|-0.883392333984375|217398.696548375|-1.513821162315165|0.1402659178418326|-0.4553641177740745|1.325048804283142|0.2712147235870361|-0.2633298337459564|0.1939282268285751|0.1473077833652496|0.01280051469802856|XArbitraryZVertical|-0.1168087540721134|0.2042435340540673|-0.6788113333294494|0.6955972923988141|0.1255602836608887|0.439789354801178|-0.8892806172370911|0|0|0|-1|-1|3
2021-03-03 00:34:30.733 +0000|217398.736471375|0.3336944580078125|0.77801513671875|-0.7996368408203125|217398.716510375|-1.518937175420547|0.1424739588377894|-0.4557899319497971|-1.03971791267395|0.1771753132343292|-0.2631735801696777|0.1632592678070068|0.0492996871471405|0.007407009601593018|XArbitraryZVertical|-0.115686842158436|0.2054475596315861|-0.6806941093926948|0.6935873235543204|0.1274969428777695|0.4401717483997345|-0.888815701007843|0|0|0|-1|-1|3
2021-03-03 00:34:30.753 +0000|217398.756433375|0.3906707763671875|0.7253875732421875|-0.6565093994140625|217398.736471375|-1.521038692793776|0.1435382726476518|-0.485595363563016|-1.672921061515808|0.005422994960099459|-0.3095840513706207|0.1919262707233429|0.2243508100509644|0.03551942110061646|XArbitraryZVertical|-0.125751964034229|0.2157205969865613|-0.6798476045235872|0.6895348280968225|0.1265093833208084|0.4667349755764008|-0.8753021359443665|0|0|0|-1|-1|3
2021-03-03 00:34:30.773 +0000|217398.776395375|0.31243896484375|0.8057098388671875|-0.611480712890625|217398.756433375|-1.521776775901535|0.1403024669204292|-0.5200744097742742|-1.759548902511597|-0.3692522346973419|-0.3042920827865601|0.2686159312725067|0.2791325449943542|0.1936057209968567|XArbitraryZVertical|-0.1390426597147569|0.225919388533643|-0.6777953316645167|0.6857265868164779|0.1213529333472252|0.4969447255134583|-0.8592551350593567|0|0|0|-1|-1|3
2021-03-03 00:34:30.793 +0000|217398.796357375|0.19390869140625|0.7239990234375|-0.6303558349609375|217398.776395375|-1.524761808697482|0.126529119753384|-0.5551659210114963|-1.683192372322083|-0.8437047600746155|-0.3546487092971802|0.22975093126297|0.2168884873390198|0.2194995880126953|XArbitraryZVertical|-0.1557889265862627|0.2328520099553023|-0.6754082829334322|0.6821536084252777|0.1072394177317619|0.5270842909812927|-0.8430194854736328|0|0|0|-1|-1|3
2021-03-03 00:34:30.813 +0000|217398.816318375|0.147674560546875|0.6706085205078125|-0.6350555419921875|217398.796357375|-1.526247777693516|0.1063562323176667|-0.5897341747897744|-1.763054013252258|-1.052558302879333|-0.1737842112779617|0.1301588863134384|0.2306793332099915|0.2027047276496887|XArbitraryZVertical|-0.1745703326092904|0.2373372235100413|-0.6715797994616586|0.6798358712803545|0.08822489529848099|0.556140124797821|-0.8263924717903137|0|0|0|-1|-1|3
2021-03-03 00:34:30.833 +0000|217398.836280375|0.08294677734375|0.820037841796875|-0.6146087646484375|217398.816318375|-1.525438173722544|0.08572306315429819|-0.6284967422999819|-2.115850925445557|-1.055618524551392|-0.1231232658028603|0.08647364377975464|0.06810694932937622|0.1773408651351929|XArbitraryZVertical|-0.1951091720841533|0.2428197845133456|-0.6660280163869805|0.6777740315672296|0.06925754249095917|0.5879294276237488|-0.8059419393539429|0|0|0|-1|-1|3
2021-03-03 00:34:30.853 +0000|217398.856242375|0.077239990234375|0.94378662109375|-0.73895263671875|217398.836280375|-1.522854681623751|0.06769153459680768|-0.6721704517623527|-2.188862323760986|-0.8630433678627014|-0.02359755709767342|0.04834628105163574|0.1522012948989868|0.1479285359382629|XArbitraryZVertical|-0.21654384229438|0.2505369263427369|-0.6590595168615239|0.6752634380334983|0.05292629078030586|0.6226857900619507|-0.7806800007820129|0|0|0|-1|-1|3
2021-03-03 00:34:30.872 +0000|217398.876204375|0.0093536376953125|0.9697723388671875|-0.7952880859375|217398.856242375|-1.519969518830977|0.05378594516657292|-0.7129278748453511|-1.77623987197876|-0.7232179045677185|0.004505360033363104|0.03910615667700768|0.2707990407943726|0.06359905004501343|XArbitraryZVertical|-0.2354927988035224|0.2585827301974751|-0.6521713307768408|0.6725701967890926|0.04066677019000053|0.6540513634681702|-0.7553562521934509|0|0|0|-1|-1|3
2021-03-03 00:34:30.893 +0000|217398.896165375|-0.084503173828125|1.16766357421875|-0.8018798828125|217398.876204375|-1.518322903227662|0.04181132198047839|-0.7396412013809324|-0.7823792099952698|-0.5008668899536133|0.001720048603601754|-0.001748442649841309|0.2917211055755615|-0.06308263540267944|XArbitraryZVertical|-0.2487262507240679|0.2628741688725212|-0.6471188540434314|0.6710213415823159|0.03087746165692806|0.674022912979126|-0.7380648255348206|0|0|0|-1|-1|3
2021-03-03 00:34:30.913 +0000|217398.916127375|-0.0318450927734375|1.018356323242188|-0.7426300048828125|217398.916127375|-1.525514466603192|0.03529752439484712|-0.6913307661904788|3.568867683410645|0.3192929327487946|-0.2084433883428574|-0.06664673984050751|0.4529368281364441|-0.01482588052749634|XArbitraryZVertical|-0.2334362932403404|0.2460656767787564|-0.6542712936747672|0.6759350585030283|0.02718750387430191|0.6375629901885986|-0.7699183821678162|0|0|0|-1|-1|3
2021-03-03 00:34:30.933 +0000|217398.936089375|-0.106536865234375|0.420745849609375|-0.6507720947265625|217398.936089375|-1.532341174397768|0.04177206591509506|-0.6100866908756415|4.402958869934082|0.8405166268348694|-0.09903905540704727|-0.1108712702989578|-0.03410488367080688|0.1949362754821777|XArbitraryZVertical|-0.2025528037736948|0.2225548547617946|-0.6657457138797168|0.6828062299735173|0.03422636166214943|0.5729385018348694|-0.8188834190368652|0|0|0|-1|-1|3
2021-03-03 00:34:30.952 +0000|217398.956050375|-0.088714599609375|0.5986785888671875|-0.891754150390625||||||||||||||||||||||||3
2021-03-03 00:34:30.972 +0000|217398.976012375|0.0588226318359375|0.62615966796875|-1.0167236328125|217398.956050375|-1.540491856962744|0.06111259177066451|-0.51260662430658|5.597730159759521|1.447742342948914|-0.07991134375333786|-0.1583881825208664|-0.01318609714508057|0.02366602420806885|XArbitraryZVertical|-0.161288107484715|0.1976487748373543|-0.6788103280233231|0.6885766315924048|0.0532245896756649|0.4904505014419556|-0.8698422312736511|0|0|0|-1|-1|3
2021-03-03 00:34:30.992 +0000|217398.995974375|0.1288604736328125|0.02911376953125|-0.9093170166015625|217398.976012375|-1.55105321770237|0.08705356679242753|-0.3870652896834018|6.567248344421387|1.517036914825439|0.07012636214494705|-0.05708940327167511|0.3603357672691345|-0.09739851951599121|XArbitraryZVertical|-0.1073069167743771|0.1650094859256161|-0.6923471344062124|0.694199203029936|0.08051163703203201|0.3774724304676056|-0.9225142002105713|0|0|0|-1|-1|3
2021-03-03 00:34:31.012 +0000|217399.015936375|0.1036834716796875|0.3100738525390625|-0.95965576171875|217398.995974375|-1.561540461787821|0.1114141092475743|-0.279170085510584|3.908447742462158|1.353117108345032|-0.1566687971353531|0.02373600751161575|-0.1538538932800293|0.04112452268600464|XArbitraryZVertical|-0.05987556069330365|0.1369406269058192|-0.7014030377700214|0.696918870346288|0.1068792119622231|0.2755579650402069|-0.9553243517875671|0|0|0|-1|-1|3
2021-03-03 00:34:31.032 +0000|217399.035897375|0.157745361328125|0.524017333984375|-0.8605194091796875|217399.015936375|-1.575778137193028|0.1348509676553658|-0.230966142167999|1.284467577934265|1.355344295501709|-0.5857840776443481|-0.02270305156707764|-0.06052213907241821|-0.01080995798110962|XArbitraryZVertical|-0.03364830036219095|0.1287001175164632|-0.7080201573460747|0.6935500714552567|0.1308726072311401|0.228918120265007|-0.9646081328392029|0|0|0|-1|-1|3
2021-03-03 00:34:31.052 +0000|217399.055859375|0.143218994140625|0.48876953125|-0.879974365234375|217399.035897375|-1.590785406872391|0.1586360758988329|-0.2212763819408108|0.1012149751186371|1.378966212272644|-0.7406466603279114|-0.005194142460823059|0.2957989573478699|0.09134340286254883|XArbitraryZVertical|-0.02080759006437918|0.1337276451791298|-0.7136646619099112|0.6872894314180112|0.1541199088096619|0.2194750607013702|-0.9633679389953613|0|0|0|-1|-1|3
2021-03-03 00:34:31.072 +0000|217399.075821375|0.204010009765625|0.329010009765625|-0.9075469970703125|217399.055859375|-1.606912833292441|0.1840458739723678|-0.2283153189471389|-0.5505712032318115|1.523955345153809|-0.9229336977005005|-0.03665781021118164|0.29073765873909|0.09009075164794922|XArbitraryZVertical|-0.01303379767897646|0.145019942743244|-0.7193162880027923|0.6792521297969536|0.1782593578100204|0.226336881518364|-0.9575986862182617|0|0|0|-1|-1|3
2021-03-03 00:34:31.092 +0000|217399.095782375|0.2445526123046875|0.295135498046875|-0.8894500732421875|217399.075821375|-1.623581016424758|0.2095751615586359|-0.2519450398572485|-1.603575706481934|1.387635350227356|-1.17698347568512|-0.01325914263725281|0.1241860240697861|0.03159016370773315|XArbitraryZVertical|-0.0107058095361608|0.162066672266457|-0.724867328847856|0.6694679027974419|0.2014762908220291|0.2492880672216415|-0.9472395777702332|0|0|0|-1|-1|3
2021-03-03 00:34:31.112 +0000|217399.115744375|0.3017730712890625|0.3574676513671875|-0.79693603515625|217399.095782375|-1.640886333391057|0.2278043666808771|-0.3062221626882878|-3.462962865829468|0.8367471694946289|-1.635519862174988|0.01847746968269348|-0.01491391658782959|0.01954394578933716|XArbitraryZVertical|-0.02116370586540307|0.1874279489796558|-0.7300270068607689|0.6568740321077756|0.215332955121994|0.3014587163925171|-0.9288457036018372|0|0|0|-1|-1|3
