loggingTime(txt)|accelerometerTimestamp_sinceReboot(s)|accelerometerAccelerationX(G)|accelerometerAccelerationY(G)|accelerometerAccelerationZ(G)|motionTimestamp_sinceReboot(s)|motionYaw(rad)|motionRoll(rad)|motionPitch(rad)|motionRotationRateX(rad/s)|motionRotationRateY(rad/s)|motionRotationRateZ(rad/s)|motionUserAccelerationX(G)|motionUserAccelerationY(G)|motionUserAccelerationZ(G)|motionAttitudeReferenceFrame(txt)|motionQuaternionX(R)|motionQuaternionY(R)|motionQuaternionZ(R)|motionQuaternionW(R)|motionGravityX(G)|motionGravityY(G)|motionGravityZ(G)|motionMagneticFieldX(µT)|motionMagneticFieldY(µT)|motionMagneticFieldZ(µT)|motionHeading(°)|motionMagneticFieldCalibrationAccuracy(Z)|label
2021-03-03 00:38:24.905 +0000|217632.8439424167|-0.165985107421875|-0.1050872802734375|-0.9252166748046875|217632.8239814167|-0.952220569407509|-0.1116687988170591|0.1109053437914252|-0.02628092654049397|0.05680826306343079|0.08887315541505814|0.06854637712240219|0.06358948349952698|-0.01123523712158203|XArbitraryZVertical|0.02364573180134677|-0.07488548295573265|-0.4596568744774353|0.8846178663419679|-0.1107522249221802|-0.1106781288981438|-0.9876660704612732|0|0|0|-1|-1|3
2021-03-03 00:38:24.907 +0000|217632.8639034167|-0.0025177001953125|-0.15106201171875|-0.9639739990234375|217632.8439424167|-0.9499730914173952|-0.1107558239888285|0.1104390829533441|-0.0118341101333499|0.1769500076770782|0.1109068989753723|-0.02974653989076614|-0.009139560163021088|0.05144715309143066|XArbitraryZVertical|0.0237322230371474|-0.07434915422669355|-0.4586460721569529|0.8851851814630449|-0.1098561584949493|-0.1102147176861763|-0.9878179430961609|0|0|0|-1|-1|3
2021-03-03 00:38:24.908 +0000|217632.8838644167|-0.11016845703125|-0.1334686279296875|-0.971771240234375|217632.8639034167|-0.9494022869841265|-0.1078232966321672|0.1089803310996247|-0.137304961681366|0.02398021891713142|-0.001281422795727849|0.07140780240297318|-0.03094476461410522|0.03893858194351196|XArbitraryZVertical|0.02377774695423331|-0.07271371047933325|-0.4583414298589212|0.8854776240982694|-0.1069760769605637|-0.1087647378444672|-0.9882946610450745|0|0|0|-1|-1|3
2021-03-03 00:38:24.909 +0000|217632.9038264167|-0.0782012939453125|-0.1190948486328125|-0.9976806640625|217632.8838644167|-0.9500497480007589|-0.1085194009653836|0.106115578050133|-0.1437772512435913|0.04762536287307739|-0.06399966031312943|0.005188725888729095|-0.03136681020259857|0.01663237810134888|XArbitraryZVertical|0.02232259430594761|-0.07238005535670415|-0.4586024930718211|0.885407610860122|-0.1076973080635071|-0.1059165373444557|-0.9885256290435791|0|0|0|-1|-1|3
2021-03-03 00:38:24.920 +0000|217632.9237874167|-0.0930023193359375|-0.1023406982421875|-0.9903106689453125|217632.9038264167|-0.9507216082126444|-0.1089330753370951|0.1022343895558483|-0.1421482115983963|0.01334217097610235|0.01258228439837694|0.04156071692705154|-0.01786245405673981|-0.008889973163604736|XArbitraryZVertical|0.02048030283095173|-0.07168993119238214|-0.4588568703493872|0.8853764975373963|-0.1081501021981239|-0.1020563915371895|-0.9888822436332703|0|0|0|-1|-1|3
2021-03-03 00:38:24.940 +0000|217632.9437484167|-0.104400634765625|-0.1019287109375|-0.982147216796875|217632.9237874167|-0.9505822742068091|-0.1075234735919721|0.1006005822397029|-0.07662114500999451|0.04148049280047417|0.03567739203572273|0.006233617663383484|-0.0005669668316841125|0.000718533992767334|XArbitraryZVertical|0.02008325664026796|-0.07069363672763444|-0.4587605791623935|0.8855155719178973|-0.106773816049099|-0.1004309803247452|-0.9891981482505798|0|0|0|-1|-1|3
2021-03-03 00:38:24.960 +0000|217632.9637094167|-0.09625244140625|-0.10223388671875|-0.96905517578125|217632.9637094167|-0.947836165795347|-0.1045299434580298|0.101007071950918|0.01284766755998135|0.08488229662179947|0.08407821506261826|-0.001874528825283051|0.00163799524307251|0.01744204759597778|XArbitraryZVertical|0.02104572962387509|-0.06943160190156025|-0.4575183384850383|0.8862354744665287|-0.1038078814744949|-0.1008354052901268|-0.9894726872444153|0|0|0|-1|-1|3
2021-03-03 00:38:24.980 +0000|217632.9836704167|-0.0827789306640625|-0.099395751953125|-0.975494384765625||||||||||||||||||||||||3
2021-03-03 00:38:25.000 +0000|217633.0036324167|-0.096160888671875|-0.0758514404296875|-0.9948577880859375|217632.9836704167|-0.9464699428260509|-0.1031757431867181|0.1013089578901282|-0.01169206388294697|0.02256150171160698|0.06212551146745682|0.02249335497617722|-0.007003307342529297|0.01630014181137085|XArbitraryZVertical|0.0215367111411955|-0.06888516975993172|-0.4569018702858012|0.8865843827092083|-0.1024647057056427|-0.1011357456445694|-0.9895820021629333|0|0|0|-1|-1|3
2021-03-03 00:38:25.020 +0000|217633.0235934167|-0.0952301025390625|-0.073089599609375|-1.005126953125|217633.0036324167|-0.9457362043910034|-0.1027653232452171|0.1014275132543302|0.02743724547326565|0.0145840011537075|0.01374688465148211|0.005209751427173615|0.0219842717051506|0.001636028289794922|XArbitraryZVertical|0.02170837697866356|-0.06872209211560031|-0.4565735169188628|0.8867618602226703|-0.1020573228597641|-0.1012536957859993|-0.9896120429039001|0|0|0|-1|-1|3
2021-03-03 00:38:25.040 +0000|217633.0435544167|-0.104705810546875|-0.077911376953125|-1.00140380859375|217633.0235934167|-0.9458186129985883|-0.1022765928697725|0.1025107766808398|0.07474778592586517|0.002101287245750427|-0.03764377906918526|0.003661967813968658|0.03154578059911728|-0.01363694667816162|XArbitraryZVertical|0.02229869971058621|-0.06875109055262639|-0.4566167731890054|0.886722788174313|-0.1015623956918716|-0.1023313328623772|-0.9895521402359009|0|0|0|-1|-1|3
2021-03-03 00:38:25.060 +0000|217633.0635154167|-0.0996856689453125|-0.088104248046875|-0.9940185546875|217633.0435544167|-0.9465548458436932|-0.1026875339531271|0.1044102830593899|0.1093776375055313|-0.01822156086564064|-0.04645547270774841|0.005726970732212067|0.02846077084541321|-0.0156591534614563|XArbitraryZVertical|0.02302376113084616|-0.06937096671915967|-0.4569687044545602|0.8864746232883063|-0.1019489243626595|-0.1042206808924675|-0.9893151521682739|0|0|0|-1|-1|3
2021-03-03 00:38:25.080 +0000|217633.0834774167|-0.094512939453125|-0.1014556884765625|-0.9833831787109375|217633.0635154167|-0.9471457159731143|-0.1023427943945347|0.1067243393372862|0.1035241410136223|-0.0004709004424512386|-0.02159539423882961|-0.002832971513271332|0.022506944835186|-0.005490660667419434|XArbitraryZVertical|0.02411041245405209|-0.06974846795436278|-0.4572514001918413|0.8862703121818384|-0.1015829518437386|-0.1065218523144722|-0.9891076683998108|0|0|0|-1|-1|3
2021-03-03 00:38:25.100 +0000|217633.1034384167|-0.0752105712890625|-0.1147613525390625|-0.98785400390625|217633.0834774167|-0.947125032968262|-0.1021749456278193|0.1079262236260676|0.0642460435628891|0.006100609432905912|0.00944969616830349|0.005517534911632538|0.00961805135011673|0.004530131816864014|XArbitraryZVertical|0.02468360055830756|-0.06994568429247981|-0.4572527905470014|0.8862383108633484|-0.1014038026332855|-0.1077168211340904|-0.9889966249465942|0|0|0|-1|-1|3
2021-03-03 00:38:25.120 +0000|217633.1233994167|-0.0888824462890625|-0.103515625|-0.9813385009765625|217633.1034384167|-0.9468477159238536|-0.1022317971002848|0.107720988092471|-0.02095740102231503|-0.0272640585899353|-0.004642331972718239|0.02301681786775589|-0.001694388687610626|0.00125044584274292|XArbitraryZVertical|0.02458909632691769|-0.06992104865058876|-0.4571284633381754|0.8863070097843743|-0.1014622822403908|-0.1075127795338631|-0.9890128374099731|0|0|0|-1|-1|3
2021-03-03 00:38:25.140 +0000|217633.1433604167|-0.076690673828125|-0.1038970947265625|-0.9725799560546875|217633.1233994167|-0.9469453643437211|-0.103151954911827|0.1060292413940628|-0.06398356705904007|-0.05463437736034393|0.008243816904723644|0.0293927863240242|-0.002079486846923828|-0.001273095607757568|XArbitraryZVertical|0.02362353746387804|-0.06994743883024365|-0.4571648229052422|0.8863124148904593|-0.1023908630013466|-0.1058306843042374|-0.9890985488891602|0|0|0|-1|-1|3
2021-03-03 00:38:25.160 +0000|217633.1633224167|-0.094512939453125|-0.0964202880859375|-0.973175048828125|217633.1433604167|-0.9468382162336852|-0.1042805855454019|0.1034989458358511|-0.1317343860864639|-0.07220405340194702|0.03831330314278603|0.02164072543382645|-0.0009490549564361572|0.01661986112594604|XArbitraryZVertical|0.02224481846444751|-0.06987416824512163|-0.4571021798995448|0.8863860797315614|-0.1035346686840057|-0.1033142656087875|-0.9892455339431763|0|0|0|-1|-1|3
2021-03-03 00:38:25.180 +0000|217633.1832834167|-0.1070404052734375|-0.0851898193359375|-0.980010986328125|217633.1633224167|-0.9460240704314057|-0.1056888653026454|0.1001924107532593|-0.1680077463388443|-0.07210583239793777|0.07681311666965485|0.01223547011613846|-0.001079894602298737|0.01842480897903442|XArbitraryZVertical|0.0204818403105354|-0.06974216689842416|-0.4567175410397239|0.886637182075627|-0.1049631685018539|-0.1000248640775681|-0.9894330501556396|0|0|0|-1|-1|3
2021-03-03 00:38:25.215 +0000|217633.2032444167|-0.11846923828125|-0.0743255615234375|-0.9790802001953125|217633.1832834167|-0.944487778326263|-0.1065391409178692|0.0968984900907191|-0.1489428281784058|-0.03670762851834297|0.1138147115707397|0.001636572182178497|0.00972602516412735|0.012553870677948|XArbitraryZVertical|0.01887672301006815|-0.06936012941553543|-0.4560038516424597|0.8870701181493876|-0.105838879942894|-0.09674692898988724|-0.989665687084198|0|0|0|-1|-1|3
2021-03-03 00:38:25.220 +0000|217633.2232054167|-0.037567138671875|-0.1016998291015625|-0.9920654296875|217633.2032444167|-0.9421772010152633|-0.106135066367695|0.09448669088686301|-0.1005766093730927|0.04314837604761124|0.1396810263395309|-0.01450125128030777|0.02006635069847107|0.009758710861206055|XArbitraryZVertical|0.0179755678737629|-0.06861576574092754|-0.4549441042946119|0.8876906049936892|-0.1054633855819702|-0.09434615820646286|-0.9899374842643738|0|0|0|-1|-1|3
2021-03-03 00:38:25.240 +0000|217633.2431674167|-0.1074066162109375|-0.05615234375|-0.977783203125|217633.2431674167|-0.9407790593066802|-0.1073490731752177|0.08937693341402241|-0.1535549759864807|-0.05020681768655777|-0.001281156204640865|-0.00119483470916748|0.03215957432985306|0.01153063774108887|XArbitraryZVertical|0.01547318293024457|-0.06799273790950647|-0.4542653618975457|0.8881332192999747|-0.1067153587937355|-0.08925798535346985|-0.9902751445770264|0|0|0|-1|-1|3
2021-03-03 00:38:25.260 +0000|217633.2631284167|-0.075958251953125|-0.061126708984375|-0.9759521484375||||||||||||||||||||||||3
2021-03-03 00:38:25.279 +0000|217633.2830894167|-0.0837554931640625|-0.052703857421875|-0.9661712646484375|217633.2631284167|-0.9411680743443422|-0.108450737380362|0.08651052203516803|-0.1410796642303467|-0.07757431268692017|-0.001855866517871618|0.03521688282489777|0.02080509811639786|0.009938538074493408|XArbitraryZVertical|0.01393377902033686|-0.06783969647230964|-0.4544058918415403|0.8880985676197115|-0.1078334897756577|-0.08640265464782715|-0.9904072284698486|0|0|0|-1|-1|3
2021-03-03 00:38:25.299 +0000|217633.3030504167|-0.0693359375|-0.079071044921875|-0.9558563232421875|217633.2830894167|-0.9415229510922962|-0.1098852731017599|0.08403307972022692|-0.09110233187675476|-0.06130016222596169|0.0005780849605798721|0.02164603024721146|0.03499925136566162|0.02424424886703491|XArbitraryZVertical|0.01249306690732224|-0.06792120340159678|-0.4545366960957997|0.8880467570288886|-0.1092772930860519|-0.08393421024084091|-0.9904612898826599|0|0|0|-1|-1|3
2021-03-03 00:38:25.319 +0000|217633.3230114167|-0.0554656982421875|-0.09100341796875|-0.945648193359375|217633.3030504167|-0.9416868472567801|-0.1107590331152341|0.08243632467239174|-0.07876408845186234|-0.09298405796289444|0.008131342940032482|0.0364726185798645|0.008948184549808502|0.03346610069274902|XArbitraryZVertical|0.01157825813499498|-0.06795050781600286|-0.4545905819372629|0.8880293115605454|-0.11015734821558|-0.08234298974275589|-0.990497350692749|0|0|0|-1|-1|3
2021-03-03 00:38:25.339 +0000|217633.3429734167|-0.0730133056640625|-0.149444580078125|-0.9144287109375|217633.3230114167|-0.9416116910483592|-0.112666318855211|0.0808725269932245|-0.04804649204015732|-0.1575822830200195|0.02615233138203621|0.05738838016986847|-0.007731854915618896|0.04274988174438477|XArbitraryZVertical|0.01045136323190453|-0.06844470243665343|-0.4545432847249097|0.8880296133514329|-0.1120606511831284|-0.08078440278768539|-0.990412175655365|0|0|0|-1|-1|3
2021-03-03 00:38:25.360 +0000|217633.3629344167|-0.0307769775390625|-0.0587921142578125|-0.8665924072265625|217633.3429734167|-0.9402499470082942|-0.1158869824269515|0.07876733694470936|-0.09892438352108002|-0.2003718763589859|0.1657155603170395|0.05577521026134491|-0.04231630265712738|0.06522512435913086|XArbitraryZVertical|0.00882977688269539|-0.06939452516690482|-0.4539195514129805|0.8882925168926523|-0.1152692586183548|-0.07868590950965881|-0.9902128577232361|0|0|0|-1|-1|3
2021-03-03 00:38:25.379 +0000|217633.3828954167|-0.071502685546875|-0.1178131103515625|-0.8316802978515625|217633.3629344167|-0.9367404760410566|-0.1196502056132157|0.07477983086392878|-0.2586665749549866|-0.270187109708786|0.2156010866165161|0.06345878541469574|-0.004498235881328583|0.1152741312980652|XArbitraryZVertical|0.006323737360511703|-0.07015803238898621|-0.4523043863696966|0.8890773793713539|-0.1190313324332237|-0.07471015304327011|-0.9900757074356079|0|0|0|-1|-1|3
2021-03-03 00:38:25.399 +0000|217633.4028564167|-0.1220550537109375|-0.023529052734375|-0.799285888671875|217633.3828954167|-0.9323297172499335|-0.1266440316854911|0.06741174228847593|-0.3717105090618134|-0.4401850402355194|0.368980348110199|0.09302933514118195|-0.02941057085990906|0.1485974788665771|XArbitraryZVertical|0.00161760330644253|-0.0716119019077696|-0.4502130261457513|0.8900435390131973|-0.1260188817977905|-0.06736069917678833|-0.9897382259368896|0|0|0|-1|-1|3
2021-03-03 00:38:25.419 +0000|217633.4228184167|-0.253204345703125|-0.0220794677734375|-0.780731201171875|217633.4028564167|-0.9261869678440708|-0.1346256343775598|0.0599180107898389|-0.3423076570034027|-0.3381870090961456|0.2507851719856262|-0.00359480082988739|0.01903436332941055|0.1920084357261658|XArbitraryZVertical|-0.003294784635763211|-0.0735015296660107|-0.4473088204314419|0.8913481630523182|-0.1339784860610962|-0.05988216400146484|-0.9891733527183533|0|0|0|-1|-1|3
2021-03-03 00:38:25.439 +0000|217633.4427794167|-0.22845458984375|-0.1392364501953125|-0.7456817626953125|217633.4228184167|-0.9243352538869463|-0.1433888696949338|0.05166684520889441|-0.531769335269928|-0.5935538411140442|-0.269365519285202|-0.01375633478164673|0.01679276302456856|0.1892070770263672|XArbitraryZVertical|-0.008868524852962436|-0.0755844541865434|-0.4462516945791628|0.8916657863369232|-0.1427073329687119|-0.05164385959506035|-0.9884166717529297|0|0|0|-1|-1|3
2021-03-03 00:38:25.459 +0000|217633.4627404167|-0.199737548828125|-0.1727294921875|-0.7092437744140625|217633.4427794167|-0.9286176009798177|-0.1458177987802887|0.03919126928354368|-0.8031228184700012|-0.04540055617690086|-0.1570072770118713|-0.1113102734088898|-0.1158328205347061|0.2323257923126221|XArbitraryZVertical|-0.01514037501917628|-0.07387103152431838|-0.4478056901432406|0.890945537787255|-0.14519003033638|-0.03918123617768288|-0.9886276721954346|0|0|0|-1|-1|3
2021-03-03 00:38:25.479 +0000|217633.4827014167|-0.2063446044921875|-0.21405029296875|-0.681121826171875|217633.4627404167|-0.9367579747425306|-0.1473259844782988|0.02009339212761499|-1.200555324554443|-0.1443265527486801|-0.3555124700069427|-0.03408321738243103|-0.1452674865722656|0.2667689919471741|XArbitraryZVertical|-0.02428248762578264|-0.07018994358385038|-0.4508532069132236|0.8895028163015013|-0.1467639803886414|-0.02009204030036926|-0.9889674782752991|0|0|0|-1|-1|3
2021-03-03 00:38:25.499 +0000|217633.5026634167|-0.197265625|-0.19232177734375|-0.65606689453125|217633.4827014167|-0.9497018513805676|-0.1492337589117844|-0.006859887138003152|-1.666076421737671|-0.09842947125434875|-0.4836485981941223|-0.07332320511341095|-0.2065821439027786|0.3043985366821289|XArbitraryZVertical|-0.03712538914824329|-0.06473555752999463|-0.4557035850723988|0.8869979028253573|-0.1486769467592239|0.006859833374619484|-0.9888620376586914|0|0|0|-1|-1|3
2021-03-03 00:38:25.519 +0000|217633.52262425|-0.2977752685546875|-0.1897125244140625|-0.58062744140625|217633.5026634167|-0.9667329993956379|-0.1539566330518061|-0.04254870371162404|-2.131763458251953|-0.3422445356845856|-0.7057911157608032|-0.02972729504108429|-0.2465153783559799|0.318500280380249|XArbitraryZVertical|-0.05451309235720245|-0.05821911710888612|-0.4618329154978064|0.8833738060576151|-0.1532103717327118|0.04253586754202843|-0.9872776865959167|0|0|0|-1|-1|3
2021-03-03 00:38:25.539 +0000|217633.54258525|-0.2691192626953125|-0.095947265625|-0.564697265625|217633.52262425|-0.9915138849295467|-0.1622901669091001|-0.08725269415700458|-2.688713550567627|-0.2808953821659088|-1.002947092056274|-0.1229562908411026|-0.2661123871803284|0.3882113099098206|XArbitraryZVertical|-0.07675720527268061|-0.05055169403251843|-0.470571733727755|0.8775620661193503|-0.1609640419483185|0.08714202791452408|-0.9831057190895081|0|0|0|-1|-1|3
2021-03-03 00:38:25.559 +0000|217633.56254625|-0.362457275390625|0.066131591796875|-0.5381927490234375|217633.54258525|-1.022829930621874|-0.1723209770162538|-0.140901147752852|-3.116479873657227|-0.4468271732330322|-1.195804238319397|-0.09750285744667053|-0.292611300945282|0.4021075963973999|XArbitraryZVertical|-0.1031694198541754|-0.04053439872338921|-0.4811041390395254|0.8696274682765652|-0.1697701215744019|0.1404353827238083|-0.9754260778427124|0|0|0|-1|-1|3
2021-03-03 00:38:25.579 +0000|217633.58250725|-0.4280853271484375|0.213714599609375|-0.5636444091796875|217633.56254625|-1.061536898890882|-0.1884316703281648|-0.201849211768133|-3.57047963142395|-0.4764147400856018|-1.420979619026184|-0.1551990956068039|-0.151790589094162|0.4261623024940491|XArbitraryZVertical|-0.1338850335674751|-0.02994567445340859|-0.4932123831970966|0.8590224371105226|-0.1835155189037323|0.2004813402891159|-0.9623560905456543|0|0|0|-1|-1|3
2021-03-03 00:38:25.599 +0000|217633.60246925|-0.436004638671875|0.2751922607421875|-0.614227294921875|217633.58250725|-1.107072966034526|-0.2073742682867833|-0.2677987816742515|-3.850301504135132|-0.3456240296363831|-1.623335480690002|-0.2250622510910034|-0.09335994720458984|0.3760063052177429|XArbitraryZVertical|-0.1668778637699|-0.01745385125818951|-0.5064411253167204|0.8457922812700119|-0.1985522955656052|0.2646093368530273|-0.9436942934989929|0|0|0|-1|-1|3
2021-03-03 00:38:25.619 +0000|217633.62243025|-0.462493896484375|0.375335693359375|-0.637115478515625|217633.60246925|-1.160614945860849|-0.229832829079751|-0.3391315287024431|-4.221871376037598|-0.3054733574390411|-1.818631052970886|-0.2187544703483582|-0.06573095917701721|0.3130825757980347|XArbitraryZVertical|-0.2021637175829226|-0.002602695244323217|-0.5206710517990815|0.8294725464628175|-0.2148393243551254|0.3326682150363922|-0.9182460904121399|0|0|0|-1|-1|3
2021-03-03 00:38:25.639 +0000|217633.64239125|-0.530853271484375|0.56988525390625|-0.7642669677734375|217633.62243025|-1.222811543548537|-0.2593408787405135|-0.4158711561454879|-4.659379959106445|-0.3340974450111389|-1.930545687675476|-0.2170441746711731|-0.06502825021743774|0.2452277541160583|XArbitraryZVertical|-0.240248890552035|0.01390438344126525|-0.5350805783594734|0.8097999007136851|-0.2345854938030243|0.4039869904518127|-0.8841742873191833|0|0|0|-1|-1|3
2021-03-03 00:38:25.659 +0000|217633.66235225|-0.6630096435546875|0.884185791015625|-0.84759521484375|217633.64239125|-1.29492430999831|-0.2972872766855568|-0.4999073177605702|-5.190093994140625|-0.2971805930137634|-1.968741059303284|-0.2526540160179138|0.03039088845252991|0.1166411638259888|XArbitraryZVertical|-0.2816729607156159|0.0330991270251826|-0.548756451037027|0.786403991609657|-0.257081151008606|0.4793441891670227|-0.8391295671463013|0|0|0|-1|-1|3
2021-03-03 00:38:25.679 +0000|217633.68231425|-0.7455291748046875|1.149566650390625|-0.832489013671875|217633.66235225|-1.377560195463589|-0.3456997590706263|-0.5922295829444814|-5.744604110717773|-0.1807960420846939|-1.813462138175964|-0.3428759872913361|0.250640869140625|-0.05253309011459351|XArbitraryZVertical|-0.3264825479449632|0.05570561432861526|-0.5601278962953444|0.7593173902974868|-0.2811474800109863|0.5582122802734375|-0.780612051486969|0|0|0|-1|-1|3
2021-03-03 00:38:25.711 +0000|217633.70227525|-0.605316162109375|1.274749755859375|-0.7676239013671875|217633.70227525|-1.569736088176743|-0.4479348766299138|-0.7784158340918969|-5.347219944000244|1.271245837211609|-1.354725003242493|-0.360089898109436|0.5536307096481323|-0.16205233335495|XArbitraryZVertical|-0.4069783955863918|0.116095947743281|-0.5779196540050515|0.6977816002884449|-0.3083823919296265|0.7021523118019104|-0.6417806148529053|0|0|0|-1|-1|3
2021-03-03 00:38:25.719 +0000|217633.72223625|-0.42010498046875|1.3271484375|-0.721649169921875||||||||||||||||||||||||3
2021-03-03 00:38:25.738 +0000|217633.74219725|-0.3751983642578125|1.243484497070312|-0.7040252685546875|217633.72223625|-1.672520010901929|-0.5004841836269642|-0.8587146383373195|-5.097309112548828|1.08983051776886|-1.297271490097046|-0.1264324188232422|0.5575566291809082|-0.2017540335655212|XArbitraryZVertical|-0.437424142508033|0.1484079817740353|-0.5846678733788074|0.6669322793238639|-0.3135395348072052|0.7570033073425293|-0.5732703804969788|0|0|0|-1|-1|3
2021-03-03 00:38:25.758 +0000|217633.76215925|-0.2931976318359375|1.039794921875|-0.6927337646484375|217633.74219725|-1.78662429727592|-0.5652888978965258|-0.9303164365366142|-4.71605110168457|1.303849458694458|-1.18394672870636|-0.07586583495140076|0.4868414402008057|-0.1922212839126587|XArbitraryZVertical|-0.4642332247073437|0.1793849338253892|-0.5903179773928391|0.6354788318009322|-0.3200997710227966|0.8018090724945068|-0.5046170949935913|0|0|0|-1|-1|3
2021-03-03 00:38:25.778 +0000|217633.78212025|-0.2237396240234375|1.140548706054688|-0.5786895751953125|217633.76215925|-1.908219607592699|-0.6386760689234905|-0.9958770309757528|-4.657243251800537|1.345736145973206|-0.8566887378692627|0.01705905795097351|0.2298403382301331|-0.2703416347503662|XArbitraryZVertical|-0.4872677213836765|0.210425231454998|-0.5937836676430007|0.6047415334218379|-0.3241574764251709|0.8392361998558044|-0.4365827739238739|0|0|0|-1|-1|3
2021-03-03 00:38:25.799 +0000|217633.80208125|-0.1678466796875|1.199661254882812|-0.506805419921875|217633.78212025|-2.043696990413834|-0.7275423094046857|-1.059340454820626|-4.692108631134033|1.362915277481079|-0.5550098419189453|0.08311429619789124|0.2304451465606689|-0.2370449006557465|XArbitraryZVertical|-0.50831583606666|0.2425957161680772|-0.5942048449159195|0.5741801830504172|-0.3255001604557037|0.8720328807830811|-0.3655246496200562|0|0|0|-1|-1|3
2021-03-03 00:38:25.818 +0000|217633.82204225|-0.11065673828125|1.188766479492188|-0.389129638671875|217633.80208125|-2.197802862513945|-0.8375790162101424|-1.120357016766233|-4.622452735900879|1.312135815620422|-0.2421719878911972|0.1464822888374329|0.2978184223175049|-0.2389324903488159|XArbitraryZVertical|-0.5275105765889707|0.2757659897969237|-0.5911437275585814|0.5442746420134741|-0.3234842717647552|0.9002559185028076|-0.2913714349269867|0|0|0|-1|-1|3
2021-03-03 00:38:25.838 +0000|217633.84200325|-0.0478515625|1.06585693359375|-0.3848876953125|217633.82204225|-2.372706423321035|-0.9707413318210939|-1.173143677381976|-4.305170059204102|1.344993472099304|-0.04435627907514572|0.1901634037494659|0.2740877866744995|-0.1959180533885956|XArbitraryZVertical|-0.543803631326286|0.3081206897657115|-0.5860334166159342|0.5156590390137935|-0.3196037709712982|0.9219725728034973|-0.2186785042285919|0|0|0|-1|-1|3
2021-03-03 00:38:25.858 +0000|217633.86196525|0.0155487060546875|1.021163940429688|-0.265228271484375|217633.84200325|-2.562285313214967|-1.1201804277969|-1.215344488491171|-3.768411874771118|1.312727093696594|0.1670506000518799|0.2497222423553467|0.1580459475517273|-0.2411177158355713|XArbitraryZVertical|-0.5561467925666228|0.3389943215160102|-0.5799286988760121|0.4893530576266446|-0.313275158405304|0.9374893307685852|-0.1515671908855438|0|0|0|-1|-1|3
2021-03-03 00:38:25.878 +0000|217633.88192625|0.0499267578125|1.017715454101562|-0.1892242431640625|217633.86196525|-2.752698955139906|-1.274902713632562|-1.24660182499207|-3.334425926208496|1.181659817695618|0.4343613982200623|0.3087914884090424|0.08653151988983154|-0.195749044418335|XArbitraryZVertical|-0.5647667584102178|0.3668724670407585|-0.573077890673338|0.4669313611662191|-0.3047021627426147|0.9479076266288757|-0.09288620203733444|0|0|0|-1|-1|3
2021-03-03 00:38:25.898 +0000|217633.90188725|0.08538818359375|0.980987548828125|-0.152130126953125|217633.88192625|-2.94205745371346|-1.432279824043359|-1.26911375960122|-2.854959726333618|1.106224060058594|0.4632167518138885|0.333588182926178|0.0485343337059021|-0.172185480594635|XArbitraryZVertical|-0.5705964299295574|0.3923097358344256|-0.5657170729834839|0.4477466443368864|-0.294281542301178|0.9548379182815552|-0.04102557152509689|0|0|0|-1|-1|3
2021-03-03 00:38:25.918 +0000|217633.92184825|0.0787353515625|0.7926177978515625|-0.0956878662109375|217633.90188725|-3.125025520137036|-1.585226012371654|-1.280947855713777|-2.588178634643555|1.10661256313324|0.3974096775054932|0.3626667261123657|0.05346220731735229|-0.1636850833892822|XArbitraryZVertical|-0.5744981887514511|0.4147454832480095|-0.5593174850653363|0.4302349449980842|-0.2857777774333954|0.9582871794700623|0.004123969469219446|0|0|0|-1|-1|3
2021-03-03 00:38:25.938 +0000|217633.94181025|0.062164306640625|0.759552001953125|-0.010589599609375|217633.92184825|2.978897816603509|-1.735976708897159|-1.283569140342022|-2.473220109939575|0.9992582201957703|0.3417589366436005|0.3623389601707458|-0.1187926530838013|-0.1568726301193237|XArbitraryZVertical|-0.5777469379251425|0.4353154343701359|-0.5531590328053011|0.413187610658596|-0.2794379889965057|0.9590330719947815|0.04658210277557373|0|0|0|-1|-1|3
2021-03-03 00:38:25.958 +0000|217633.96177125|0.0765380859375|0.9257965087890625|-0.0316009521484375|217633.94181025|2.804598300653026|-1.883671058642402|-1.278715224335912|-2.552538156509399|0.973147988319397|0.3253568708896637|0.3404949605464935|-0.222676694393158|-0.1213125064969063|XArbitraryZVertical|-0.5808581989617303|0.4548822582989902|-0.546331815428498|0.3964938481121733|-0.2739665806293488|0.9576467275619507|0.08862823247909546|0|0|0|-1|-1|3
2021-03-03 00:38:25.978 +0000|217633.98173225|0.0788421630859375|0.9407501220703125|-0.016143798828125|217633.96177125|2.639277895235875|-2.022849515359835|-1.264428382094172|-2.42760968208313|0.869077205657959|0.1806112229824066|0.3419053256511688|-0.07147723436355591|-0.1509528160095215|XArbitraryZVertical|-0.5843821342483366|0.4736755225159344|-0.5391366283490178|0.3787621160530599|-0.2713029384613037|0.9534353017807007|0.1317419558763504|0|0|0|-1|-1|3
2021-03-03 00:38:25.998 +0000|217634.00169325|0.07794189453125|0.802459716796875|-0.0366668701171875|217633.98173225|2.505971972275411|-2.134908544833336|-1.244265520678174|-2.24138331413269|0.6147497892379761|0.06355687230825424|0.3508347868919373|0.01740825176239014|-0.2012535482645035|XArbitraryZVertical|-0.5883613759199491|0.4894694583182221|-0.5318729692674764|0.3624385331436564|-0.2710618376731873|0.9471608400344849|0.1714989244937897|0|0|0|-1|-1|3
2021-03-03 00:38:26.018 +0000|217634.02165525|0.03436279296875|0.8128662109375|-0.0644989013671875|217634.00169325|2.397787951973895|-2.226369218973927|-1.217645332770207|-2.264841318130493|0.433755099773407|-0.2061413675546646|0.3542682528495789|-0.1091861128807068|-0.2343979328870773|XArbitraryZVertical|-0.5937926341724096|0.5028215609085085|-0.5240874005773459|0.3462847709821598|-0.2741595804691315|0.9382875561714172|0.2108384221792221|0|0|0|-1|-1|3
2021-03-03 00:38:26.038 +0000|217634.04161625|-0.0437164306640625|0.841949462890625|-0.02630615234375|217634.02165525|2.312203908554321|-2.299877548788835|-1.181540161908879|-2.427303552627563|0.2052649557590485|-0.5990114212036133|0.3354400992393494|-0.1264399290084839|-0.3083286881446838|XArbitraryZVertical|-0.6021028987706517|0.5136931738852134|-0.5153788611517217|0.3285969859834057|-0.2830261588096619|0.9251915812492371|0.2528171539306641|0|0|0|-1|-1|3
2021-03-03 00:38:26.058 +0000|217634.06157725|-0.12786865234375|0.847808837890625|0.1803741455078125|217634.04161625|2.250904944603229|-2.35350752323835|-1.137119082338512|-2.35099196434021|0.08501806110143661|-0.9464917778968811|0.2769499719142914|-0.07090944051742554|-0.3507468998432159|XArbitraryZVertical|-0.6131597837063993|0.5217298947586901|-0.5061278894369908|0.3093015726183623|-0.2979307770729065|0.907426655292511|0.2963339984416962|0|0|0|-1|-1|3
2021-03-03 00:38:26.078 +0000|217634.08153825|-0.173126220703125|0.8243408203125|0.362335205078125|217634.08153825|2.205611594658593|-2.390369577348332|-1.047491558054979|-1.613120317459106|-0.02007458917796612|-1.377127289772034|0.1865520179271698|-0.0470956563949585|-0.04831644892692566|XArbitraryZVertical|-0.6362008813838569|0.5271330173314499|-0.4933865266627148|0.2719358954741131|-0.3410930931568146|0.8661723732948303|0.3652415573596954|0|0|0|-1|-1|3
2021-03-03 00:38:26.098 +0000|217634.10150025|-0.3647918701171875|0.98162841796875|0.4620208740234375|217634.10150025|2.210364045448637|-2.389785743704034|-1.007048272083403|-1.093456506729126|-0.2932823300361633|-1.548773169517517|0.06271412968635559|0.09820789098739624|0.06469199061393738|XArbitraryZVertical|-0.6484687494460675|0.5240713535967755|-0.4888289108009468|0.2566783611619032|-0.3649449944496155|0.8452582359313965|0.3903250098228455|0|0|0|-1|-1|3
2021-03-03 00:38:26.118 +0000|217634.12146125|-0.581695556640625|0.9449310302734375|0.3642578125||||||||||||||||||||||||3
2021-03-03 00:38:26.138 +0000|217634.14142225|-0.61785888671875|0.9256439208984375|0.2660064697265625|217634.12146125|2.235192115436625|-2.374565609864713|-0.9756129072122148|-0.1741345673799515|-0.2205467522144318|-1.610307812690735|-0.150438129901886|0.1492798328399658|0.008110761642456055|XArbitraryZVertical|-0.6597078355231062|0.5163497346341377|-0.4874758430309374|0.2460404551593422|-0.3890974223613739|0.828045666217804|0.4036629498004913|0|0|0|-1|-1|3
2021-03-03 00:38:26.158 +0000|217634.16138325|-0.59906005859375|0.8535614013671875|0.2387542724609375|217634.14142225|2.283163989903775|-2.338944499513647|-0.9569704609735248|0.7210400104522705|-0.2171147912740707|-1.648702263832092|-0.2068053483963013|0.1010067462921143|-0.1273797750473022|XArbitraryZVertical|-0.668187823458297|0.5036154696647337|-0.4917006656129615|0.241095524238819|-0.4142579138278961|0.8174502849578857|0.4002070128917694|0|0|0|-1|-1|3
2021-03-03 00:38:26.178 +0000|217634.18134525|-0.5830841064453125|0.749603271484375|0.3423919677734375|217634.16138325|2.352694878602565|-2.288912176345059|-0.9476016835981725|1.636538505554199|-0.4432762861251831|-1.756836891174316|-0.165477842092514|0.07564687728881836|-0.1630941927433014|XArbitraryZVertical|-0.6754588577317473|0.4855521274037465|-0.4993768891708267|0.2421102937006934|-0.4395027458667755|0.812018096446991|0.3840110599994659|0|0|0|-1|-1|3
2021-03-03 00:38:26.213 +0000|217634.20130625|-0.548431396484375|0.790191650390625|0.3662109375|217634.18134525|2.447908559413125|-2.222339180599848|-0.9473776218158187|2.662200450897217|-0.6118870973587036|-1.782036662101746|-0.1230913698673248|-0.05486828088760376|-0.02744916081428528|XArbitraryZVertical|-0.6812548347642969|0.4614199847627056|-0.5102332811991295|0.2502908115620591|-0.4642194211483002|0.8118873238563538|0.3540331125259399|0|0|0|-1|-1|3
2021-03-03 00:38:26.218 +0000|217634.22126725|-0.501373291015625|0.7194366455078125|0.3411712646484375|217634.20130625|2.572367581553237|-2.134339446083371|-0.9539981575746811|3.662512540817261|-0.7131504416465759|-1.807309746742249|-0.07183849811553955|-0.0277402400970459|0.05534744262695312|XArbitraryZVertical|-0.6845586044290708|0.4311297016491606|-0.524394211505102|0.2655512732318531|-0.4889830648899078|0.8157346844673157|0.3089866042137146|0|0|0|-1|-1|3
2021-03-03 00:38:26.237 +0000|217634.24122825|-0.5094146728515625|0.649658203125|0.3076324462890625|217634.22126725|2.728175034690565|-2.022829585390011|-0.9621207251007656|4.518929481506348|-0.9032663106918335|-1.853799700737|0.007287323474884033|-0.07908827066421509|0.1055035442113876|XArbitraryZVertical|-0.6849948587480841|0.394534912873399|-0.5409134233799697|0.287292333450693|-0.5143521428108215|0.8204060196876526|0.2497515082359314|0|0|0|-1|-1|3
2021-03-03 00:38:26.257 +0000|217634.26118925|-0.548553466796875|0.5345001220703125|0.375701904296875|217634.24122825|2.907074817964165|-1.895987162710257|-0.9627198605601386|4.896581649780273|-1.102190852165222|-1.975805997848511|0.03908997774124146|-0.153542697429657|0.1327559649944305|XArbitraryZVertical|-0.6834090723347686|0.3524380715907721|-0.5574744209880792|0.3129882439791667|-0.5413482189178467|0.8207484483718872|0.1825211048126221|0|0|0|-1|-1|3
2021-03-03 00:38:26.277 +0000|217634.28115125|-0.625946044921875|0.5028228759765625|0.3336639404296875|217634.26118925|3.081753270989171|-1.776867848922886|-0.9487404964780541|4.360893249511719|-1.283411622047424|-2.019666194915771|0.03549689054489136|-0.2461233735084534|0.2460489273071289|XArbitraryZVertical|-0.6814639185301141|0.3085815569792503|-0.5713484865901187|0.3375578693555394|-0.5703784823417664|0.8126822113990784|0.1192312985658646|0|0|0|-1|-1|3
2021-03-03 00:38:26.297 +0000|217634.30111225|-0.710174560546875|0.530792236328125|0.28912353515625|217634.28115125|-3.056763974800009|-1.687179698203683|-0.9200215508324047|3.634386539459229|-1.398947715759277|-2.164905309677124|-0.006907165050506592|-0.2938751578330994|0.2662167549133301|XArbitraryZVertical|-0.6812907421070573|0.2664884598932065|-0.5810811752020671|0.3566112019755376|-0.6017048954963684|0.7956146597862244|0.07034634798765182|0|0|0|-1|-1|3
2021-03-03 00:38:26.317 +0000|217634.32107325|-0.79351806640625|0.5704498291015625|0.1609039306640625|217634.30111225|-2.947672691411982|-1.630377412826335|-0.8818460397975494|2.818007469177246|-1.480337262153625|-2.256850719451904|-0.05407565832138062|-0.2511007785797119|0.2667105197906494|XArbitraryZVertical|-0.6834810158894924|0.2275547397246396|-0.5871622051886364|0.3692060745109335|-0.6345992684364319|0.7719137668609619|0.03785491734743118|0|0|0|-1|-1|3
2021-03-03 00:38:26.337 +0000|217634.34103425|-0.880889892578125|0.609283447265625|0.0037384033203125|217634.32107325|-2.867978351020462|-1.599797451490002|-0.8373974350046868|2.272899389266968|-1.504565119743347|-2.42619514465332|-0.1027029752731323|-0.181288480758667|0.1824631690979004|XArbitraryZVertical|-0.6878379311148696|0.1912701651870513|-0.5908702653194862|0.3757220667836427|-0.6691170930862427|0.742903470993042|0.01941059157252312|0|0|0|-1|-1|3
2021-03-03 00:38:26.357 +0000|217634.36099625|-0.9454193115234375|0.5683746337890625|-0.0164794921875|217634.34103425|-2.802790217028382|-1.581819610825757|-0.7878787902726521|2.162173509597778|-1.427953600883484|-2.611988306045532|-0.1536247730255127|-0.1050989031791687|0.02652668952941895|XArbitraryZVertical|-0.6926409119298863|0.1553580655511658|-0.5940332485335917|0.3784666413136419|-0.7053077816963196|0.7088586688041687|0.00777512276545167|0|0|0|-1|-1|3
2021-03-03 00:38:26.377 +0000|217634.38095725|-0.9605712890625|0.5687255859375|0.0509490966796875|217634.36099625|-2.741900795362383|-1.566210051942467|-0.7342946439820228|2.292375802993774|-1.194027781486511|-2.764586448669434|-0.1923508048057556|-0.08238673210144043|-0.03098893165588379|XArbitraryZVertical|-0.6958643761603819|0.1186194408418446|-0.5980558175913901|0.3795147868051524|-0.7422958016395569|0.6700637340545654|-0.003404396586120129|0|0|0|-1|-1|3
2021-03-03 00:38:26.397 +0000|217634.40091825|-0.984527587890625|0.568603515625|0.109588623046875|217634.38095725|-2.677522723948363|-1.545580846345569|-0.6773405134505471|2.702372550964355|-0.93649822473526|-2.875199556350708|-0.1780977845191956|-0.07597219944000244|0.05364352464675903|XArbitraryZVertical|-0.6955324541759137|0.08006974113143264|-0.6038614549066772|0.3810180205510549|-0.7789944410324097|0.6267228722572327|-0.01964688301086426|0|0|0|-1|-1|3
2021-03-03 00:38:26.417 +0000|217634.42087925|-1.089523315429688|0.45989990234375|0.1586761474609375|217634.40091825|-2.609657243770719|-1.52157040284313|-0.6174472512483482|2.841400623321533|-0.7817391753196716|-2.883505821228027|-0.1593682765960693|0.01340585947036743|0.1288199424743652|XArbitraryZVertical|-0.6916398412027154|0.03967404779170783|-0.6107238773177045|0.3835058611575786|-0.8143714666366577|0.5789556503295898|-0.04012060165405273|0|0|0|-1|-1|3
2021-03-03 00:38:26.437 +0000|217634.44084125|-1.2286376953125|0.4976959228515625|0.1459808349609375|217634.42087925|-2.549694994768192|-1.502396556211326|-0.5570449446293443|2.398034811019897|-0.6087520718574524|-2.874832630157471|-0.2102468609809875|-0.05832809209823608|0.21563720703125|XArbitraryZVertical|-0.686288835449645|0.000823767623609889|-0.6174293108758354|0.3844321317348504|-0.8468363285064697|0.5286802053451538|-0.0580139122903347|0|0|0|-1|-1|3
2021-03-03 00:38:26.457 +0000|217634.46080225|-1.330596923828125|0.55145263671875|0.1077117919921875|217634.44084125|-2.511299070083138|-1.492927830176737|-0.4981566517909276|1.290639519691467|-0.3819213807582855|-2.740784883499146|-0.3183194398880005|0.001654654741287231|0.2168952226638794|XArbitraryZVertical|-0.681771729143357|-0.03192950157111593|-0.6245184105408805|0.3796638491746641|-0.8758029341697693|0.4778070449829102|-0.0683356299996376|0|0|0|-1|-1|3
2021-03-03 00:38:26.477 +0000|217634.48076325|-1.314910888671875|0.549530029296875|0.1004638671875|217634.46080225|-2.50053876293324|-1.493201368548952|-0.445707045367785|0.07239191979169846|-0.1296594142913818|-2.383096218109131|-0.4161895513534546|0.1156875193119049|0.1793954968452454|XArbitraryZVertical|-0.6797302970018075|-0.05472323862405248|-0.6321002064010852|0.3679967646042064|-0.8995912671089172|0.4310959577560425|-0.06994418054819107|0|0|0|-1|-1|3
2021-03-03 00:38:26.497 +0000|217634.50072425|-1.270980834960938|0.55670166015625|0.080596923828125|217634.48076325|-2.515880587596433|-1.499228496242197|-0.4041042955435406|-1.1155686378479|0.1244673579931259|-1.842467546463013|-0.410321831703186|0.1566093564033508|0.1738862991333008|XArbitraryZVertical|-0.6803030596212815|-0.0656819806173195|-0.6401705028794459|0.3507926979626875|-0.9171014428138733|0.3931953608989716|-0.06574724614620209|0|0|0|-1|-1|3
2021-03-03 00:38:26.517 +0000|217634.520686|-1.224441528320312|0.3351287841796875|0.00152587890625|217634.50072425|-2.555242997544902|-1.513925835820006|-0.3772692223586528|-2.299700975418091|0.0231606587767601|-1.045482873916626|-0.2527371048927307|0.2152960300445557|0.1262525916099548|XArbitraryZVertical|-0.6851467857036777|-0.06444081809144331|-0.6463492498851627|0.3296269290275448|-0.9281710982322693|0.3683831095695496|-0.05284252762794495|0|0|0|-1|-1|3
2021-03-03 00:38:26.537 +0000|217634.540647|-1.267318725585938|0.408172607421875|0.0998382568359375|217634.520686|-2.616747777680966|-1.531099697741819|-0.3644963169106988|-3.143596172332764|0.1617551296949387|0.1380382180213928|-0.3393818140029907|0.09766861796379089|0.08680737018585205|XArbitraryZVertical|-0.6920273624871809|-0.05058308092900124|-0.6522055960548795|0.3052335114708569|-0.9335675239562988|0.356478750705719|-0.03707896173000336|0|0|0|-1|-1|3
2021-03-03 00:38:26.557 +0000|217634.560608|-1.196609497070312|0.7164764404296875|0.083587646484375|217634.540647|-2.692362115001682|-1.553651121183578|-0.3752693291536258|-3.967289209365845|0.3019370138645172|0.8152269124984741|-0.3881329298019409|0.049507737159729|0.1225796937942505|XArbitraryZVertical|-0.7010435297919441|-0.02371357685597594|-0.6539002747790947|0.2835314360515621|-0.9302722215652466|0.3665231168270111|-0.01595127210021019|0|0|0|-1|-1|3
2021-03-03 00:38:26.577 +0000|217634.580569|-1.221084594726562|0.8225860595703125|0.114532470703125|217634.560608|-2.77735771771262|-1.582510678164853|-0.3998449845915766|-3.949936151504517|-0.001352353021502495|1.499264359474182|-0.2787556648254395|0.2225102782249451|0.03629851341247559|XArbitraryZVertical|-0.7108256131423067|0.01104510565329794|-0.6519764844135628|0.2636886275238648|-0.9210582375526428|0.3892755508422852|0.01079009287059307|0|0|0|-1|-1|3
2021-03-03 00:38:26.597 +0000|217634.600531|-1.183578491210938|0.7995147705078125|0.1795196533203125|217634.580569|-2.861710468686704|-1.617963030288388|-0.4323310645030725|-3.545608997344971|-0.0933104008436203|1.97663426399231|-0.3022162318229675|0.4059626162052155|0.06679284572601318|XArbitraryZVertical|-0.7204857861519047|0.04801850588776516|-0.6459335237746838|0.2477182805872901|-0.9069817066192627|0.4189885258674622|0.04281108826398849|0|0|0|-1|-1|3
2021-03-03 00:38:26.616 +0000|217634.620492|-1.090789794921875|0.789306640625|0.2028961181640625|217634.600531|-2.936371931699008|-1.651387846213485|-0.4704603518671377|-2.924367904663086|0.01690958067774773|2.270844459533691|-0.3092262744903564|0.3497122824192047|0.1030464097857475|XArbitraryZVertical|-0.727204095297689|0.08398422626813073|-0.6383587489320052|0.2379473269737719|-0.8884665369987488|0.4532966613769531|0.07175829261541367|0|0|0|-1|-1|3
2021-03-03 00:38:26.636 +0000|217634.640453|-1.05023193359375|0.7889862060546875|0.2108612060546875|217634.620492|-3.000563796021483|-1.680749796145363|-0.5131593250305878|-2.373730421066284|0.03290591016411781|2.565122842788696|-0.2591699361801147|0.3144267797470093|0.1015452146530151|XArbitraryZVertical|-0.7306468137676537|0.1181287415877517|-0.6304201216794287|0.2340327856091198|-0.8659369349479675|0.4909320771694183|0.09559833258390427|0|0|0|-1|-1|3
2021-03-03 00:38:26.657 +0000|217634.660414|-0.99981689453125|0.80426025390625|0.1924896240234375|217634.640453|-3.057236503965278|-1.70749433167047|-0.55978093766799|-1.938201785087585|0.1666099727153778|2.696952104568481|-0.2321123480796814|0.263738214969635|0.09607422351837158|XArbitraryZVertical|-0.7314271467470762|0.1508347291516706|-0.6222487382229187|0.2346694029840546|-0.8394666314125061|0.531000554561615|0.1154735758900642|0|0|0|-1|-1|3
2021-03-03 00:38:26.676 +0000|217634.680376|-0.941925048828125|0.7689971923828125|0.205780029296875|217634.660414|-3.10993972371838|-1.733225789727636|-0.6094550256281693|-1.70400059223175|0.1881397515535355|2.85255241394043|-0.1966158151626587|0.2269719839096069|0.05650137364864349|XArbitraryZVertical|-0.7300107287776723|0.182714915856729|-0.6138884675340615|0.2384126114762732|-0.8091672658920288|0.5724207162857056|0.1326008141040802|0|0|0|-1|-1|3
2021-03-03 00:38:26.696 +0000|217634.700337|-0.8468170166015625|0.734100341796875|0.241729736328125|217634.680376|3.120901987219556|-1.759092888151307|-0.6603586637900499|-1.56121826171875|0.3428559899330139|2.892344951629639|-0.185048520565033|0.1726564168930054|0.0485006719827652|XArbitraryZVertical|-0.7266561767556075|0.214214626530967|-0.6056174718444831|0.2435374007390283|-0.7758128046989441|0.6134001612663269|0.1478342115879059|0|0|0|-1|-1|3
2021-03-03 00:38:26.716 +0000|217634.720298|-0.8448486328125|0.8603363037109375|0.2110748291015625|217634.700337|3.068887862088516|-1.784734014368214|-0.7119387547999073|-1.353593349456787|0.3832707107067108|2.96157169342041|-0.124039351940155|0.06601184606552124|0.07581819593906403|XArbitraryZVertical|-0.7213198881881229|0.2450857931796915|-0.5977007162589618|0.2497691526498944|-0.739837110042572|0.6533028483390808|0.1607388556003571|0|0|0|-1|-1|3
2021-03-03 00:38:26.736 +0000|217634.740259|-0.945465087890625|0.914947509765625|0.2411651611328125|217634.720298|3.018096633144038|-1.811702023116068|-0.7635345818745101|-1.12623131275177|0.3030241727828979|2.936691522598267|-0.1307399868965149|0.1412235498428345|0.04351508617401123|XArbitraryZVertical|-0.7147189464837285|0.2745037945201678|-0.5895967078947708|0.2572941876436264|-0.7015354037284851|0.6914791464805603|0.1723510175943375|0|0|0|-1|-1|3
2021-03-03 00:38:26.756 +0000|217634.76022|-0.9105987548828125|0.7133941650390625|0.2931365966796875|217634.740259|2.968943935935724|-1.840194041737843|-0.8150959396062425|-0.9405326247215271|0.3740320801734924|2.941176414489746|-0.2669766545295715|0.197883129119873|0.05487026274204254|XArbitraryZVertical|-0.7070720829756684|0.3021788591824603|-0.5812492623593152|0.2662450747656642|-0.661063015460968|0.7277913689613342|0.1825259923934937|0|0|0|-1|-1|3
2021-03-03 00:38:26.776 +0000|217634.780182|-0.7601776123046875|0.5853729248046875|0.30169677734375|217634.76022|2.918152562417051|-1.868378546386323|-0.8670527740381307|-0.9327670335769653|0.5981183648109436|2.998096466064453|-0.3155524730682373|0.007975876331329346|0.08811831474304199|XArbitraryZVertical|-0.6973383911373009|0.3295203914011101|-0.573772299067896|0.2755375513953544|-0.618636429309845|0.7624251842498779|0.1897290349006653|0|0|0|-1|-1|3
2021-03-03 00:38:26.796 +0000|217634.800143|-0.665985107421875|0.573883056640625|0.2583160400390625|217634.780182|2.858398218495871|-1.901804027318639|-0.9178519656569407|-1.057215094566345|0.6731525659561157|3.012885093688965|-0.2242645621299744|-0.1971763372421265|0.1033217757940292|XArbitraryZVertical|-0.6860986808312264|0.3577578725080446|-0.5665093523096549|0.2834520110973846|-0.5745482444763184|0.7942984700202942|0.1974441856145859|0|0|0|-1|-1|3
2021-03-03 00:38:26.816 +0000|217634.820104|-0.5883941650390625|0.59625244140625|0.2412109375|217634.800143|2.788919701474309|-1.945214654113369|-0.9666829891074517|-1.017299771308899|0.6312892436981201|2.963611602783203|-0.1538154482841492|-0.2466051578521729|0.06399646401405334|XArbitraryZVertical|-0.6744372350401371|0.3860156364311417|-0.5582744913499338|0.2906131865362762|-0.5286797285079956|0.8230060935020447|0.2077473104000092|0|0|0|-1|-1|3
2021-03-03 00:38:26.836 +0000|217634.840065|-0.499908447265625|0.6128082275390625|0.2441864013671875|217634.820104|2.719128862783501|-1.990244084933869|-1.012884535977504|-0.682015061378479|0.7091476917266846|2.772361040115356|-0.1261267066001892|-0.2602124214172363|0.03562796115875244|XArbitraryZVertical|-0.6618620395329008|0.4119982968474984|-0.5507939086336782|0.2980305280558563|-0.4835230112075806|0.8483625054359436|0.2156079113483429|0|0|0|-1|-1|3
2021-03-03 00:38:26.856 +0000|217634.860027|-0.426055908203125|0.532745361328125|0.237640380859375|217634.840065|2.661016677620861|-2.025029158330526|-1.05700888206532|-0.1670515239238739|0.8054230809211731|2.476217985153198|-0.0795520544052124|-0.2590270638465881|0.02170252799987793|XArbitraryZVertical|-0.6478330799686323|0.4337467940997745|-0.5460923283045229|0.3065278132582295|-0.4416424334049225|0.8708893060684204|0.215647965669632|0|0|0|-1|-1|3
2021-03-03 00:38:26.876 +0000|217634.879988|-0.3737335205078125|0.4846954345703125|0.29449462890625|217634.860027|2.619442942852741|-2.044736121899545|-1.098465270679202|0.2389915436506271|0.8852057456970215|2.122641563415527|-0.03857377171516418|-0.3286510109901428|0.02757106721401215|XArbitraryZVertical|-0.6329256358888435|0.4508067786128844|-0.5445867511577995|0.3156005562998343|-0.4048160910606384|0.8905101418495178|0.2076432257890701|0|0|0|-1|-1|3
2021-03-03 00:38:26.896 +0000|217634.899949|-0.335906982421875|0.4610443115234375|0.3044586181640625|217634.879988|2.588466252781251|-2.054385952823014|-1.135746878232065|0.2228403240442276|0.9492669701576233|1.811414480209351|-0.008860766887664795|-0.4255716800689697|0.09160721302032471|XArbitraryZVertical|-0.618145391802299|0.464624861727621|-0.5451619764546385|0.3237568317270105|-0.3731277883052826|0.906849205493927|0.1959599703550339|0|0|0|-1|-1|3
2021-03-03 00:38:26.916 +0000|217634.91991|-0.262054443359375|0.4438323974609375|0.244873046875|217634.899949|2.555245690227487|-2.064180942410903|-1.165853885246602|-0.02665678039193153|1.09304416179657|1.477408051490784|0.001596778631210327|-0.4446378350257874|0.1176133006811142|XArbitraryZVertical|-0.604427626108369|0.4774518254710515|-0.5465781198687391|0.3285717060309606|-0.3469794988632202|0.9191250801086426|0.186586007475853|0|0|0|-1|-1|3
2021-03-03 00:38:26.936 +0000|217634.939872|-0.20513916015625|0.607391357421875|0.2239837646484375|217634.91991|2.518637281920255|-2.075447183777214|-1.187697950638602|-0.146809458732605|1.156866192817688|1.137046337127686|0.04176914691925049|-0.5042015314102173|0.05956423282623291|XArbitraryZVertical|-0.5923057610415595|0.4894277114816934|-0.5486024701469664|0.3296510446558926|-0.3272000849246979|0.9275109171867371|0.1807311922311783|0|0|0|-1|-1|3
2021-03-03 00:38:26.956 +0000|217634.959833|-0.260162353515625|0.63995361328125|0.2847747802734375|217634.939872|2.484820032001323|-2.084737287832397|-1.202384228778109|-0.152678906917572|1.038681745529175|0.7603524327278137|0.1006129384040833|-0.3575829267501831|0.05941855907440186|XArbitraryZVertical|-0.5821492339611327|0.499625587665335|-0.5510986285210409|0.3282787344344162|-0.3136103749275208|0.9329003691673279|0.1770469099283218|0|0|0|-1|-1|3
2021-03-03 00:38:26.976 +0000|217634.979794|-0.3308258056640625|0.6952362060546875|0.3712158203125|217634.959833|2.460461521630296|-2.088158097671283|-1.211866280220106|-0.1431017816066742|0.9655556082725525|0.4967721104621887|0.06953760981559753|-0.2916197180747986|0.1028754860162735|XArbitraryZVertical|-0.5741216570735905|0.507200432459893|-0.5539220451634586|0.32604083001971|-0.3053011894226074|0.9362732172012329|0.1737359166145325|0|0|0|-1|-1|3
2021-03-03 00:38:26.996 +0000|217634.999755|-0.31103515625|0.6954345703125|0.3239288330078125|217634.979794|2.44361143447986|-2.083431743985149|-1.216358976787911|-0.2015948891639709|1.062325358390808|0.1964748948812485|-0.02153974771499634|-0.2743284702301025|0.1849832981824875|XArbitraryZVertical|-0.5671531141617308|0.5132742200518809|-0.5579311527240149|0.3218694815185629|-0.3024501800537109|0.9378418922424316|0.1702261567115784|0|0|0|-1|-1|3
2021-03-03 00:38:27.016 +0000|217635.019717|-0.348297119140625|0.8979034423828125|0.315216064453125|217634.999755|2.417341875691994|-2.088165609202094|-1.214379767498411|-0.6671230792999268|0.8906705379486084|0.05212791636586189|-0.00933799147605896|-0.2420846223831177|0.1796754747629166|XArbitraryZVertical|-0.5622930038469858|0.5197243782223903|-0.5607994664171403|0.314987787021755|-0.303253561258316|0.937153160572052|0.1725737005472183|0|0|0|-1|-1|3
2021-03-03 00:38:27.036 +0000|217635.039678|-0.378753662109375|1.081512451171875|0.316131591796875|217635.019717|2.367816778012248|-2.119254436838665|-1.202190358211822|-1.478628993034363|0.6417528986930847|-0.1738246977329254|-0.03016349673271179|-0.0934445858001709|0.1231310218572617|XArbitraryZVertical|-0.5617436137680726|0.5276109469212003|-0.5597381326113036|0.3045718741365333|-0.3074677288532257|0.9328305721282959|0.1878584027290344|0|0|0|-1|-1|3
2021-03-03 00:38:27.056 +0000|217635.059639|-0.2864532470703125|1.228286743164062|0.2640380859375|217635.039678|2.298088646349048|-2.17241897169944|-1.179965110100911|-1.785958170890808|0.5375797748565674|-0.2617422938346863|-0.06647109985351562|0.1192304491996765|0.09392544627189636|XArbitraryZVertical|-0.5647568973697114|0.5374540157649887|-0.5546973438554694|0.2906950698320029|-0.3140678405761719|0.9245927333831787|0.2156143486499786|0|0|0|-1|-1|3
2021-03-03 00:38:27.076 +0000|217635.0796|-0.2007904052734375|1.175216674804688|0.122802734375|217635.059639|2.242500500767243|-2.213796768697872|-1.157832684730246|-1.148516178131104|0.4133615791797638|-0.2260753959417343|0.004424065351486206|0.2762795686721802|0.05979549884796143|XArbitraryZVertical|-0.5678353489438432|0.5457842296723746|-0.5499452543815067|0.2779261348372929|-0.3211812973022461|0.9159354567527771|0.2406348139047623|0|0|0|-1|-1|3
2021-03-03 00:38:27.096 +0000|217635.099562|-0.1880950927734375|1.077163696289062|-0.1301727294921875|217635.0796|2.210923968850339|-2.236468515490591|-1.144256548939364|-0.9163777828216553|0.2218995839357376|-0.07611802965402603|0.1089175641536713|0.3275732398033142|-0.0933552086353302|XArbitraryZVertical|-0.5694816541704926|0.5508592019927477|-0.5470362068826693|0.2701780748996297|-0.3253940045833588|0.910402774810791|0.2555104196071625|0|0|0|-1|-1|3
2021-03-03 00:38:27.116 +0000|217635.119523|-0.0936126708984375|1.155364990234375|-0.1388397216796875|217635.099562|2.177746456558085|-2.263647226863005|-1.1297502714716|-0.9381177425384521|0.06469441205263138|-0.1696135401725769|0.138028085231781|0.1275241374969482|-0.3390113413333893|XArbitraryZVertical|-0.5720435321906105|0.5559669173632197|-0.5426845140504789|0.2629837786518139|-0.328457772731781|0.904305636882782|0.2726660370826721|0|0|0|-1|-1|3
2021-03-03 00:38:27.140 +0000|217635.139484|0.0132904052734375|0.97125244140625|0.0584564208984375|217635.119523|2.155996736627178|-2.283397527348598|-1.118373640157774|-0.5563741326332092|-0.1347175538539886|-0.08811343461275101|0.1988754272460938|0.2943806648254395|-0.4566756784915924|XArbitraryZVertical|-0.5746990203353507|0.5591287196455513|-0.5389372675647166|0.2581525775981436|-0.3307723999023438|0.899390697479248|0.2858077883720398|0|0|0|-1|-1|3
2021-03-03 00:38:27.156 +0000|217635.159445|0.015594482421875|0.923614501953125|0.018646240234375|217635.139484|2.147070388840322|-2.297732022604722|-1.113933708233455|-0.02583128586411476|-0.4681008458137512|0.04331045970320702|0.324556291103363|0.112187385559082|-0.2749669849872589|XArbitraryZVertical|-0.5773644849258922|0.5596745237947367|-0.5355727546090974|0.2580242418714412|-0.3296221792697906|0.8974409103393555|0.2931706309318542|0|0|0|-1|-1|3
2021-03-03 00:38:27.176 +0000|217635.179407|0.008209228515625|0.9739837646484375|-0.0035247802734375|217635.159445|2.147676193713761|-2.308898030097155|-1.118711417982221|0.3434568643569946|-0.6590132713317871|0.2795166969299316|0.3490621149539948|0.005002737045288086|-0.253203421831131|XArbitraryZVertical|-0.5791067936952912|0.5582181612857074|-0.53269562681359|0.2631790363643789|-0.3231526911258698|0.8995382785797119|0.293944388628006|0|0|0|-1|-1|3
2021-03-03 00:38:27.196 +0000|217635.199368|0.002227783203125|1.016403198242188|-0.0590362548828125|217635.179407|2.149109812229743|-2.320550051271845|-1.129827261583875|0.4468346536159515|-0.6202174425125122|0.4978940188884735|0.3188225924968719|0.071705162525177|-0.280756026506424|XArbitraryZVertical|-0.5793171798507172|0.5566150279975344|-0.5301349450589876|0.2711608870762018|-0.3123681247234344|0.9043384790420532|0.2908573746681213|0|0|0|-1|-1|3
2021-03-03 00:38:27.216 +0000|217635.219329|0.04205322265625|0.9063720703125|-0.0430755615234375|217635.199368|2.14577558000373|-2.334752867990024|-1.144289699024833|0.4181115329265594|-0.4727011919021606|0.6471154093742371|0.3008506894111633|0.1049339771270752|-0.3372574746608734|XArbitraryZVertical|-0.5778532996194768|0.5560384110602763|-0.5277995265780557|0.2798832032566303|-0.2987297773361206|0.9104164838790894|0.2861863076686859|0|0|0|-1|-1|3
2021-03-03 00:38:27.236 +0000|217635.23929|0.088897705078125|0.81488037109375|-0.005584716796875|217635.219329|2.13586108282565|-2.35133677318053|-1.159551733808072|0.3580751419067383|-0.2938729524612427|0.7263718843460083|0.3106319904327393|0.02813911437988281|-0.3318726122379303|XArbitraryZVertical|-0.5749096316971734|0.5568875578020845|-0.5258385244159268|0.2878349262976808|-0.2840358912944794|0.9166240096092224|0.281289666891098|0|0|0|-1|-1|3
2021-03-03 00:38:27.256 +0000|217635.259251|0.10272216796875|0.7254180908203125|-0.0207977294921875|217635.23929|2.120373534610619|-2.370547426149101|-1.178355817004765|0.3064670562744141|-0.1871398538351059|0.7008869051933289|0.3469032645225525|-0.09773033857345581|-0.2891903221607208|XArbitraryZVertical|-0.5699909128100464|0.5587948249916135|-0.5243957143523872|0.2964251028923618|-0.2665199637413025|0.9239784479141235|0.2742826044559479|0|0|0|-1|-1|3
2021-03-03 00:38:27.276 +0000|217635.279213|0.092010498046875|0.5788726806640625|-0.0666046142578125|217635.259251|2.104690019549372|-2.388240200048138|-1.191451787999782|0.2417841553688049|-0.127881795167923|0.6289567947387695|0.3548732399940491|-0.1684857606887817|-0.2810307741165161|XArbitraryZVertical|-0.5662853866282335|0.5606902871801938|-0.5230150331973793|0.3023287107573665|-0.2533259987831116|0.928907573223114|0.2701054811477661|0|0|0|-1|-1|3
2021-03-03 00:38:27.296 +0000|217635.299174|0.0525665283203125|0.5225372314453125|-0.0458526611328125|217635.279213|2.089681755672887|-2.404056615979584|-1.201620723762876|0.1551851779222488|-0.05243753269314766|0.446583092212677|0.3397340774536133|-0.3202897310256958|-0.3281387984752655|XArbitraryZVertical|-0.5631278852699406|0.5625153793083485|-0.5218825012317301|0.3067609384890065|-0.2426576912403107|0.9326251149177551|0.2670731246471405|0|0|0|-1|-1|3
2021-03-03 00:38:27.316 +0000|217635.319135|-0.0033416748046875|0.5962066650390625|0.016021728515625|217635.299174|2.085308838179783|-2.408107319416205|-1.208746137729336|0.3248399794101715|0.03208587318658829|0.1321468502283096|0.3016785383224487|-0.4108348488807678|-0.3111295998096466|XArbitraryZVertical|-0.560795306741551|0.5630841231455231|-0.5221680842055758|0.3094921700089311|-0.2371185719966888|0.9351726174354553|0.2631102204322815|0|0|0|-1|-1|3
2021-03-03 00:38:27.335 +0000|217635.339097|-0.151153564453125|0.939971923828125|0.0449066162109375|217635.319135|2.107315093789856|-2.38671555295051|-1.215632945243659|0.616478443145752|0.01983074843883514|-0.2372799217700958|0.251350462436676|-0.3806285858154297|-0.2737431526184082|XArbitraryZVertical|-0.5592755975515123|0.56022440491426|-0.5254378056481254|0.3118887396499568|-0.2382737249135971|0.937589704990387|0.2532811462879181|0|0|0|-1|-1|3
2021-03-03 00:38:27.355 +0000|217635.359058|-0.370941162109375|1.067291259765625|0.0037994384765625|217635.339097|2.146889638222938|-2.351358883450601|-1.216929291304048|0.3595536649227142|-0.2360498607158661|-0.6301930546760559|0.1434004455804825|-0.09291642904281616|-0.195489302277565|XArbitraryZVertical|-0.5605860494339625|0.5546760087515716|-0.5292722549216494|0.3129675194786723|-0.2462141364812851|0.9380397200584412|0.2438443899154663|0|0|0|-1|-1|3
2021-03-03 00:38:27.375 +0000|217635.379019|-0.528533935546875|0.9109039306640625|0.053009033203125|217635.359058|2.177560705093831|-2.330411247223238|-1.208435423529959|-0.2899078130722046|-0.4985066652297974|-0.6746640801429749|-0.0611250102519989|0.1499594449996948|-0.2384966611862183|XArbitraryZVertical|-0.5661111166240179|0.5491576979252459|-0.5297013206775206|0.3120265657276708|-0.257036030292511|0.9350625276565552|0.2441119402647018|0|0|0|-1|-1|3
2021-03-03 00:38:27.395 +0000|217635.39898|-0.6027984619140625|1.244613647460938|0.3784942626953125|217635.379019|2.171467957356652|-2.346546116696778|-1.188470138643213|-1.241731762886047|-0.576085090637207|-0.6066373586654663|-0.2344228625297546|-0.01507967710494995|-0.2517738938331604|XArbitraryZVertical|-0.5747784808255374|0.5479547877950738|-0.5244629138162651|0.3071055854265685|-0.266340047121048|0.9277992844581604|0.2612495124340057|0|0|0|-1|-1|3
2021-03-03 00:38:27.415 +0000|217635.418941|-0.6495361328125|1.570526123046875|0.5331573486328125|217635.39898|2.132950292375248|-2.395783067868342|-1.157639905641981|-1.892845153808594|-0.7805927991867065|-0.4660222828388214|-0.3127283453941345|0.2260030508041382|0.0119655430316925|XArbitraryZVertical|-0.5862183777496223|0.5511874641625139|-0.513176806748312|0.2986470955986138|-0.2724462747573853|0.9158580899238586|0.2949192225933075|0|0|0|-1|-1|3
2021-03-03 00:38:27.435 +0000|217635.438903|-0.597198486328125|1.603775024414062|0.474853515625|217635.418941|2.089423330623879|-2.452224754827923|-1.124393900242373|-1.695911407470703|-0.8752580881118774|-0.3287659883499146|-0.3725734353065491|0.6065847873687744|0.1742464601993561|XArbitraryZVertical|-0.5981970553778478|0.555634488714271|-0.4991597251775139|0.2902934508886479|-0.2745976448059082|0.9020060896873474|0.3331387937068939|0|0|0|-1|-1|3
2021-03-03 00:38:27.455 +0000|217635.458864|-0.4766387939453125|1.520782470703125|0.298004150390625|217635.438903|2.059772839525883|-2.495696910779087|-1.101655061815024|-0.8119187951087952|-0.7885419726371765|-0.0955413430929184|-0.3436153829097748|0.7189898490905762|0.1463088989257812|XArbitraryZVertical|-0.6071558062355795|0.5584664722491999|-0.4873884278057452|0.2862335115426849|-0.2721377909183502|0.8919568657875061|0.3610459566116333|0|0|0|-1|-1|3
2021-03-03 00:38:27.475 +0000|217635.478825|-0.349334716796875|1.194107055664062|0.2470703125|217635.458864|2.053387689098406|-2.516589779578831|-1.096504316191883|0.1319699287414551|-0.7599549889564514|0.02693219482898712|-0.2431406378746033|0.6752182841300964|-0.03924217820167542|XArbitraryZVertical|-0.6118822732362716|0.5574824215999733|-0.4812212471107754|0.2885126213023528|-0.2672200798988342|0.8896163105964661|0.3703731298446655|0|0|0|-1|-1|3
2021-03-03 00:38:27.495 +0000|217635.498786|-0.1928558349609375|0.9711151123046875|0.209503173828125|217635.478825|2.058180846511192|-2.527860049363596|-1.104416301411616|0.5981603264808655|-0.7567718625068665|0.2321546673774719|-0.1166739463806152|0.3688066005706787|-0.1172595918178558|XArbitraryZVertical|-0.6136998811271521|0.5542292464417186|-0.4781872324050059|0.295870336663503|-0.2589669227600098|0.8932018876075745|0.3675951957702637|0|0|0|-1|-1|3
2021-03-03 00:38:27.515 +0000|217635.518748|-0.0625152587890625|0.8063201904296875|0.196258544921875|217635.498786|2.063602385161833|-2.537157659145081|-1.11965331958904|0.7540147304534912|-0.6966442465782166|0.4589055180549622|0.01108020544052124|0.125410795211792|-0.1408510208129883|XArbitraryZVertical|-0.613129465965435|0.5508589041545424|-0.4766621062896269|0.3056468782528004|-0.2477745562791824|0.8999493718147278|0.3587465584278107|0|0|0|-1|-1|3
2021-03-03 00:38:27.535 +0000|217635.538709|0.0068817138671875|0.7205047607421875|0.2034149169921875|217635.518748|2.064424790372128|-2.550644980998323|-1.138699921223155|0.8369495868682861|-0.7200959324836731|0.5546877384185791|0.1455973088741302|-0.07248795032501221|-0.1536802053451538|XArbitraryZVertical|-0.6111692329807781|0.5480424717872532|-0.4750633653328857|0.3169171480983379|-0.2333201169967651|0.908089816570282|0.3477567732334137|0|0|0|-1|-1|3
2021-03-03 00:38:27.555 +0000|217635.55867|0.0350799560546875|0.663482666015625|0.2178802490234375|217635.538709|2.064619874806656|-2.564682375746169|-1.15862883659161|0.8107017874717712|-0.7096143960952759|0.5184059739112854|0.2109774947166443|-0.1753488779067993|-0.1375337839126587|XArbitraryZVertical|-0.6088659356658497|0.5451262255317957|-0.4735217385870583|0.3284766216996564|-0.2185000777244568|0.9162546992301941|0.3357606530189514|0|0|0|-1|-1|3
2021-03-03 00:38:27.575 +0000|217635.578631|0.00054931640625|0.653167724609375|0.19720458984375|217635.55867|2.066230181903256|-2.577648015328368|-1.176638244755219|0.6910256743431091|-0.7368457317352295|0.3851902782917023|0.2411473989486694|-0.2574112415313721|-0.1110186278820038|XArbitraryZVertical|-0.6071944264159772|0.5418464808141716|-0.4718069002580157|0.3392870381758227|-0.2052740603685379|0.9233202338218689|0.3245653510093689|0|0|0|-1|-1|3
2021-03-03 00:38:27.595 +0000|217635.598593|-0.0203704833984375|0.6622314453125|0.2527008056640625|217635.578631|2.067152559094092|-2.591496604284266|-1.188614968114457|0.3417961895465851|-0.7168644666671753|0.2163993269205093|0.2075528651475906|-0.2679564356803894|-0.114831954240799|XArbitraryZVertical|-0.6072443418407037|0.5387184147084294|-0.4691025709208357|0.3478212149529761|-0.1949643790721893|0.9278533458709717|0.317926436662674|0|0|0|-1|-1|3
2021-03-03 00:38:27.615 +0000|217635.618554|-0.051849365234375|0.750579833984375|0.3622589111328125|217635.598593|2.06565985178531|-2.606329405118241|-1.192655576565398|0.007169741205871105|-0.6348941922187805|0.0331496074795723|0.1749773025512695|-0.2815865278244019|-0.07523107528686523|XArbitraryZVertical|-0.6091414246753845|0.5363997274297861|-0.4654178901855822|0.3529989814967924|-0.1883135139942169|0.9293526411056519|0.3175558745861053|0|0|0|-1|-1|3
2021-03-03 00:38:27.635 +0000|217635.638515|-0.1170806884765625|0.852691650390625|0.479095458984375|217635.618554|2.063297098382973|-2.620630071998556|-1.189559278290656|-0.3043263852596283|-0.5812639594078064|-0.09861241281032562|0.141910657286644|-0.1995366811752319|0.00259128212928772|XArbitraryZVertical|-0.6127121927845876|0.534732825621532|-0.4610278915645543|0.3551027622350537|-0.1851846128702164|0.9282050728797913|0.3227108418941498|0|0|0|-1|-1|3
2021-03-03 00:38:27.655 +0000|217635.658476|-0.2012176513671875|0.9205169677734375|0.4560394287109375|217635.638515|2.060407443534514|-2.635100818009034|-1.182763307847754|-0.3016943335533142|-0.59554523229599|-0.1128021776676178|0.08674943447113037|-0.097942054271698|0.1371068954467773|XArbitraryZVertical|-0.617202076110169|0.5333798197044606|-0.4561048678072432|0.3557188530490125|-0.1835512220859528|0.9256550669670105|0.3308648765087128|0|0|0|-1|-1|3
2021-03-03 00:38:27.675 +0000|217635.678438|-0.2431640625|1.048965454101562|0.4015960693359375|217635.658476|2.058470362329936|-2.648047074715743|-1.178278458454458|-0.1137697622179985|-0.5168128609657288|-0.03159139305353165|-0.003902077674865723|-0.02116250991821289|0.1255208253860474|XArbitraryZVertical|-0.6208985813330629|0.5319004303923628|-0.4517778297921985|0.3570206421822388|-0.1812175661325455|0.9239488840103149|0.3368662297725677|0|0|0|-1|-1|3
2021-03-03 00:38:27.695 +0000|217635.698399|-0.263946533203125|1.1026611328125|0.4480743408203125|217635.678438|2.058931263780836|-2.657551390860556|-1.179227116631689|0.1887981295585632|-0.4890928268432617|0.05669062584638596|-0.0566684752702713|0.09019976854324341|0.06526371836662292|XArbitraryZVertical|-0.6228925804800552|0.5300032552092953|-0.4488823338792013|0.3600084055828873|-0.17759969830513|0.9243113398551941|0.337797224521637|0|0|0|-1|-1|3
2021-03-03 00:38:27.715 +0000|217635.71836|-0.2605743408203125|1.049392700195312|0.5338134765625|217635.698399|2.062374215399555|-2.664062406745267|-1.184800373942439|0.3176367580890656|-0.4615448415279388|0.08778666704893112|-0.0894097238779068|0.1794719696044922|0.08366391062736511|XArbitraryZVertical|-0.6236845786823579|0.5274471005357334|-0.4470688483370623|0.364618281292155|-0.1730261892080307|0.9264239072799683|0.3343657851219177|0|0|0|-1|-1|3
2021-03-03 00:38:27.735 +0000|217635.738321|-0.225799560546875|0.965972900390625|0.56646728515625|217635.71836|2.064649386811105|-2.671093908340306|-1.191300872945314|0.2492892146110535|-0.422111302614212|0.1329537034034729|-0.09539873898029327|0.1362577676773071|0.1762852966785431|XArbitraryZVertical|-0.6240099931362959|0.5250823129179164|-0.4454355183489472|0.3694420317546951|-0.1679374724626541|0.9288516640663147|0.330199807882309|0|0|0|-1|-1|3
2021-03-03 00:38:27.755 +0000|217635.758283|-0.179656982421875|0.872100830078125|0.5427703857421875|217635.738321|2.060001353092391|-2.683540382648159|-1.195228483902567|0.01490046456456184|-0.3878377079963684|0.1970985233783722|-0.07362435758113861|0.06210178136825562|0.238759309053421|XArbitraryZVertical|-0.6244422156707535|0.5239912123056205|-0.4430082671989587|0.3731607160556805|-0.1622002571821213|0.9302994608879089|0.3289897441864014|0|0|0|-1|-1|3
2021-03-03 00:38:27.775 +0000|217635.778244|-0.14996337890625|0.94329833984375|0.5534820556640625|217635.758283|2.04820276932943|-2.70096174186004|-1.195469939288533|-0.1882671266794205|-0.2823423147201538|0.2084260880947113|-0.03810955584049225|-0.04577505588531494|0.2178767621517181|XArbitraryZVertical|-0.6251265931014988|0.5244021738395073|-0.4398106693775132|0.375214147464021|-0.1563484668731689|0.9303880333900452|0.331561803817749|0|0|0|-1|-1|3
2021-03-03 00:38:27.795 +0000|217635.798205|-0.153106689453125|0.944732666015625|0.5110626220703125|217635.778244|2.031436470133901|-2.722284262620577|-1.192142145075033|-0.3456991910934448|-0.2951743900775909|0.1975850760936737|0.0004944950342178345|-0.01984584331512451|0.2219085991382599|XArbitraryZVertical|-0.6263238697377816|0.5258723176188437|-0.4357542245162653|0.3758924422304002|-0.1505036801099777|0.9291629791259766|0.3376465737819672|0|0|0|-1|-1|3
2021-03-03 00:38:27.815 +0000|217635.818166|-0.1331787109375|0.8513336181640625|0.4809417724609375|217635.798205|2.013501041935827|-2.744493160961844|-1.186690276358214|-0.4082580208778381|-0.2445511072874069|0.1955063939094543|-0.007296532392501831|0.04390490055084229|0.1748908162117004|XArbitraryZVertical|-0.6279238935592161|0.527728356656944|-0.4312493573138733|0.3758168535893633|-0.144925132393837|0.9271337985992432|0.3455712795257568|0|0|0|-1|-1|3
2021-03-03 00:38:27.835 +0000|217635.838128|-0.1077117919921875|0.8657379150390625|0.4470977783203125|217635.838128|1.985303334388789|-2.7770042991991|-1.175944835187684|-0.237848311662674|-0.1271581053733826|0.1013045236468315|0.02516058087348938|-0.0582924485206604|0.09718674421310425|XArbitraryZVertical|-0.6303411087826145|0.5313788281434099|-0.4244184652198059|0.3744002425607791|-0.1371600925922394|0.9230536818504333|0.3593867421150208|0|0|0|-1|-1|3
2021-03-03 00:38:27.854 +0000|217635.858089|-0.112396240234375|0.8312530517578125|0.463775634765625||||||||||||||||||||||||3
2021-03-03 00:38:27.875 +0000|217635.87805|-0.1355743408203125|0.83306884765625|0.4734344482421875|217635.858089|1.977807845977053|-2.786424488703465|-1.173185303260848|-0.1267222911119461|-0.1236224994063377|0.06680122762918472|0.02697263658046722|-0.08417433500289917|0.09131106734275818|XArbitraryZVertical|-0.6310840680405305|0.5322197346584274|-0.4223458770211633|0.3742980363084569|-0.1346539109945297|0.9219886660575867|0.3630498945713043|0|0|0|-1|-1|3
2021-03-03 00:38:27.895 +0000|217635.898011|-0.1519927978515625|0.8303680419921875|0.4808502197265625|217635.87805|1.972728152681469|-2.793373856648443|-1.170670125695964|-0.06945464760065079|-0.07853645831346512|0.04072257503867149|0.005171999335289001|-0.08925527334213257|0.1025486886501312|XArbitraryZVertical|-0.6318686894741853|0.5327473440108986|-0.420635635237796|0.3741495777393663|-0.132918581366539|0.9210118651390076|0.3661555349826813|0|0|0|-1|-1|3
2021-03-03 00:38:27.915 +0000|217635.917973|-0.169189453125|0.88397216796875|0.5021209716796875|217635.917973|1.965426554913909|-2.800591004205788|-1.162294668644344|-0.03699497133493423|0.08643864840269089|-0.02596271224319935|-0.02994838356971741|-0.05126208066940308|0.1246309876441956|XArbitraryZVertical|-0.6336583009525959|0.5344699235247558|-0.418137453611883|0.3714567139203158|-0.1328476518392563|0.9177170395851135|0.3743618726730347|0|0|0|-1|-1|3
2021-03-03 00:38:27.935 +0000|217635.937934|-0.1907501220703125|0.92041015625|0.517669677734375||||||||||||||||||||||||3
2021-03-03 00:38:27.954 +0000|217635.957895|-0.2055816650390625|0.9037628173828125|0.500732421875|217635.937934|1.963425282771378|-2.800514325697236|-1.159453803540319|0.04496585577726364|0.1699956357479095|-0.05066557228565216|-0.04940330982208252|-0.001301765441894531|0.139535129070282|XArbitraryZVertical|-0.6338573919061153|0.5353768388401443|-0.4179927600284708|0.3699708918244299|-0.1337479054927826|0.916584849357605|0.3768070936203003|0|0|0|-1|-1|3
2021-03-03 00:38:27.974 +0000|217635.977856|-0.2127838134765625|0.8887481689453125|0.4996490478515625|217635.957895|1.964403915032712|-2.795823432878772|-1.157218335623554|0.1224104017019272|0.2570782601833344|-0.04622253403067589|-0.06642848253250122|-0.008797824382781982|0.1257271766662598|XArbitraryZVertical|-0.6337281812450779|0.5361343103567449|-0.4188738023249166|0.3680943299074271|-0.1362082660198212|0.9156887531280518|0.3781028091907501|0|0|0|-1|-1|3
2021-03-03 00:38:27.994 +0000|217635.997818|-0.201385498046875|0.8754425048828125|0.5737762451171875|217635.977856|1.966168959594942|-2.788488445504751|-1.155549479856081|0.107540600001812|0.3561976552009583|-0.01322712004184723|-0.07298780977725983|-0.02382725477218628|0.1124555468559265|XArbitraryZVertical|-0.6331034436175187|0.5370691815749133|-0.4205570706184495|0.3658804004623953|-0.1395060867071152|0.915016770362854|0.3785265386104584|0|0|0|-1|-1|3
2021-03-03 00:38:28.014 +0000|217636.017779|-0.1861724853515625|0.8589324951171875|0.5939788818359375|217635.997818|1.964203980067019|-2.782429562942798|-1.152875510311832|-0.02932343818247318|0.4547846913337708|0.07067683339118958|-0.06092618405818939|-0.03643214702606201|0.1702985167503357|XArbitraryZVertical|-0.6320054878381494|0.5390279143477577|-0.4223270302634973|0.3628470536300474|-0.1426566243171692|0.9139347672462463|0.3799640536308289|0|0|0|-1|-1|3
2021-03-03 00:38:28.034 +0000|217636.03774|-0.18109130859375|0.819061279296875|0.4892578125|217636.017779|1.955991632412448|-2.779919536188082|-1.148378629074658|-0.26185542345047|0.5511841177940369|0.1649168729782104|-0.04493993520736694|-0.04195266962051392|0.2186672687530518|XArbitraryZVertical|-0.6304420733171993|0.5424620271581897|-0.4237490938906828|0.3587679703839508|-0.1450625211000443|0.9121004343032837|0.3834445178508759|0|0|0|-1|-1|3
2021-03-03 00:38:28.054 +0000|217636.057701|-0.187408447265625|0.848052978515625|0.3929443359375|217636.03774|1.939282542004573|-2.783410518372451|-1.140040956628666|-0.5569193363189697|0.6076117753982544|0.2711555957794189|-0.03464612364768982|-0.08290588855743408|0.1360572576522827|XArbitraryZVertical|-0.6288167064610893|0.5478306288906706|-0.424019396887419|0.3530988985634892|-0.1463841795921326|0.9086505770683289|0.3910576999187469|0|0|0|-1|-1|3
2021-03-03 00:38:28.074 +0000|217636.077663|-0.187896728515625|0.8596954345703125|0.3719635009765625|217636.057701|1.914720991006531|-2.793361624264723|-1.127852641043698|-0.7363477945327759|0.5955621004104614|0.4001325964927673|-0.03825536370277405|-0.06880760192871094|0.006655097007751465|XArbitraryZVertical|-0.6273136031090009|0.5549012718343787|-0.4227723594719167|0.3461586605537851|-0.1462539434432983|0.9034939408302307|0.402875542640686|0|0|0|-1|-1|3
2021-03-03 00:38:28.094 +0000|217636.097624|-0.1946563720703125|0.8874969482421875|0.454620361328125|217636.077663|1.885008305003985|-2.808455013553015|-1.118033511902794|-0.5842546820640564|0.5727205872535706|0.4808329045772552|-0.0466005951166153|-0.03600651025772095|-0.04659491777420044|XArbitraryZVertical|-0.6247027376531227|0.562536127092306|-0.4211263818529919|0.340517421035076|-0.1430509090423584|0.8992419242858887|0.413400799036026|0|0|0|-1|-1|3
2021-03-03 00:38:28.114 +0000|217636.117585|-0.2006683349609375|1.013748168945312|0.5856475830078125|217636.097624|1.859174045712644|-2.819827182181829|-1.110958994273876|-0.229226291179657|0.638032853603363|0.4073309302330017|-0.0508589893579483|-0.02542769908905029|0.01134723424911499|XArbitraryZVertical|-0.6215612723236336|0.5693632103372186|-0.4204398634769032|0.3357341740286707|-0.1403488963842392|0.8961247205734253|0.4210257530212402|0|0|0|-1|-1|3
2021-03-03 00:38:28.134 +0000|217636.137546|-0.2384796142578125|0.9963531494140625|0.6619873046875|217636.117585|1.843214535730249|-2.820166406264571|-1.10883109969541|0.07385339587926865|0.7526462078094482|0.2973489463329315|-0.05661004781723022|0.08635860681533813|0.1318668127059937|XArbitraryZVertical|-0.6175981876577912|0.574467877054135|-0.4225327144251568|0.3317005896482634|-0.1408082097768784|0.8951783180236816|0.4228817224502563|0|0|0|-1|-1|3
2021-03-03 00:38:28.154 +0000|217636.157508|-0.2568206787109375|0.9135284423828125|0.624969482421875|217636.137546|1.836560940089176|-2.809399914074703|-1.111617013374594|0.1474346816539764|0.8957148790359497|0.1850232034921646|-0.08112308382987976|0.122458815574646|0.2300959527492523|XArbitraryZVertical|-0.6127000725555155|0.578005066682749|-0.4275545951829681|0.3281859358239627|-0.1445391923189163|0.8964165449142456|0.4189824759960175|0|0|0|-1|-1|3
2021-03-03 00:38:28.174 +0000|217636.177469|-0.2110443115234375|0.807159423828125|0.4877777099609375|217636.157508|1.831603779805126|-2.794101734360585|-1.113285118031053|-0.1069526150822639|1.051904320716858|0.137889951467514|-0.1060474812984467|0.03502035140991211|0.2336100041866302|XArbitraryZVertical|-0.6075525272507547|0.5818400789246945|-0.4333943843890438|0.3232824753224972|-0.1504223048686981|0.8971546292304993|0.4153158962726593|0|0|0|-1|-1|3
2021-03-03 00:38:28.194 +0000|217636.19743|-0.1437530517578125|0.70379638671875|0.3853912353515625|217636.177469|1.822025350764976|-2.780441721958375|-1.108368041815184|-0.4595347940921783|1.132770776748657|0.1394407153129578|-0.07019104063510895|-0.05398368835449219|0.1073603332042694|XArbitraryZVertical|-0.6030119053348899|0.5874082616802414|-0.4379822873261968|0.3154357258898831|-0.1576379686594009|0.8949718475341797|0.4173436462879181|0|0|0|-1|-1|3
2021-03-03 00:38:28.214 +0000|217636.217391|-0.0909423828125|0.698577880859375|0.3786773681640625|217636.19743|1.806763842786373|-2.772279894250752|-1.097983017450676|-0.6783629059791565|1.035789728164673|0.1444691121578217|0.006746545433998108|-0.1685041189193726|-0.01952162384986877|XArbitraryZVertical|-0.5993133711964233|0.5942789232057164|-0.440516946234383|0.305942431045458|-0.1643851101398468|0.8902906775474548|0.424687922000885|0|0|0|-1|-1|3
2021-03-03 00:38:28.234 +0000|217636.237353|-0.04290771484375|0.74420166015625|0.410919189453125|217636.217391|1.790568363245461|-2.767305842168878|-1.086045906132904|-0.6842039227485657|0.9038545489311218|0.1105035245418549|0.06746400892734528|-0.1970621347427368|-0.06457105278968811|XArbitraryZVertical|-0.5963477765220005|0.6010265199198084|-0.4417733401898492|0.2966023392388317|-0.1703693568706512|0.8847912549972534|0.4337270855903625|0|0|0|-1|-1|3
2021-03-03 00:38:28.254 +0000|217636.257314|0.0139312744140625|0.7462158203125|0.449859619140625|217636.237353|1.778411717897914|-2.760851796442277|-1.075220794234361|-0.5227720737457275|0.8162180781364441|0.01826893165707588|0.1194934844970703|-0.1378127932548523|-0.03756940364837646|XArbitraryZVertical|-0.5939255205919324|0.6066257900529888|-0.4430159443040399|0.2880877834220834|-0.1767139881849289|0.8796951770782471|0.4414847493171692|0|0|0|-1|-1|3
2021-03-03 00:38:28.276 +0000|217636.277275|0.015106201171875|0.7843017578125|0.47125244140625|217636.257314|1.773602358834893|-2.750189985463933|-1.066731568856618|-0.3939025402069092|0.6423972845077515|-0.129651814699173|0.186114639043808|-0.1316386461257935|-0.005636066198348999|XArbitraryZVertical|-0.5921864650771694|0.6103657912107339|-0.4449231832841313|0.2807348755013046|-0.1842530518770218|0.8756265640258789|0.4464624226093292|0|0|0|-1|-1|3
2021-03-03 00:38:28.294 +0000|217636.297236|-0.0243988037109375|0.8420257568359375|0.439788818359375|217636.277275|1.775125027774438|-2.738380544371779|-1.057995362928608|-0.4308947026729584|0.4111063778400421|-0.3000108599662781|0.2160055041313171|-0.1147207021713257|0.0117681622505188|XArbitraryZVertical|-0.5921721282274965|0.6123477029250778|-0.4462151954347979|0.2743256594967987|-0.1925070285797119|0.87137371301651|0.4512750804424286|0|0|0|-1|-1|3
2021-03-03 00:38:28.314 +0000|217636.317198|-0.06463623046875|0.948333740234375|0.393096923828125|217636.297236|1.781364955401352|-2.726495732215439|-1.046205513726385|-0.4992360770702362|0.2489830702543259|-0.4475080072879791|0.1878102272748947|-0.03052228689193726|-0.004314571619033813|XArbitraryZVertical|-0.5943354004059035|0.613129431588781|-0.4462165284124849|0.2678218274620454|-0.2019856721162796|0.86552894115448|0.458324521780014|0|0|0|-1|-1|3
2021-03-03 00:38:28.334 +0000|217636.337159|-0.100555419921875|1.079116821289062|0.3132476806640625|217636.317198|1.79255242726201|-2.712999016098621|-1.033459331115615|-0.427557647228241|0.1311542838811874|-0.5672304034233093|0.1562329232692719|0.05041027069091797|-0.05927366018295288|XArbitraryZVertical|-0.5978919281493266|0.6126192368019254|-0.4458858731162951|0.2615508284617061|-0.2127209901809692|0.8590747714042664|0.4655541777610779|0|0|0|-1|-1|3
2021-03-03 00:38:28.354 +0000|217636.35712|-0.148345947265625|1.206253051757812|0.1904296875|217636.337159|1.806816264844661|-2.699651043366174|-1.023294627869614|-0.140863373875618|0.00167736504226923|-0.5137480497360229|0.1334669888019562|0.1991662383079529|-0.1299663186073303|XArbitraryZVertical|-0.6017850203512425|0.6108404727626494|-0.4457766650015351|0.256927991059146|-0.222639411687851|0.8538277149200439|0.4705425798892975|0|0|0|-1|-1|3
2021-03-03 00:38:28.373 +0000|217636.377081|-0.1472320556640625|1.3082275390625|0.1320648193359375|217636.35712|1.823082283356206|-2.685367605524078|-1.020449907321294|0.2529085278511047|0.08321179449558258|-0.3404287695884705|0.09159722924232483|0.3248111009597778|-0.2607221007347107|XArbitraryZVertical|-0.604256405415198|0.6079643196074271|-0.447378103052207|0.2551595242118493|-0.2304063886404037|0.8523433804512024|0.4694928228855133|0|0|0|-1|-1|3
2021-03-03 00:38:28.393 +0000|217636.397043|-0.14117431640625|1.317245483398438|0.1475067138671875|217636.377081|1.835677764161801|-2.670823126520007|-1.027793296508524|0.6493943333625793|0.3048069775104523|0.1328968852758408|0.08171623945236206|0.4336494207382202|-0.3269872665405273|XArbitraryZVertical|-0.602972389348727|0.6055370992893101|-0.4517302903684454|0.2562985937009376|-0.2343651652336121|0.8561608791351318|0.4605017602443695|0|0|0|-1|-1|3
2021-03-03 00:38:28.414 +0000|217636.417004|-0.1636962890625|1.44525146484375|0.1907196044921875|217636.417004|1.822259772380505|-2.655048913867065|-1.071743187966018|0.9918349385261536|1.114894866943359|1.12560498714447|0.06687203049659729|0.5345768332481384|-0.2376766204833984|XArbitraryZVertical|-0.5840489236796728|0.6086170532294065|-0.4673640968383001|0.2646564238996634|-0.223778173327446|0.8780361413955688|0.4230557382106781|0|0|0|-1|-1|3
2021-03-03 00:38:28.434 +0000|217636.436965|-0.2031402587890625|1.517288208007812|0.2155914306640625||||||||||||||||||||||||3
2021-03-03 00:38:28.454 +0000|217636.456926|-0.198974609375|1.394805908203125|0.200439453125|217636.436965|1.791602234845492|-2.655527690511442|-1.099598374871773|0.7504274249076843|1.549448728561401|1.41429603099823|0.01939204335212708|0.6216855049133301|-0.1879210472106934|XArbitraryZVertical|-0.5675190994439969|0.615313105319088|-0.4771097271289954|0.2677278855735007|-0.2120648175477982|0.8910251259803772|0.4013762772083282|0|0|0|-1|-1|3
2021-03-03 00:38:28.473 +0000|217636.476888|-0.1160430908203125|1.189315795898438|0.1957550048828125|217636.456926|1.745105807873961|-2.662066372118265|-1.12283320906513|0.3338318467140198|1.941994905471802|1.48447573184967|-0.01310773193836212|0.5497795939445496|-0.1801777184009552|XArbitraryZVertical|-0.5485727485356284|0.625465914461761|-0.4864426495144665|0.2668967925910533|-0.1998286694288254|0.9013311862945557|0.3842793405056|0|0|0|-1|-1|3
2021-03-03 00:38:28.493 +0000|217636.496849|-0.04412841796875|1.067169189453125|0.1534271240234375|217636.476888|1.684094337304729|-2.676850413745692|-1.137131030513119|-0.2246474474668503|2.063466310501099|1.474341630935669|0.05025340616703033|0.3267295360565186|-0.1674104630947113|XArbitraryZVertical|-0.5291753977111311|0.6385838123526072|-0.4936865227150181|0.2616441070676302|-0.1883301436901093|0.9074317216873169|0.3756317794322968|0|0|0|-1|-1|3
2021-03-03 00:38:28.513 +0000|217636.5168099167|-0.0294952392578125|1.002349853515625|0.08319091796875|217636.496849|1.613050900546943|-2.701749564562933|-1.142511609484339|-0.5592795610427856|1.873411059379578|1.414985060691833|0.1204574257135391|0.1760751008987427|-0.2158084511756897|XArbitraryZVertical|-0.5110167195056164|0.6532631693262436|-0.4976280816101004|0.2539205255289614|-0.176838681101799|0.9096794724464417|0.3757817149162292|0|0|0|-1|-1|3
2021-03-03 00:38:28.533 +0000|217636.5367709167|-0.035064697265625|0.883758544921875|0.0385589599609375|217636.5367709167|1.474631230091091|-2.767928881463048|-1.140546101076619|-0.4994059205055237|1.109114050865173|1.148499250411987|0.1159829646348953|-0.003374159336090088|-0.3476220965385437|XArbitraryZVertical|-0.4818321791116695|0.6797032163530046|-0.4978086802724049|0.2408899791959672|-0.1522530913352966|0.9088613986968994|0.3883174359798431|0|0|0|-1|-1|3
2021-03-03 00:38:28.553 +0000|217636.5567329167|-0.019439697265625|0.83734130859375|0.0587310791015625||||||||||||||||||||||||3
2021-03-03 00:38:28.573 +0000|217636.5766939167|-0.0062713623046875|0.8018951416015625|0.135955810546875|217636.5567329167|1.421553403830418|-2.797948679887083|-1.141074212343439|-0.2124845534563065|0.7108421921730042|0.9337302446365356|0.1170671135187149|-0.06574332714080811|-0.3417690396308899|XArbitraryZVertical|-0.4710184519969349|0.6886739750896811|-0.4971601429997904|0.238121300903387|-0.1403673142194748|0.9090815782546997|0.3922604620456696|0|0|0|-1|-1|3
2021-03-03 00:38:28.593 +0000|217636.5966549167|-0.0109405517578125|0.7721405029296875|0.1933746337890625|217636.5766939167|1.384363547472965|-2.821470467475154|-1.145978959382803|0.1729074567556381|0.3271625936031342|0.6819611191749573|0.1229991912841797|-0.1000940799713135|-0.2799792289733887|XArbitraryZVertical|-0.4629091161541872|0.6937744746626286|-0.497511583716898|0.2384834711639911|-0.1296977996826172|0.9111140370368958|0.3912157416343689|0|0|0|-1|-1|3
2021-03-03 00:38:28.613 +0000|217636.6166159167|-0.022796630859375|0.6860198974609375|0.23834228515625|217636.5966549167|1.364313575481561|-2.83639536624551|-1.156002976242644|0.4957034587860107|0.016205919906497|0.429145336151123|0.1116948202252388|-0.1305621862411499|-0.2092216312885284|XArbitraryZVertical|-0.4574525624562137|0.694928617738403|-0.4994254804673893|0.2416310678585479|-0.1210942417383194|0.9151996374130249|0.3843772709369659|0|0|0|-1|-1|3
2021-03-03 00:38:28.633 +0000|217636.6365779167|-0.0153961181640625|0.690032958984375|0.2860870361328125|217636.6166159167|1.357856947061664|-2.844098421566175|-1.168992559359574|0.6672115921974182|-0.1636124700307846|0.1869239062070847|0.09522607177495956|-0.2163471579551697|-0.1445608735084534|XArbitraryZVertical|-0.4542892237577511|0.6932326705109948|-0.5022919391253725|0.2464803252030937|-0.1146351993083954|0.9203570485115051|0.3739004731178284|0|0|0|-1|-1|3
2021-03-03 00:38:28.653 +0000|217636.6565389167|-0.0083770751953125|0.72613525390625|0.321441650390625|217636.6365779167|1.364357362703506|-2.842580022630322|-1.182657293990443|0.689214289188385|-0.2826651632785797|-0.01128106005489826|0.09364998340606689|-0.2461563348770142|-0.09128761291503906|XArbitraryZVertical|-0.4531392735495939|0.6895661743285548|-0.5058424082012686|0.2515687349135826|-0.1114875450730324|0.9256149530410767|0.3616734147071838|0|0|0|-1|-1|3
2021-03-03 00:38:28.673 +0000|217636.6764999167|-0.00372314453125|0.7161865234375|0.33489990234375|217636.6565389167|1.379842445172106|-2.834841659920357|-1.195158072602952|0.6710217595100403|-0.3715014755725861|-0.161306232213974|0.1006330400705338|-0.2088531851768494|-0.03762277960777283|XArbitraryZVertical|-0.453699546956021|0.6848557631417105|-0.5092562148467086|0.2564908337201405|-0.1107801795005798|0.9302736520767212|0.3497413992881775|0|0|0|-1|-1|3
2021-03-03 00:38:28.693 +0000|217636.6964609167|0.00537109375|0.74609375|0.334869384765625|217636.6764999167|1.403206092911883|-2.820907307396097|-1.205890778595997|0.590800404548645|-0.4033521413803101|-0.3081640303134918|0.1079721227288246|-0.2139425873756409|-0.008193522691726685|XArbitraryZVertical|-0.4556592612635734|0.6794915762942129|-0.5124560417601878|0.2608729422596964|-0.1124887466430664|0.9341574907302856|0.3386683166027069|0|0|0|-1|-1|3
2021-03-03 00:38:28.713 +0000|217636.7164229167|0.01385498046875|0.787261962890625|0.29974365234375|217636.6964609167|1.432204828799857|-2.801803572216854|-1.212799786968233|0.3931558430194855|-0.4110144376754761|-0.4336202144622803|0.1213766410946846|-0.2077188491821289|0.01062354445457458|XArbitraryZVertical|-0.4589506872770689|0.6742006979654669|-0.514937653630781|0.2639260252458284|-0.1167837604880333|0.9366006851196289|0.3303646147251129|0|0|0|-1|-1|3
2021-03-03 00:38:28.733 +0000|217636.7363839167|0.010772705078125|0.773712158203125|0.296478271484375|217636.7164229167|1.461769530561584|-2.78276203063284|-1.214491228878854|0.1149704232811928|-0.4581390023231506|-0.4685604572296143|0.1364123821258545|-0.1514101028442383|-0.01373124122619629|XArbitraryZVertical|-0.4635712604488326|0.6696270720964895|-0.515872367018406|0.2656634120360422|-0.1224963814020157|0.9371920228004456|0.3265974521636963|0|0|0|-1|-1|3
2021-03-03 00:38:28.753 +0000|217636.7563449167|0.0074462890625|0.799224853515625|0.3281707763671875|217636.7363839167|1.486202693428071|-2.769080441072941|-1.210420157165976|-0.1900448501110077|-0.46043461561203|-0.4762925207614899|0.1399067938327789|-0.1605108976364136|-0.03429818153381348|XArbitraryZVertical|-0.469198734253839|0.6663883645270536|-0.5147381460658697|0.2661273376634041|-0.1283406466245651|0.9357642531394958|0.3284417986869812|0|0|0|-1|-1|3
2021-03-03 00:38:28.773 +0000|217636.7763059167|0.007659912109375|0.8242340087890625|0.368255615234375|217636.7563449167|1.503966360670537|-2.761502586390689|-1.201049718145435|-0.438364714384079|-0.4429335296154022|-0.454718142747879|0.1422825306653976|-0.1414642333984375|-0.01864799857139587|XArbitraryZVertical|-0.4754686207515116|0.6646230168287306|-0.5117255996478192|0.2652222578276536|-0.1340733021497726|0.9324189424514771|0.3355883359909058|0|0|0|-1|-1|3
2021-03-03 00:38:28.793 +0000|217636.7962679167|0.0020294189453125|0.8559112548828125|0.341644287109375|217636.7763059167|1.515770458554423|-2.759442260840728|-1.188506708050484|-0.5495542883872986|-0.4548304677009583|-0.4148018956184387|0.1455084383487701|-0.107866644859314|0.01552760601043701|XArbitraryZVertical|-0.4819531206204498|0.6639196450437089|-0.5074079041301883|0.2635700170731607|-0.1391150206327438|0.927812933921814|0.346136212348938|0|0|0|-1|-1|3
2021-03-03 00:38:28.813 +0000|217636.8162289167|0.0040283203125|0.9012451171875|0.303253173828125|217636.7962679167|1.525005621617554|-2.760104705710284|-1.175084854666248|-0.5498046875|-0.4619681537151337|-0.4121076464653015|0.1454472243785858|-0.07886570692062378|-0.00741267204284668|XArbitraryZVertical|-0.4884809354343895|0.6635236706539671|-0.5025575628076074|0.2618371100527106|-0.1435093432664871|0.9227225780487061|0.3577545583248138|0|0|0|-1|-1|3
2021-03-03 00:38:28.833 +0000|217636.8361899167|0.0169677734375|0.914031982421875|0.315093994140625|217636.8162289167|1.53450272334313|-2.760472986858336|-1.162273630326138|-0.4884055852890015|-0.4412308633327484|-0.4213221967220306|0.1492884606122971|-0.02290278673171997|-0.05695250630378723|XArbitraryZVertical|-0.4948554561852646|0.6629429400724837|-0.4979063870567049|0.260219057246764|-0.1477626115083694|0.917708694934845|0.3687505424022675|0|0|0|-1|-1|3
2021-03-03 00:38:28.853 +0000|217636.8561509167|-0.0157012939453125|0.9287261962890625|0.3821868896484375|217636.8561509167|1.559300218416662|-2.757637797860956|-1.138813947969638|-0.4546307623386383|-0.599737823009491|-0.4799052774906158|0.1545875072479248|0.01475983858108521|-0.02048254013061523|XArbitraryZVertical|-0.5080746985821619|0.6602685557452104|-0.4893399670614237|0.2577829425648231|-0.1568305641412735|0.9081375598907471|0.3881889283657074|0|0|0|-1|-1|3
2021-03-03 00:38:28.873 +0000|217636.8761129167|-0.0807647705078125|0.9423980712890625|0.4225616455078125|217636.8761129167|1.569687298051883|-2.761425811853104|-1.125169835952943|-0.6668112874031067|-0.7119812965393066|-0.4309661090373993|0.09455826878547668|0.04570305347442627|0.01999282836914062|XArbitraryZVertical|-0.5157289109635864|0.6588993932253242|-0.4835128559047837|0.2570809489046225|-0.1599421501159668|0.902340829372406|0.4002494513988495|0|0|0|-1|-1|3
2021-03-03 00:38:28.893 +0000|217636.8960739167|-0.1073150634765625|0.9055023193359375|0.3629302978515625||||||||||||||||||||||||3
2021-03-03 00:38:28.912 +0000|217636.9160349167|-0.076446533203125|0.9015045166015625|0.28936767578125|217636.8960739167|1.571469941106021|-2.774665046069285|-1.109281556394582|-0.886492908000946|-0.7097180485725403|-0.3756828010082245|0.05143061280250549|0.01798146963119507|-0.03059178590774536|XArbitraryZVertical|-0.523300827571523|0.6587773189540048|-0.4757165392385023|0.2566367599350431|-0.1597527712583542|0.8953790068626404|0.4156626164913177|0|0|0|-1|-1|3
2021-03-03 00:38:28.932 +0000|217636.9359959167|-0.0877227783203125|0.973236083984375|0.3308563232421875|217636.9160349167|1.566298212617752|-2.794987501791459|-1.092287339584359|-1.016228318214417|-0.7742159962654114|-0.3265171349048615|0.07324443757534027|0.009961485862731934|-0.1345198750495911|XArbitraryZVertical|-0.530382637373611|0.6597203520280922|-0.4665390331494151|0.2565241070224424|-0.1564200520515442|0.8876824378967285|0.4330733716487885|0|0|0|-1|-1|3
2021-03-03 00:38:28.953 +0000|217636.9559579167|-0.1417999267578125|1.051193237304688|0.43756103515625|217636.9359959167|1.560622879318676|-2.817591023196223|-1.073996557776691|-0.9682774543762207|-0.8625339269638062|-0.3454267978668213|0.07423694431781769|0.06670385599136353|-0.1390416026115417|XArbitraryZVertical|-0.5379268559033067|0.6607138767680875|-0.4563007027320576|0.2566742320887979|-0.1517363488674164|0.8791123628616333|0.4518162608146667|0|0|0|-1|-1|3
2021-03-03 00:38:28.972 +0000|217636.9759189167|-0.187744140625|1.0487060546875|0.475341796875|217636.9559579167|1.561758333702472|-2.834558253093204|-1.055948242340011|-0.8007189631462097|-0.8804979920387268|-0.3779680728912354|0.02208088338375092|0.1735166907310486|-0.06056144833564758|XArbitraryZVertical|-0.5461836663080213|0.6605837383277285|-0.4466075091278496|0.2566208377856312|-0.1488203555345535|0.8703675270080566|0.46937495470047|0|0|0|-1|-1|3
2021-03-03 00:38:28.992 +0000|217636.9958799167|-0.21685791015625|1.01361083984375|0.451263427734375|217636.9759189167|1.568598563721759|-2.84600182403518|-1.040515900927755|-0.580450177192688|-0.8573703765869141|-0.4002235531806946|-0.02965182065963745|0.1857660412788391|-0.01293835043907166|XArbitraryZVertical|-0.5543752641284748|0.6592328196636564|-0.4383061487403254|0.2568419748973891|-0.1473348587751389|0.8626652956008911|0.4838396906852722|0|0|0|-1|-1|3
2021-03-03 00:38:29.012 +0000|217637.0158409167|-0.206146240234375|0.9481201171875|0.3944854736328125|217636.9958799167|1.577462936173171|-2.855055638505934|-1.028570578775743|-0.4487649500370026|-0.8151041865348816|-0.3697262108325958|-0.06795556843280792|0.1731923818588257|-0.03327292203903198|XArbitraryZVertical|-0.5618612292564318|0.6571254921963499|-0.4313143605417846|0.2578100094914938|-0.1458505690097809|0.8565621972084045|0.4950039088726044|0|0|0|-1|-1|3
2021-03-03 00:38:29.032 +0000|217637.0358029167|-0.1688690185546875|0.9293670654296875|0.37310791015625|217637.0158409167|1.585587321070099|-2.863820916937156|-1.018894882472871|-0.3696113228797913|-0.7637122869491577|-0.3017536401748657|-0.06800450384616852|0.1062804460525513|-0.09693795442581177|XArbitraryZVertical|-0.5684876827512795|0.654925149836042|-0.4250872009336299|0.2592215559464566|-0.1437722444534302|0.8515291213989258|0.5042104125022888|0|0|0|-1|-1|3
2021-03-03 00:38:29.052 +0000|217637.0557639167|-0.151153564453125|0.9295806884765625|0.38958740234375|217637.0358029167|1.591597884156964|-2.873487799988856|-1.011084125546877|-0.3000742793083191|-0.7253168225288391|-0.2196373790502548|-0.03897736966609955|0.0842939019203186|-0.1356928944587708|XArbitraryZVertical|-0.5741605135151615|0.6529372469062333|-0.4193584665102427|0.2610580302993184|-0.1406491249799728|0.8474079370498657|0.5119746923446655|0|0|0|-1|-1|3
2021-03-03 00:38:29.072 +0000|217637.0757249167|-0.17315673828125|0.9373321533203125|0.426727294921875|217637.0557639167|1.596118364916106|-2.884204064313605|-1.00546009471583|-0.158244788646698|-0.7258179187774658|-0.1680528372526169|-0.01533719897270203|0.08080834150314331|-0.1355304718017578|XArbitraryZVertical|-0.5790555097183697|0.6509388040849556|-0.4140972118182235|0.2636229479875717|-0.1363657265901566|0.8444085121154785|0.5180532336235046|0|0|0|-1|-1|3
2021-03-03 00:38:29.092 +0000|217637.0956859167|-0.1905670166015625|0.8900909423828125|0.4668121337890625|217637.0757249167|1.600686118549802|-2.894440230148175|-1.002894742795263|-0.02401888743042946|-0.674044668674469|-0.1434886306524277|-0.03311812877655029|0.1028609275817871|-0.1063287258148193|XArbitraryZVertical|-0.583185468279552|0.6485791352123613|-0.4097948752946119|0.2670357017964157|-0.1315852701663971|0.8430314660072327|0.5215203762054443|0|0|0|-1|-1|3
2021-03-03 00:38:29.112 +0000|217637.1156479167|-0.1914520263671875|0.873931884765625|0.5140228271484375|217637.0956859167|1.606163716299007|-2.902231289484387|-1.002583365620824|0.06348081678152084|-0.5669087171554565|-0.1544953882694244|-0.05895841121673584|0.05647385120391846|-0.06317460536956787|XArbitraryZVertical|-0.5866134538840555|0.6459697932930819|-0.4066924415578589|0.2705716233131856|-0.1275803297758102|0.8428639769554138|0.5227846503257751|0|0|0|-1|-1|3
2021-03-03 00:38:29.132 +0000|217637.1356089167|-0.204193115234375|0.9179229736328125|0.5428009033203125|217637.1156479167|1.612688640113324|-2.907035224642755|-1.003403836322749|0.09305465966463089|-0.4711940288543701|-0.1715473383665085|-0.06518735736608505|0.03074878454208374|-0.01731699705123901|XArbitraryZVertical|-0.5895203225961063|0.6432923729087898|-0.4046229037411747|0.2737170705227204|-0.1249066442251205|0.843305230140686|0.5227185487747192|0|0|0|-1|-1|3
2021-03-03 00:38:29.152 +0000|217637.1555699167|-0.2301025390625|0.94476318359375|0.5511322021484375|217637.1356089167|1.622273490043184|-2.906736035529986|-1.007956188779541|0.1350086331367493|-0.3804987072944641|-0.1854616403579712|-0.07566061615943909|0.05687558650970459|0.01477932929992676|XArbitraryZVertical|-0.591585328476753|0.6399204695430047|-0.404666043291171|0.2770816559714234|-0.1241685450077057|0.8457430601119995|0.5189428329467773|0|0|0|-1|-1|3
2021-03-03 00:38:29.172 +0000|217637.1755309167|-0.26202392578125|0.923675537109375|0.545135498046875|217637.1555699167|1.632206138472145|-2.904594531671825|-1.012223265496613|0.1151781156659126|-0.3070707321166992|-0.1911990791559219|-0.09689784795045853|0.09369903802871704|0.03577172756195068|XArbitraryZVertical|-0.5934259700182632|0.6367312017645487|-0.4051027886777102|0.2798403374332645|-0.1244308799505234|0.8480122089385986|0.5151619911193848|0|0|0|-1|-1|3
2021-03-03 00:38:29.192 +0000|217637.1954929167|-0.2643280029296875|0.8729705810546875|0.556884765625|217637.1755309167|1.641701139281948|-2.900971359773151|-1.014195284762362|0.02308137901127338|-0.203679621219635|-0.167997345328331|-0.1297478824853897|0.0849195122718811|0.03475326299667358|XArbitraryZVertical|-0.5952916322521072|0.6341682300587728|-0.4053909305814444|0.2812769212324762|-0.1258978843688965|0.8490557074546814|0.5130829215049744|0|0|0|-1|-1|3
2021-03-03 00:38:29.212 +0000|217637.2154539167|-0.265380859375|0.8566436767578125|0.5898590087890625|217637.1954929167|1.64865542546812|-2.897552926906327|-1.013327788323279|-0.08203275501728058|-0.125025138258934|-0.1099702641367912|-0.1384978741407394|0.03540557622909546|0.03966015577316284|XArbitraryZVertical|-0.596985790408575|0.6326848083727115|-0.4051943271910556|0.281310281721026|-0.1278290301561356|0.8485970497131348|0.5133641958236694|0|0|0|-1|-1|3
2021-03-03 00:38:29.232 +0000|217637.2354149167|-0.2801361083984375|0.8660888671875|0.615570068359375|217637.2154539167|1.651677659089224|-2.896605322545871|-1.010936930301678|-0.1071299165487289|-0.0749315470457077|-0.05441876500844955|-0.1339492797851562|0.01044291257858276|0.06821036338806152|XArbitraryZVertical|-0.5982587283525794|0.6322113150633557|-0.4044005225695643|0.2808121310939484|-0.1288070678710938|0.8473297953605652|0.5152093172073364|0|0|0|-1|-1|3
2021-03-03 00:38:29.252 +0000|217637.2553759167|-0.2857208251953125|0.8682861328125|0.63250732421875|217637.2354149167|1.651898337977129|-2.89743208764566|-1.009623920085052|-0.01303840801119804|-0.02109244838356972|0.005095249973237514|-0.1476714611053467|0.01692402362823486|0.093422532081604|XArbitraryZVertical|-0.5987748472985566|0.6321915132824871|-0.4037640735545079|0.2806725455978697|-0.1286499351263046|0.8466317653656006|0.5163948535919189|0|0|0|-1|-1|3
2021-03-03 00:38:29.272 +0000|217637.2753379167|-0.3016357421875|0.8821258544921875|0.6444244384765625|217637.2553759167|1.651435095560351|-2.89746368064987|-1.011233309049925|0.1528542190790176|0.05766084417700768|0.05085244402289391|-0.1566689163446426|0.01687765121459961|0.1108694672584534|XArbitraryZVertical|-0.5982924945844154|0.6321269103272829|-0.4042586865518952|0.2811346984079397|-0.1283042579889297|0.8474871516227722|0.5150766968727112|0|0|0|-1|-1|3
2021-03-03 00:38:29.292 +0000|217637.2952989167|-0.328582763671875|0.8519134521484375|0.6424713134765625|217637.2753379167|1.650968318277326|-2.896057809555916|-1.015686551980264|0.2707972526550293|0.1231723129749298|0.07801144570112228|-0.1659578531980515|0.0311388373374939|0.1337900757789612|XArbitraryZVertical|-0.5969107552993811|0.6319116170642833|-0.4059577730981023|0.2821055922845538|-0.1281095147132874|0.8498426079750061|0.5112294554710388|0|0|0|-1|-1|3
2021-03-03 00:38:29.312 +0000|217637.3152599167|-0.345245361328125|0.800140380859375|0.6173858642578125|217637.2952989167|1.650487106547345|-2.892970245139895|-1.022018011078995|0.3157020509243011|0.2273260951042175|0.1096829995512962|-0.194301575422287|0.01095825433731079|0.1382535696029663|XArbitraryZVertical|-0.5947731611886821|0.6317025216886152|-0.4086662056267556|0.2831764454133945|-0.1283608376979828|0.8531624674797058|0.5056063532829285|0|0|0|-1|-1|3
2021-03-03 00:38:29.332 +0000|217637.3352209167|-0.362579345703125|0.7946014404296875|0.6258392333984375|217637.3152599167|1.648608032731397|-2.888916957011338|-1.028182875366176|0.2677612900733948|0.3354467749595642|0.140261322259903|-0.2140937149524689|-0.04236668348312378|0.1259818077087402|XArbitraryZVertical|-0.5920187563983337|0.6320629609462467|-0.4118052623571477|0.2835960632804516|-0.129091739654541|0.8563621044158936|0.4999795854091644|0|0|0|-1|-1|3
2021-03-03 00:38:29.352 +0000|217637.3551829167|-0.388397216796875|0.7853240966796875|0.59283447265625|217637.3352209167|1.644347977663515|-2.884949255650044|-1.033416537620543|0.170906201004982|0.4195714890956879|0.1966835856437683|-0.2276089191436768|-0.07079887390136719|0.1298936605453491|XArbitraryZVertical|-0.5887162947509635|0.6332250837926768|-0.4149954583705821|0.2832279447557874|-0.1299351006746292|0.8590528964996338|0.4951217770576477|0|0|0|-1|-1|3
2021-03-03 00:38:29.372 +0000|217637.3751439167|-0.388031005859375|0.7713775634765625|0.5783538818359375|217637.3551829167|1.63728735525313|-2.88168553887679|-1.037533639581726|0.1416646689176559|0.522536039352417|0.2584305703639984|-0.2542321383953094|-0.07111376523971558|0.1098166704177856|XArbitraryZVertical|-0.5849014732754383|0.6352375532791279|-0.4180646434258768|0.2821093608111565|-0.1306403279304504|0.8611530661582947|0.4912729561328888|0|0|0|-1|-1|3
2021-03-03 00:38:29.391 +0000|217637.3951049167|-0.405029296875|0.776092529296875|0.5848236083984375|217637.3751439167|1.627753261767448|-2.878434935522651|-1.041653499130054|0.1313445270061493|0.6127808690071106|0.3168752491474152|-0.257206916809082|-0.09262549877166748|0.09243398904800415|XArbitraryZVertical|-0.5802857749112991|0.6379467465789392|-0.4214693298974972|0.2804567345743441|-0.1313123852014542|0.8632400631904602|0.4874152541160583|0|0|0|-1|-1|3
2021-03-03 00:38:29.411 +0000|217637.4150659167|-0.4078521728515625|0.7293243408203125|0.581573486328125|217637.3951049167|1.616095965653451|-2.875370845432653|-1.045756018492143|0.1018649116158485|0.700370728969574|0.3635279834270477|-0.2692963480949402|-0.0862051248550415|0.09476387500762939|XArbitraryZVertical|-0.5750129432137385|0.6412137972665642|-0.4250992946906574|0.2783804049325271|-0.1318724751472473|0.8653037548065186|0.4835900366306305|0|0|0|-1|-1|3
2021-03-03 00:38:29.431 +0000|217637.4350279167|-0.3854217529296875|0.7016754150390625|0.5792694091796875|217637.4150659167|1.602553138698689|-2.872016014008586|-1.049890498821759|0.1199969053268433|0.810103178024292|0.4020804166793823|-0.2789741158485413|-0.1240519285202026|0.1036511063575745|XArbitraryZVertical|-0.5690374318662701|0.6450136727000264|-0.4290655188106188|0.2757836883545322|-0.1325401812791824|0.867368757724762|0.4796924591064453|0|0|0|-1|-1|3
2021-03-03 00:38:29.451 +0000|217637.4549889167|-0.3706512451171875|0.6882171630859375|0.5675201416015625|217637.4350279167|1.591120069770839|-2.864083166597884|-1.052721588905355|0.1443595737218857|0.8771225214004517|0.4360958933830261|-0.2557504773139954|-0.1653897166252136|0.1029155254364014|XArbitraryZVertical|-0.5630074100190872|0.6489636599909031|-0.4336525752339461|0.2716879609620963|-0.1356679946184158|0.8687741756439209|0.4762623608112335|0|0|0|-1|-1|3
2021-03-03 00:38:29.471 +0000|217637.4749499167|-0.366180419921875|0.6795501708984375|0.563873291015625|217637.4549889167|1.583079853361982|-2.851082713309813|-1.054647722182299|0.1978765428066254|0.9189651608467102|0.4517574310302734|-0.2334638386964798|-0.1750243306159973|0.09684818983078003|XArbitraryZVertical|-0.557130686999136|0.6527115503386244|-0.4389037375318334|0.2663390740407375|-0.1413682997226715|0.8697264194488525|0.4728539288043976|0|0|0|-1|-1|3
2021-03-03 00:38:29.492 +0000|217637.4949109167|-0.3671417236328125|0.68157958984375|0.5732269287109375|217637.4749499167|1.575625948635106|-2.836716765526766|-1.057462756612236|0.2240277528762817|0.9679276943206787|0.4324051141738892|-0.2195627093315125|-0.190173327922821|0.09502363204956055|XArbitraryZVertical|-0.550893079395944|0.6563046264545854|-0.4446377024621421|0.260918803111254|-0.1474112272262573|0.8711122870445251|0.4684379100799561|0|0|0|-1|-1|3
2021-03-03 00:38:29.511 +0000|217637.5148735417|-0.3685760498046875|0.666229248046875|0.58160400390625|217637.4949109167|1.569660417746285|-2.820131544042721|-1.059555609593692|0.2088646441698074|1.025442361831665|0.3850929141044617|-0.2103001028299332|-0.1884068250656128|0.106435239315033|XArbitraryZVertical|-0.5447497264844871|0.6598080102008221|-0.450521762069348|0.2548164761612303|-0.1545833051204681|0.8721381425857544|0.4641977548599243|0|0|0|-1|-1|3
2021-03-03 00:38:29.531 +0000|217637.5348345417|-0.372283935546875|0.6627655029296875|0.585723876953125|217637.5148735417|1.565272261397261|-2.801192910066197|-1.05939536650664|0.08422353118658066|1.072856545448303|0.305828183889389|-0.2081740349531174|-0.1794023513793945|0.1202247738838196|XArbitraryZVertical|-0.5390415081509193|0.6633953168287064|-0.4561606322126123|0.2475042053089094|-0.1633927673101425|0.8720597624778748|0.4613181948661804|0|0|0|-1|-1|3
2021-03-03 00:38:29.551 +0000|217637.5547955417|-0.3518524169921875|0.62884521484375|0.5764007568359375|217637.5348345417|1.560884524134417|-2.781404775157651|-1.055489895716035|-0.1338744908571243|1.140456199645996|0.2000849843025208|-0.1991757601499557|-0.2110992670059204|0.1312435269355774|XArbitraryZVertical|-0.5339363553981371|0.667458982273372|-0.4609443910193536|0.2386228270935136|-0.1736880391836166|0.8701417446136475|0.4611790478229523|0|0|0|-1|-1|3
2021-03-03 00:38:29.571 +0000|217637.5747565417|-0.3377227783203125|0.6069183349609375|0.5657501220703125|217637.5547955417|1.557234334291235|-2.759747419406374|-1.047260990435815|-0.3252453505992889|1.191100835800171|0.08995838463306427|-0.171430766582489|-0.2261340022087097|0.1158802509307861|XArbitraryZVertical|-0.5295944712149682|0.6719367097725757|-0.4649082421153681|0.2277962721188487|-0.1862963140010834|0.8660570979118347|0.4639385044574738|0|0|0|-1|-1|3
2021-03-03 00:38:29.591 +0000|217637.5947185417|-0.3139801025390625|0.624542236328125|0.5599822998046875|217637.5747565417|1.549436591639069|-2.742393191411452|-1.03990333687503|-0.4890140891075134|1.225965619087219|-0.01102850399911404|-0.1456319242715836|-0.2558642029762268|0.1005376279354095|XArbitraryZVertical|-0.5246182383325531|0.6767738257653165|-0.4683682946896608|0.2176787503420736|-0.1967905312776566|0.8623552918434143|0.4664942026138306|0|0|0|-1|-1|3
2021-03-03 00:38:29.611 +0000|217637.6146795417|-0.2939453125|0.6313323974609375|0.5654449462890625|217637.5947185417|1.543323532540202|-2.722913580351311|-1.029264042783417|-0.6040576100349426|1.248448371887207|-0.1234186887741089|-0.1098235547542572|-0.2330184578895569|0.08691740036010742|XArbitraryZVertical|-0.5204373256780641|0.6816225942197449|-0.471238218054379|0.2060830655804708|-0.2095581740140915|0.8569198846817017|0.4709287285804749|0|0|0|-1|-1|3
2021-03-03 00:38:29.631 +0000|217637.6346405417|-0.268890380859375|0.63861083984375|0.56427001953125|217637.6146795417|1.539487661542757|-2.700969073822912|-1.015998507404461|-0.6911820769309998|1.27669358253479|-0.2489081025123596|-0.07370036840438843|-0.2233741283416748|0.08935362100601196|XArbitraryZVertical|-0.5170349347555119|0.686224209889709|-0.4737403983971799|0.1932390695656424|-0.224670022726059|0.8500069379806519|0.4764575660228729|0|0|0|-1|-1|3
2021-03-03 00:38:29.651 +0000|217637.6546015417|-0.2482147216796875|0.657745361328125|0.552886962890625|217637.6346405417|1.537736194188418|-2.676792420695627|-0.9999428888330376|-0.7932547926902771|1.294601678848267|-0.3745476901531219|-0.03348678350448608|-0.203210711479187|0.08362507820129395|XArbitraryZVertical|-0.5144541584545882|0.6905429696896085|-0.4758219380471456|0.179111330744148|-0.2422090023756027|0.8414401412010193|0.4830253422260284|0|0|0|-1|-1|3
2021-03-03 00:38:29.671 +0000|217637.6745635417|-0.2366790771484375|0.67578125|0.5240020751953125|217637.6546015417|1.537865154909383|-2.650772438479971|-0.9809921175661611|-0.8875535726547241|1.298391222953796|-0.5080634355545044|0.01057693362236023|-0.1815286874771118|0.06793439388275146|XArbitraryZVertical|-0.512758109517376|0.6945126354008999|-0.4774124453288078|0.1637337754907877|-0.2621638476848602|0.8310496211051941|0.4905373454093933|0|0|0|-1|-1|3
2021-03-03 00:38:29.691 +0000|217637.6945245417|-0.241058349609375|0.7183990478515625|0.48797607421875|217637.6745635417|1.539266254604803|-2.624059011733257|-0.9594505916497754|-0.9598564505577087|1.268530607223511|-0.6059941649436951|0.04629409313201904|-0.146970808506012|0.03244587779045105|XArbitraryZVertical|-0.5119534056708848|0.6980728826617817|-0.4783895396949169|0.147449764293683|-0.2839649319648743|0.818876326084137|0.4988040924072266|0|0|0|-1|-1|3
2021-03-03 00:38:29.711 +0000|217637.7144855417|-0.2383880615234375|0.7540130615234375|0.5120849609375|217637.6945245417|1.541167800952434|-2.597663530783332|-0.9360592563316947|-0.9885635375976562|1.22405481338501|-0.6704114079475403|0.06850349903106689|-0.09921878576278687|-0.01205933094024658|XArbitraryZVertical|-0.5118474117197231|0.7012184226323461|-0.4787788230448883|0.1306742666848773|-0.3068609833717346|0.8052276372909546|0.5073900818824768|0|0|0|-1|-1|3
2021-03-03 00:38:29.731 +0000|217637.7344465417|-0.2547149658203125|0.8372955322265625|0.537322998046875|217637.7144855417|1.542386056862753|-2.572853439728332|-0.911750104721517|-1.0406334400177|1.155068159103394|-0.6657878160476685|0.09104633331298828|-0.04086649417877197|-0.01108264923095703|XArbitraryZVertical|-0.5121099108361534|0.7040782709563961|-0.4785874071867149|0.1138922120313269|-0.3298006355762482|0.7905766367912292|0.5159655213356018|0|0|0|-1|-1|3
2021-03-03 00:38:29.751 +0000|217637.7544085417|-0.2802886962890625|0.970672607421875|0.55816650390625|217637.7344465417|1.541181286713692|-2.551357002895106|-0.8867591697367827|-1.096029996871948|1.105775356292725|-0.6435134410858154|0.1044193804264069|0.02662307024002075|0.002775311470031738|XArbitraryZVertical|-0.5124793994861198|0.7070150817988146|-0.477502839228462|0.09739360743091066|-0.3517032265663147|0.775027871131897|0.5250109434127808|0|0|0|-1|-1|3
2021-03-03 00:38:29.771 +0000|217637.7743695417|-0.305267333984375|1.110321044921875|0.53472900390625|217637.7544085417|1.538084104942421|-2.53182538765874|-0.8616856705292814|-1.078090190887451|1.093062400817871|-0.6080256700515747|0.1004731953144073|0.1788638830184937|0.02325981855392456|XArbitraryZVertical|-0.5126654549374317|0.7099845907210908|-0.4759470575408366|0.08105785730369944|-0.3729035556316376|0.7589412927627563|0.5338079929351807|0|0|0|-1|-1|3
2021-03-03 00:38:29.791 +0000|217637.7943305417|-0.3098297119140625|1.143646240234375|0.5010986328125|217637.7743695417|1.53461398184764|-2.512502710528209|-0.8384648896204677|-0.9296844601631165|1.104977250099182|-0.553766667842865|0.0928305983543396|0.3321270942687988|0.00727236270904541|XArbitraryZVertical|-0.5123252733892089|0.7126202949823517|-0.4747942715749192|0.06531157997341902|-0.3934134840965271|0.7436175942420959|0.5406097173690796|0|0|0|-1|-1|3
2021-03-03 00:38:29.810 +0000|217637.8142925417|-0.30157470703125|1.133163452148438|0.5389862060546875|217637.7943305417|1.532653259899144|-2.49153318986366|-0.8190309444656113|-0.7125042080879211|1.143015146255493|-0.4978708326816559|0.103303849697113|0.4200435876846313|-0.04030275344848633|XArbitraryZVertical|-0.5112370236612013|0.7144641004281569|-0.4749898442249275|0.05062034865132597|-0.4133319556713104|0.7304843664169312|0.5436444878578186|0|0|0|-1|-1|3
2021-03-03 00:38:29.831 +0000|217637.8342535417|-0.2638397216796875|1.139404296875|0.6047515869140625|217637.8342535417|1.531350197658676|-2.444842361657551|-0.7881419556819903|-0.5700273513793945|1.224245548248291|-0.4138375520706177|0.1774691343307495|0.4289257526397705|0.05002284049987793|XArbitraryZVertical|-0.5069760683058382|0.7165065334285163|-0.4786134936643922|0.02286585329042315|-0.4525240957736969|0.7090442776679993|0.5408126711845398|0|0|0|-1|-1|3
2021-03-03 00:38:29.851 +0000|217637.8542145417|-0.2071380615234375|1.152862548828125|0.619903564453125|217637.8542145417|1.5294663228868|-2.421840813931337|-0.7744399988034095|-0.5664664506912231|1.205493688583374|-0.3868764340877533|0.2507748007774353|0.4533179998397827|0.08293545246124268|XArbitraryZVertical|-0.5040630559852913|0.7174114570391628|-0.4807837655635258|0.009399940501189058|-0.4712034165859222|0.6993159055709839|0.5375175476074219|0|0|0|-1|-1|3
2021-03-03 00:38:29.871 +0000|217637.8741755417|-0.15924072265625|1.129135131835938|0.5660400390625||||||||||||||||||||||||3
2021-03-03 00:38:29.891 +0000|217637.8941375417|-0.105621337890625|1.0828857421875|0.4863128662109375|217637.8741755417|1.527459140639643|-2.399835493274936|-0.7606827845276803|-0.5304129123687744|1.133258581161499|-0.4312364161014557|0.3190057277679443|0.4471194744110107|0.05288243293762207|XArbitraryZVertical|-0.501352305604626|0.7181064810390463|-0.4826539099353661|-0.003767420938368932|-0.4893701076507568|0.6894161701202393|0.5340620875358582|0|0|0|-1|-1|3
2021-03-03 00:38:29.911 +0000|217637.9140985417|-0.0783233642578125|1.006027221679688|0.42205810546875|217637.8941375417|1.527706003455331|-2.378536408722236|-0.7475184393066704|-0.399742603302002|0.9610881209373474|-0.4784192144870758|0.3884540796279907|0.4176980257034302|-0.02489018440246582|XArbitraryZVertical|-0.4994738991120207|0.7180125314500242|-0.4844893821183042|-0.01593472924464059|-0.5068622827529907|0.6798209547996521|0.5300323367118835|0|0|0|-1|-1|3
2021-03-03 00:38:29.930 +0000|217637.9340595417|-0.060302734375|0.964599609375|0.3671417236328125|217637.9140985417|1.531941687908953|-2.358978138662229|-0.7364468009132032|-0.1558405607938766|0.7022413611412048|-0.5183947086334229|0.4398872256278992|0.3527087569236755|-0.08770120143890381|XArbitraryZVertical|-0.4989355761925456|0.7167461155618184|-0.486491509604188|-0.02577693987467486|-0.5224068760871887|0.6716597080230713|0.5253233909606934|0|0|0|-1|-1|3
2021-03-03 00:38:29.950 +0000|217637.9540205417|-0.063018798828125|0.940948486328125|0.352935791015625|217637.9340595417|1.541636901012827|-2.341606096454889|-0.7288312251862311|0.1295513659715652|0.3891667723655701|-0.5223255157470703|0.4729582071304321|0.3066732883453369|-0.1418492794036865|XArbitraryZVertical|-0.5000269458079252|0.7140252364917297|-0.4889773084396043|-0.03228429809713768|-0.5351072549819946|0.6659982204437256|0.5197179913520813|0|0|0|-1|-1|3
2021-03-03 00:38:29.970 +0000|217637.9739825417|-0.07513427734375|0.9190521240234375|0.400543212890625|217637.9540205417|1.556426357579463|-2.326976928659637|-0.7253147679691437|0.4024284482002258|0.09921510517597198|-0.489795982837677|0.4802508950233459|0.2825060486793518|-0.1656140685081482|XArbitraryZVertical|-0.5025680590053968|0.710031279239645|-0.4919848312452915|-0.03509795748853113|-0.5443530082702637|0.6633710265159607|0.5134381651878357|0|0|0|-1|-1|3
2021-03-03 00:38:29.990 +0000|217637.9939435417|-0.0797882080078125|0.8843536376953125|0.456146240234375|217637.9739825417|1.574075959345589|-2.315583443414611|-0.724984444370567|0.5262013077735901|-0.1199875548481941|-0.4350210726261139|0.4801685810089111|0.2620166540145874|-0.1175045967102051|XArbitraryZVertical|-0.5060834325350794|0.7053759802829984|-0.4950827967895637|-0.03489071637160028|-0.5503285527229309|0.6631237864494324|0.5073514580726624|0|0|0|-1|-1|3
2021-03-03 00:38:30.010 +0000|217638.0139045417|-0.08526611328125|0.8818206787109375|0.493133544921875|217637.9939435417|1.592098440107686|-2.30760294289278|-0.726440771054969|0.555711567401886|-0.2707372903823853|-0.3700973689556122|0.4734286069869995|0.2299213409423828|-0.06027728319168091|XArbitraryZVertical|-0.5100766360826104|0.7006916402771293|-0.4977784126383042|-0.03270604083292286|-0.5536440014839172|0.6642131805419922|0.5022938847541809|0|0|0|-1|-1|3
2021-03-03 00:38:30.030 +0000|217638.0338655417|-0.1082305908203125|0.8967742919921875|0.48980712890625|217638.0139045417|1.609477542152893|-2.302708931533426|-0.7289138394487219|0.580223560333252|-0.3951546847820282|-0.3144317865371704|0.4750532507896423|0.2104965448379517|-0.01164746284484863|XArbitraryZVertical|-0.5143098244545784|0.6962219244568586|-0.4999079258699052|-0.02919821109518669|-0.5548719763755798|0.6660598516464233|0.4984791278839111|0|0|0|-1|-1|3
2021-03-03 00:38:30.050 +0000|217638.0538275417|-0.1388092041015625|0.91400146484375|0.4553070068359375|217638.0338655417|1.624227748518104|-2.303497219561994|-0.7380020440971621|0.5902265906333923|-0.5003719329833984|-0.2449378371238708|0.448241114616394|0.2217201590538025|0.002772808074951172|XArbitraryZVertical|-0.5173599568739138|0.6926486467946378|-0.5020895725798236|-0.02196941081212278|-0.5499562621116638|0.6728111505508423|0.4948469400405884|0|0|0|-1|-1|3
2021-03-03 00:38:30.070 +0000|217638.0737885417|-0.1432647705078125|0.913238525390625|0.4900054931640625|217638.0538275417|1.635195315303919|-2.310053860870917|-0.7526056118697804|0.5594339966773987|-0.5342318415641785|-0.1788630485534668|0.406782329082489|0.2276051640510559|-0.03077089786529541|XArbitraryZVertical|-0.5191412230150459|0.690200793219655|-0.5039631888499401|-0.01168144975212251|-0.539381206035614|0.6835429668426514|0.4917694926261902|0|0|0|-1|-1|3
2021-03-03 00:38:30.090 +0000|217638.0937495417|-0.155975341796875|0.9375762939453125|0.5304412841796875|217638.0737885417|1.643360029748853|-2.319534945669882|-0.7672722670753187|0.5478144884109497|-0.5633723735809326|-0.1005719676613808|0.3843640089035034|0.2198727130889893|-0.01090323925018311|XArbitraryZVertical|-0.5206591089468758|0.6884081524506418|-0.5049822766241903|-0.001050062740807212|-0.5272929668426514|0.6941744089126587|0.4899833798408508|0|0|0|-1|-1|3
2021-03-03 00:38:30.110 +0000|217638.1137105417|-0.19500732421875|0.9788970947265625|0.577667236328125|217638.0937495417|1.6498936589339|-2.33214173160742|-0.7823691726279715|0.6422224640846252|-0.6840413808822632|-0.01745408959686756|0.3657847046852112|0.2218112945556641|0.02049067616462708|XArbitraryZVertical|-0.5222849802728073|0.6869287637475878|-0.5052117023044398|0.0104088964795056|-0.5134286284446716|0.7049617171287537|0.4893054664134979|0|0|0|-1|-1|3
