loggingTime(txt)|accelerometerTimestamp_sinceReboot(s)|accelerometerAccelerationX(G)|accelerometerAccelerationY(G)|accelerometerAccelerationZ(G)|motionTimestamp_sinceReboot(s)|motionYaw(rad)|motionRoll(rad)|motionPitch(rad)|motionRotationRateX(rad/s)|motionRotationRateY(rad/s)|motionRotationRateZ(rad/s)|motionUserAccelerationX(G)|motionUserAccelerationY(G)|motionUserAccelerationZ(G)|motionAttitudeReferenceFrame(txt)|motionQuaternionX(R)|motionQuaternionY(R)|motionQuaternionZ(R)|motionQuaternionW(R)|motionGravityX(G)|motionGravityY(G)|motionGravityZ(G)|motionMagneticFieldX(µT)|motionMagneticFieldY(µT)|motionMagneticFieldZ(µT)|motionHeading(°)|motionMagneticFieldCalibrationAccuracy(Z)|label
2021-03-10 21:05:46.757 +0000|290829.203179125|-0.155609130859375|-0.0404205322265625|-0.97332763671875|290829.183215125|-2.62804118759929|-0.162783592055814|0.02635882750829834|-0.04393459856510162|-0.02482914924621582|-0.04859946295619011|0.0633460134267807|-0.02318954467773438|0.003862738609313965|XArbitraryZVertical|-0.07529363662614069|-0.03335066702497795|-0.9642003539956664|0.2520642931332101|-0.1620093286037445|-0.02635577507317066|-0.986437201499939|0|0|0|-1|-1|3
2021-03-10 21:05:46.759 +0000|290829.223143125|-0.169281005859375|-0.0457763671875|-0.98291015625|290829.203179125|-2.629541817157842|-0.161467416121973|0.02597534728219059|-0.0855637714266777|0.008926684036850929|-0.06266592442989349|-0.01871560513973236|-0.008542992174625397|0.0171007513999939|XArbitraryZVertical|-0.07473257008888229|-0.03294393276113515|-0.9644369660461238|0.25137812540602|-0.1607124805450439|-0.02597242593765259|-0.9866594672203064|0|0|0|-1|-1|3
2021-03-10 21:05:46.760 +0000|290829.243107125|-0.1696624755859375|-0.0084991455078125|-0.981903076171875|290829.223143125|-2.631272209649434|-0.1615698262294175|0.0241464756208465|-0.1271228194236755|-0.005031210370361805|-0.07581945508718491|-0.003439947962760925|-0.02212055772542953|0.00664675235748291|XArbitraryZVertical|-0.07504136479023922|-0.03201045062925505|-0.9646427251253348|0.2506162268892726|-0.1608208864927292|-0.0241441298276186|-0.9866882562637329|0|0|0|-1|-1|3
2021-03-10 21:05:46.761 +0000|290829.263071125|-0.1642608642578125|-0.016448974609375|-0.974578857421875|290829.243107125|-2.633188132571863|-0.1617357955431838|0.02055721858915971|-0.1196032464504242|0.01074024196714163|-0.08237101137638092|-0.007734104990959167|-0.001828908920288086|0.002228379249572754|XArbitraryZVertical|-0.07560342380403759|-0.03022850576307742|-0.9648590997098596|0.2498347634443726|-0.1609975695610046|-0.02055577002465725|-0.9867407083511353|0|0|0|-1|-1|3
2021-03-10 21:05:46.775 +0000|290829.283035|-0.1591033935546875|-0.0081634521484375|-0.9795074462890625|290829.263071125|-2.635176518469228|-0.1609451655916112|0.01919571260978395|-0.106158971786499|0.02849303558468819|-0.08104564249515533|-0.009333938360214233|0.01342667639255524|0.01170521974563599|XArbitraryZVertical|-0.07542242354211352|-0.02939819436911974|-0.9651295651003801|0.2489418766679131|-0.1602217108011246|-0.01919453404843807|-0.986894428730011|0|0|0|-1|-1|3
2021-03-10 21:05:46.795 +0000|290829.302999|-0.1634521484375|0.0031890869140625|-0.98126220703125|290829.283035|-2.636985962114808|-0.1606053820087931|0.0174643149021751|-0.1147072091698647|0.0173988901078701|-0.08026932924985886|0.005136817693710327|0.008125022053718567|0.0101582407951355|XArbitraryZVertical|-0.07550099743193743|-0.02845240583910059|-0.9653575704935529|0.2481428384118184|-0.1598914414644241|-0.01746342703700066|-0.986980140209198|0|0|0|-1|-1|3
2021-03-10 21:05:46.818 +0000|290829.322962|-0.1709442138671875|-0.005859375|-0.972564697265625|290829.302999|-2.639199927179043|-0.1601939921040623|0.01606854533602085|-0.1080017238855362|0.0232502818107605|-0.1105351746082306|-0.004161357879638672|0.01686128415167332|0.00582200288772583|XArbitraryZVertical|-0.07550718345721795|-0.0276443123827785|-0.9656389192125869|0.247135386911048|-0.1594891250133514|-0.01606785319745541|-0.9870688915252686|0|0|0|-1|-1|3
2021-03-10 21:05:46.835 +0000|290829.342926|-0.18115234375|-0.0482025146484375|-0.982879638671875|290829.322962|-2.641891667206609|-0.1596114786965244|0.01457808727137353|-0.1471061408519745|0.04441554099321365|-0.1272352486848831|-0.009112000465393066|0.01236501429229975|0.01159828901290894|XArbitraryZVertical|-0.07544708007624004|-0.02675140546605557|-0.9659835012153841|0.2459025695367406|-0.1589177548885345|-0.01457757130265236|-0.9871842265129089|0|0|0|-1|-1|3
2021-03-10 21:05:46.854 +0000|290829.36289|-0.182647705078125|-0.019439697265625|-0.9696044921875|290829.342926|-2.645544271771726|-0.1586537526123129|0.01147798488693414|-0.1732735186815262|0.0700504332780838|-0.1977978348731995|-0.01967944204807281|-0.02410579472780228|0.002588868141174316|XArbitraryZVertical|-0.07541310736156336|-0.02499899491822228|-0.9664466072971647|0.2442722231964152|-0.1579786092042923|-0.01147773303091526|-0.9873758554458618|0|0|0|-1|-1|3
2021-03-10 21:05:46.874 +0000|290829.382854|-0.168670654296875|-0.0179595947265625|-0.967254638671875|290829.36289|-2.650290578444814|-0.1576684221289198|0.008760401145750593|-0.177791491150856|0.06058923900127411|-0.2287931144237518|-0.009631261229515076|-0.01656933128833771|0.01395589113235474|XArbitraryZVertical|-0.0753257252941598|-0.02338698351779269|-0.9670413157162056|0.2420957075888542|-0.1570099592208862|-0.008760289289057255|-0.9875581860542297|0|0|0|-1|-1|3
2021-03-10 21:05:46.894 +0000|290829.402818|-0.1819000244140625|-0.00732421875|-0.969757080078125|290829.382854|-2.655224372991119|-0.1562689465293591|0.005790400955446136|-0.1756303310394287|0.0808093398809433|-0.2179965674877167|-0.01734250783920288|-0.0129474550485611|0.02063518762588501|XArbitraryZVertical|-0.07506297935934796|-0.02159655460106068|-0.9676653840259457|0.2398393210117019|-0.1556310951709747|-0.005790368653833866|-0.987798273563385|0|0|0|-1|-1|3
2021-03-10 21:05:46.915 +0000|290829.422782|-0.1943511962890625|-0.030426025390625|-0.980743408203125|290829.402818|-2.659710375208067|-0.1548608092029367|0.002509950606873443|-0.2000470757484436|0.1000482812523842|-0.1768137216567993|-0.02259199321269989|-0.001350551843643188|0.01924937963485718|XArbitraryZVertical|-0.07481999897858871|-0.0196727879188857|-0.9682265879005821|0.2378073052439127|-0.1542420834302902|-0.002509947866201401|-0.9880298972129822|0|0|0|-1|-1|3
2021-03-10 21:05:46.934 +0000|290829.442746|-0.2150421142578125|-0.088623046875|-0.9842529296875|290829.422782|-2.663343165087346|-0.1525804982509894|-0.000344355325305943|-0.2279849201440811|0.1395465731620789|-0.1005831211805344|-0.0477026104927063|-0.02919875085353851|0.01307082176208496|XArbitraryZVertical|-0.07408824216000237|-0.01788521117987086|-0.9687166196290865|0.2361761929373117|-0.15198914706707|0.0003443553287070245|-0.98838210105896|0|0|0|-1|-1|3
2021-03-10 21:05:46.954 +0000|290829.46271|-0.2269439697265625|-0.116973876953125|-0.9656829833984375|290829.442746|-2.666559350635437|-0.1490507807099272|-0.004975764757164402|-0.3806414306163788|0.23821160197258|-0.1300710588693619|-0.05949486792087555|-0.07818743586540222|0.002648413181304932|XArbitraryZVertical|-0.07294960351265196|-0.01510745578435091|-0.9691808921285957|0.2348159381642857|-0.1484976708889008|0.004975744057446718|-0.9889002442359924|0|0|0|-1|-1|3
2021-03-10 21:05:46.974 +0000|290829.482673|-0.211090087890625|-0.1391143798828125|-0.929595947265625|290829.46271|-2.670638376196673|-0.1440251919727117|-0.01353541938392545|-0.6154274344444275|0.3139340877532959|-0.1673855036497116|-0.07389257848262787|-0.1280522346496582|0.01564818620681763|XArbitraryZVertical|-0.07153801168055665|-0.0102223047493644|-0.9697470801948476|0.2331704898734827|-0.1435146331787109|0.01353500597178936|-0.9895556569099426|0|0|0|-1|-1|3
2021-03-10 21:05:46.994 +0000|290829.502637|-0.2007293701171875|-0.088165283203125|-0.9253387451171875|290829.482673|-2.677585633226618|-0.1367627034892678|-0.02711167514797395|-0.9249957799911499|0.4351934194564819|-0.2979963421821594|-0.08231072127819061|-0.1718074828386307|0.05534672737121582|XArbitraryZVertical|-0.06960077876519467|-0.002547671563123466|-0.9706310503340264|0.230270786584384|-0.136286661028862|0.02710835449397564|-0.9902985095977783|0|0|0|-1|-1|3
2021-03-10 21:05:47.014 +0000|290829.522601|-0.2144317626953125|-0.0807647705078125|-0.928070068359375|290829.502637|-2.686952134814406|-0.1279519810974195|-0.04685582314425644|-1.231228470802307|0.5161526203155518|-0.3791311383247375|-0.07341885566711426|-0.1455478072166443|0.06478762626647949|XArbitraryZVertical|-0.06753914004339404|0.008372100176319421|-0.9716762983250039|0.2263038684793479|-0.127463087439537|0.04683867841959|-0.990736722946167|0|0|0|-1|-1|3
2021-03-10 21:05:47.034 +0000|290829.542565|-0.2258758544921875|-0.07989501953125|-0.91400146484375|290829.522601|-2.69775155778455|-0.1176918014754587|-0.07337290765063804|-1.538165807723999|0.570428729057312|-0.3965049684047699|-0.08827891945838928|-0.1652718335390091|0.06220293045043945|XArbitraryZVertical|-0.06539009533328666|0.02278080991711587|-0.9726581072623708|0.2216789213011969|-0.1171043589711189|0.0733070895075798|-0.990410327911377|0|0|0|-1|-1|3
2021-03-10 21:05:47.054 +0000|290829.562529|-0.22760009765625|-0.08843994140625|-0.8624420166015625|290829.542565|-2.709863330066839|-0.1053818573360389|-0.1066727385611472|-1.930221676826477|0.7633202075958252|-0.4299267530441284|-0.1144966557621956|-0.1823525279760361|0.06420880556106567|XArbitraryZVertical|-0.06277405004860584|0.04073682694220383|-0.9734474465851649|0.2163332390118445|-0.1045890152454376|0.1064705476164818|-0.9887998700141907|0|0|0|-1|-1|3
2021-03-10 21:05:47.074 +0000|290829.582493|-0.2191314697265625|-0.0898895263671875|-0.8085784912109375|290829.562529|-2.722688843583576|-0.09044943027916119|-0.1484511990116627|-2.35154128074646|0.9000972509384155|-0.4347273707389832|-0.1452101320028305|-0.2322418987751007|0.1129187345504761|XArbitraryZVertical|-0.05950282847651367|0.06308837961058686|-0.973757279693629|0.2104186225224539|-0.08933268487453461|0.1479065418243408|-0.9849585294723511|0|0|0|-1|-1|3
2021-03-10 21:05:47.094 +0000|290829.602457|-0.1859130859375|-0.0565948486328125|-0.81689453125|290829.582493|-2.735319011808887|-0.07294012244358605|-0.1998965778880625|-2.996867179870605|1.098835587501526|-0.3908798396587372|-0.1475698053836823|-0.2879081964492798|0.1508972644805908|XArbitraryZVertical|-0.05565092817682203|0.09034608465694141|-0.9731685456474309|0.2041658090962353|-0.07142430543899536|0.1985679715871811|-0.9774811267852783|0|0|0|-1|-1|3
2021-03-10 21:05:47.114 +0000|290829.622421|-0.1702423095703125|0.0762481689453125|-0.7895050048828125|290829.602457|-2.747535328724746|-0.05177945629814765|-0.266041910280698|-3.621896266937256|1.212682843208313|-0.3339097797870636|-0.147269070148468|-0.3391628265380859|0.1526434421539307|XArbitraryZVertical|-0.0511159961770793|0.1249966484977372|-0.9709913974286047|0.197328882503332|-0.0499354861676693|0.2629146575927734|-0.9635260105133057|0|0|0|-1|-1|3
2021-03-10 21:05:47.134 +0000|290829.642384|-0.0609130859375|0.2315673828125|-0.75732421875|290829.622421|-2.754569889890629|-0.02884050490284244|-0.3425875327433956|-3.957752466201782|1.2511967420578|-0.01441672630608082|-0.1506498605012894|-0.2782166600227356|0.1533194184303284|XArbitraryZVertical|-0.04672005995238721|0.1645259135151552|-0.9664001109943927|0.1918839513080619|-0.0271607767790556|0.3359253704547882|-0.9414969086647034|0|0|0|-1|-1|3
2021-03-10 21:05:47.154 +0000|290829.662348|-0.0573883056640625|0.5033416748046875|-0.800811767578125|290829.642384|-2.760404117664141|-6.564455959353308e-05|-0.4243422934657551|-4.243871212005615|1.693583130836487|-0.4164907336235046|-0.1230327934026718|-0.2113430798053741|0.1839232444763184|XArbitraryZVertical|-0.03992483834366804|0.2067634816195596|-0.9598726893086299|0.1852012279339511|-5.982252696412615e-05|0.4117214977741241|-0.9113097190856934|0|0|0|-1|-1|3
2021-03-10 21:05:47.174 +0000|290829.682312|-0.0056304931640625|0.67877197265625|-0.805450439453125|290829.662348|-2.768716734459234|0.0302966555847539|-0.5121501731299954|-4.472268581390381|1.854358792304993|-0.5481016635894775|-0.05475613474845886|-0.07119891047477722|0.0704658031463623|XArbitraryZVertical|-0.03254370810275582|0.2515839880083742|-0.9512294947249869|0.1755246992969036|0.02640533819794655|0.4900526702404022|-0.8712928295135498|0|0|0|-1|-1|3
2021-03-10 21:05:47.194 +0000|290829.702276|0.139556884765625|0.6848602294921875|-0.796600341796875|290829.682312|-2.779293976672017|0.06629633176007056|-0.5976177984145024|-4.036144733428955|2.267454624176025|-0.7195771336555481|-0.09683406352996826|0.08028483390808105|0.01655852794647217|XArbitraryZVertical|-0.02185157905934786|0.2951124266202823|-0.9412914792317537|0.1624855599484291|0.05476560443639755|0.5626747608184814|-0.8248623013496399|0|0|0|-1|-1|3
2021-03-10 21:05:47.214 +0000|290829.72224|0.2122039794921875|0.8687591552734375|-0.74652099609375|290829.702276|-2.788121974612395|0.1084254592287137|-0.6813974180293755|-4.349014282226562|2.415328025817871|-0.6967558860778809|0.02738656103610992|0.07625198364257812|-0.01075035333633423|XArbitraryZVertical|-0.008386006073520511|0.3374366845174671|-0.9296599236972163|0.1476435308370483|0.08404842019081116|0.6298789978027344|-0.7721323370933533|0|0|0|-1|-1|3
2021-03-10 21:05:47.234 +0000|290829.742204|0.291015625|1.153793334960938|-0.7061767578125|290829.72224|-2.788585445279106|0.155692568727051|-0.7729758722725537|-4.668972492218018|2.336425304412842|-0.5338485240936279|0.08846230804920197|0.09064137935638428|-0.06087374687194824|XArbitraryZVertical|0.004926797913444123|0.3826055549425291|-0.9142338674534581|0.1332862563207793|0.1110006123781204|0.6982685923576355|-0.707177460193634|0|0|0|-1|-1|3
2021-03-10 21:05:47.254 +0000|290829.762168|0.30853271484375|1.325225830078125|-0.631378173828125|290829.742204|-2.778361256448068|0.2089989217497193|-0.8618949020301695|-4.070841312408447|2.222793579101562|-0.416722446680069|0.1345528215169907|0.3305984139442444|-0.07823872566223145|XArbitraryZVertical|0.01817500612085172|0.4257378273042138|-0.896622634143565|0.12035312811803|0.1350699961185455|0.7590774893760681|-0.6368339657783508|0|0|0|-1|-1|3
2021-03-10 21:05:47.274 +0000|290829.782132|0.2678375244140625|1.12579345703125|-0.59283447265625|290829.762168|-2.765137136908042|0.2621143349053809|-0.9303131350610212|-2.854991912841797|2.128840446472168|-0.337947279214859|0.1586289703845978|0.4809840321540833|-0.07738417387008667|XArbitraryZVertical|0.03152005882559357|0.4587160754599412|-0.881404967596741|0.1082191967201029|0.1548476368188858|0.8018071055412292|-0.5771721005439758|0|0|0|-1|-1|3
2021-03-10 21:05:47.294 +0000|290829.802095|0.374542236328125|0.961090087890625|-0.52392578125|290829.782132|-2.748716797156912|0.319132853939228|-0.9798818853681337|-2.308012723922729|2.202460289001465|-0.1640671193599701|0.08326376974582672|0.3891729712486267|-0.09936642646789551|XArbitraryZVertical|0.04682369833367191|0.4830241051940729|-0.8689908088048581|0.09669722625540222|0.1747929155826569|0.8304315805435181|-0.5289905071258545|0|0|0|-1|-1|3
2021-03-10 21:05:47.316 +0000|290829.822059|0.3963623046875|1.048614501953125|-0.47735595703125|290829.802095|-2.716076770119011|0.3883687547769372|-1.026548864625962|-2.806020975112915|1.950044870376587|0.1963815242052078|0.1605580151081085|0.1091892719268799|-0.04852563142776489|XArbitraryZVertical|0.06257465102230877|0.506435558969925|-0.8555032362812153|0.08787377411974123|0.1960704475641251|0.8555171489715576|-0.4792148768901825|0|0|0|-1|-1|3
2021-03-10 21:05:47.334 +0000|290829.842023|0.39447021484375|1.127304077148438|-0.4091949462890625|290829.822059|-2.653675078713664|0.4785285220798545|-1.077660724504711|-3.043612241744995|1.650287866592407|0.4478727877140045|0.1752200722694397|0.1333531141281128|-0.07593870162963867|XArbitraryZVertical|0.07697160541986481|0.5328858680382778|-0.8385409374062975|0.0834099970420592|0.2179837077856064|0.8808528184890747|-0.4202160537242889|0|0|0|-1|-1|3
2021-03-10 21:05:47.354 +0000|290829.861987|0.417266845703125|1.122482299804688|-0.33905029296875|290829.842023|-2.56724879560338|0.586292517958457|-1.12255879926879|-2.751703977584839|1.43947970867157|0.6383405923843384|0.1557453274726868|0.2232993841171265|-0.06584659218788147|XArbitraryZVertical|0.09028399392499287|0.5579851647659184|-0.8208347810817397|0.08204634225501362|0.2397777736186981|0.9012123346328735|-0.3610027134418488|0|0|0|-1|-1|3
2021-03-10 21:05:47.373 +0000|290829.881951|0.4263153076171875|1.065155029296875|-0.3543853759765625|290829.861987|-2.471241329139308|0.6997947315735877|-1.153323399516765|-2.121937274932861|1.175511479377747|0.7233260273933411|0.1474032700061798|0.2150492072105408|-0.04660540819168091|XArbitraryZVertical|0.1028969629213747|0.5782145481730101|-0.8051515458481643|0.082530184111162|0.26113560795784|0.9141164422035217|-0.3101603090763092|0|0|0|-1|-1|3
2021-03-10 21:05:47.393 +0000|290829.901915|0.44366455078125|0.99609375|-0.2835845947265625|290829.881951|-2.381007770011023|0.8029021697287601|-1.169543109003024|-1.509588837623596|0.8821160793304443|0.786943793296814|0.1492534279823303|0.1649380326271057|-0.07107645273208618|XArbitraryZVertical|0.1139370282665317|0.5927632077297376|-0.7927737690989134|0.08461691601154525|0.2809681594371796|0.9205722212791443|-0.2713002562522888|0|0|0|-1|-1|3
2021-03-10 21:05:47.413 +0000|290829.921879|0.49530029296875|0.9396209716796875|-0.1428680419921875|290829.901915|-2.306176189103786|0.886951953465893|-1.172894786851398|-1.012182354927063|0.6313459277153015|0.9419591426849365|0.1321366131305695|0.09394711256027222|-0.07379940152168274|XArbitraryZVertical|0.1238780389701236|0.6018738929076335|-0.7839833458813599|0.08815958269848825|0.3003585338592529|0.9218761324882507|-0.2448040992021561|0|0|0|-1|-1|3
2021-03-10 21:05:47.433 +0000|290829.941842|0.5218048095703125|0.969207763671875|-0.071929931640625|290829.921879|-2.232680186127577|0.9642916402084243|-1.169256895461652|-1.087996959686279|0.339690238237381|1.049622178077698|0.1620566248893738|0.02151030302047729|0.0421881377696991|XArbitraryZVertical|0.1327774256525504|0.6090830875869939|-0.7761924136353825|0.09440958634246038|0.3211282193660736|0.9204604029655457|-0.2227758914232254|0|0|0|-1|-1|3
2021-03-10 21:05:47.453 +0000|290829.961806|0.5504302978515625|0.96142578125|-0.0639495849609375|290829.941842|-2.154189461135121|1.041863217434233|-1.163747551072851|-1.212583899497986|0.2068406790494919|1.072700619697571|0.1755039393901825|0.04413968324661255|0.1220026016235352|XArbitraryZVertical|0.1402365362202739|0.6168025544483277|-0.7677086471883953|0.1025271209192233|0.3417995870113373|0.9182932376861572|-0.1997766494750977|0|0|0|-1|-1|3
2021-03-10 21:05:47.473 +0000|290829.98177|0.573333740234375|0.937042236328125|-0.0386505126953125|290829.961806|-2.074966699786494|1.117231955196767|-1.156160379695189|-1.224457502365112|0.07837015390396118|1.072481036186218|0.1836216151714325|0.04890924692153931|0.1096567064523697|XArbitraryZVertical|0.1466833820947555|0.6246788476812835|-0.7588084284637507|0.1116694564396289|0.3621242642402649|0.9152630567550659|-0.1765206456184387|0|0|0|-1|-1|3
2021-03-10 21:05:47.493 +0000|290830.001734|0.6053924560546875|0.9146728515625|0.010284423828125|290829.98177|-1.998537946210379|1.187561591922324|-1.146691784960775|-1.23594605922699|-0.02223491296172142|1.053276300430298|0.1849963665008545|0.02551251649856567|0.1058362275362015|XArbitraryZVertical|0.1521362839748841|0.6323915986988496|-0.7498026919794453|0.1213723036828216|0.3816540539264679|0.9114075899124146|-0.1538708359003067|0|0|0|-1|-1|3
2021-03-10 21:05:47.513 +0000|290830.021698|0.6120758056640625|0.893035888671875|0.0081024169921875|290830.001734|-1.926614330337057|1.251442172883216|-1.13572794444331|-1.172972559928894|-0.1337678730487823|1.002628684043884|0.1971583366394043|0.0258522629737854|0.1298508644104004|XArbitraryZVertical|0.1565831824959574|0.6397814646898446|-0.7408732910473662|0.1314086697912129|0.4001622498035431|0.9068412184715271|-0.1323227733373642|0|0|0|-1|-1|3
2021-03-10 21:05:47.533 +0000|290830.041662|0.57098388671875|0.9376220703125|-0.0217742919921875|290830.021698|-1.861820788231187|1.305639426487131|-1.12363990583296|-1.190618991851807|-0.3019035756587982|0.9728451371192932|0.2020931243896484|-0.01712828874588013|0.1287731528282166|XArbitraryZVertical|0.1596741464132328|0.646410222499318|-0.7324887523677396|0.1418392292306082|0.4172917008399963|0.9016802906990051|-0.1133159846067429|0|0|0|-1|-1|3
2021-03-10 21:05:47.553 +0000|290830.061626|0.6151275634765625|0.803619384765625|0.002777099609375|290830.041662|-1.79775617495883|1.355794252693555|-1.110823092920765|-1.164140820503235|-0.4336127042770386|0.9333188533782959|0.1399355530738831|0.03485912084579468|0.07292145490646362|XArbitraryZVertical|0.1613917261617328|0.6531440900923305|-0.7238078755093931|0.1531593152349479|0.4337034225463867|0.8960644006729126|-0.09471101313829422|0|0|0|-1|-1|3
2021-03-10 21:05:47.573 +0000|290830.08159|0.607391357421875|0.8740692138671875|0.0532379150390625|290830.061626|-1.741555417684166|1.396337779025259|-1.096844286898042|-1.060667037963867|-0.5254079699516296|0.9228923320770264|0.1542206108570099|-0.04177969694137573|0.0724305659532547|XArbitraryZVertical|0.1622652667753935|0.6588320436373133|-0.715855166752531|0.164807726017427|0.4494780898094177|0.8897715210914612|-0.07922064512968063|0|0|0|-1|-1|3
2021-03-10 21:05:47.593 +0000|290830.101553|0.5853118896484375|0.94537353515625|0.0385284423828125|290830.08159|-1.687113390599346|1.432553616807415|-1.081989997853371|-1.187203884124756|-0.6640324592590332|0.9118692278862|0.153086930513382|-0.05862957239151001|0.1090352013707161|XArbitraryZVertical|0.1621983398623312|0.664332379417121|-0.7077710028190528|0.177240982973775|0.4650924205780029|0.882893979549408|-0.06470837444067001|0|0|0|-1|-1|3
2021-03-10 21:05:47.613 +0000|290830.121517|0.53863525390625|0.8286590576171875|-0.0283660888671875|290830.101553|-1.635936591578622|1.464060911407576|-1.067168638192094|-1.052636384963989|-0.6787599921226501|0.8613917827606201|0.1060016453266144|0.08311629295349121|0.09635055065155029|XArbitraryZVertical|0.1612919479159342|0.6695358127430415|-0.6997802059039164|0.189774610551137|0.4798596203327179|0.8758375644683838|-0.0514134056866169|0|0|0|-1|-1|3
2021-03-10 21:05:47.633 +0000|290830.141481|0.6007843017578125|0.8581085205078125|0.004547119140625|290830.121517|-1.593935767859174|1.485806283889474|-1.052306645862731|-0.8222055435180664|-0.7528701424598694|0.7914190888404846|0.06218895316123962|-0.007820308208465576|0.0233604907989502|XArbitraryZVertical|0.1598689952462281|0.6733557967247826|-0.6929465987454869|0.2021360705642403|0.4937803447246552|0.8685686588287354|-0.042067751288414|0|0|0|-1|-1|3
2021-03-10 21:05:47.653 +0000|290830.161445|0.589630126953125|0.9300994873046875|0.0946044921875|290830.141481|-1.560011119680607|1.501895022972494|-1.038290909842048|-0.7401091456413269|-0.6477973461151123|0.7202037572860718|0.06489181518554688|-0.05321872234344482|0.04603093862533569|XArbitraryZVertical|0.1588004866435828|0.6762439429791905|-0.6870550698133299|0.2131475421483213|0.5064888000488281|0.8615378141403198|-0.03495306894183159|0|0|0|-1|-1|3
2021-03-10 21:05:47.673 +0000|290830.181409|0.507232666015625|0.7985382080078125|0.0366058349609375|290830.161445|-1.534230569958098|1.509839367568885|-1.02599055127364|-0.5473741292953491|-0.6878437399864197|0.6394925713539124|0.09406930208206177|0.1139644384384155|0.09773361682891846|XArbitraryZVertical|0.1570355234852222|0.677904193307848|-0.6825443719242311|0.223425305308605|0.5172893404960632|0.8552279472351074|-0.03157149627804756|0|0|0|-1|-1|3
2021-03-10 21:05:47.694 +0000|290830.201373|0.3812255859375|0.9347991943359375|-0.0291748046875|290830.181409|-1.511446112083079|1.515948429092147|-1.014460224783029|-0.5754003524780273|-0.6859239935874939|0.5649569034576416|0.006010293960571289|-0.06783884763717651|0.08456778526306152|XArbitraryZVertical|0.1553651082045861|0.6792546968176522|-0.6783804927627424|0.2329694255215725|0.5272844433784485|0.849195659160614|-0.02894948050379753|0|0|0|-1|-1|3
2021-03-10 21:05:47.714 +0000|290830.221337|0.4129638671875|0.8475189208984375|-0.04925537109375|290830.201373|-1.4916872450513|1.519457991380421|-1.005519038211045|-0.4057267606258392|-0.5990583300590515|0.3927181959152222|-0.1411452889442444|0.07300972938537598|0.01494455710053444|XArbitraryZVertical|0.1529276424217351|0.6803451257225757|-0.6748687618197559|0.2414450415290405|0.5349441170692444|0.8444401025772095|-0.02748729288578033|0|0|0|-1|-1|3
2021-03-10 21:05:47.734 +0000|290830.2413|0.248626708984375|0.8217010498046875|0.046539306640625|290830.221337|-1.480866683563765|1.516866351027591|-0.9997073013617122|-0.2065417319536209|-0.6264466643333435|0.251948744058609|-0.120206892490387|0.03802061080932617|-0.03577321395277977|XArbitraryZVertical|0.150385082036342|0.6803054523986317|-0.6731355060136641|0.2479059287772024|0.5397626161575317|0.8413128256797791|-0.02913763746619225|0|0|0|-1|-1|3
2021-03-10 21:05:47.754 +0000|290830.261264|0.2809600830078125|0.842254638671875|0.0196075439453125|290830.2413|-1.476821222204161|1.509106044147717|-0.9956291064289818|-0.1072455495595932|-0.4266307950019836|0.1742987781763077|-0.2654134035110474|-0.02397692203521729|0.05590612068772316|XArbitraryZVertical|0.1478122139452163|0.6792519429334941|-0.6727771526078802|0.253257236687895|0.5429403185844421|0.8391013741493225|-0.03353669494390488|0|0|0|-1|-1|3
2021-03-10 21:05:47.773 +0000|290830.2812279167|0.2216796875|0.8651275634765625|0.071380615234375|290830.261264|-1.467681234905657|1.511871176766944|-0.9937133117596244|-0.3656940162181854|-0.1103847473859787|0.1151982620358467|-0.2898434996604919|0.00935441255569458|0.06255590915679932|XArbitraryZVertical|0.1462997465042091|0.6800966434397296|-0.6712058957490252|0.2560226135530947|0.5446347594261169|0.8380576372146606|-0.03212988004088402|0|0|0|-1|-1|3
2021-03-10 21:05:47.793 +0000|290830.3011919167|0.2423248291015625|0.82110595703125|0.1448974609375|290830.2812279167|-1.451086854540936|1.525774976848888|-0.9899197956510628|-0.5086004734039307|0.1574970930814743|0.312897652387619|-0.287733256816864|-0.001127898693084717|0.06766623258590698|XArbitraryZVertical|0.146615701599317|0.6827555358772618|-0.6676350291435258|0.25809328319726|0.548200786113739|0.8359819650650024|-0.02469742856919765|0|0|0|-1|-1|3
2021-03-10 21:05:47.813 +0000|290830.3211559167|0.09307861328125|0.7827301025390625|0.1442108154296875|290830.3011919167|-1.427565384314878|1.551580120143165|-0.9827419525700472|-0.7577430009841919|0.3320871293544769|0.4464981555938721|-0.3274983763694763|0.01232337951660156|0.1563503742218018|XArbitraryZVertical|0.1496235414314773|0.6872285605586465|-0.6618310225511522|0.2594404101153706|0.5546407103538513|0.8320215940475464|-0.010659403167665|0|0|0|-1|-1|3
2021-03-10 21:05:47.833 +0000|290830.3411199167|0.015960693359375|0.7855377197265625|0.0767669677734375|290830.3211559167|-1.395101677175291|1.585784468922925|-0.9724626554699473|-1.093072772026062|0.4532849192619324|0.5973072052001953|-0.4266522526741028|-0.05469942092895508|0.1401023864746094|XArbitraryZVertical|0.1532187637750623|0.6933577803357991|-0.6536793818176834|0.261691257312285|0.5632032155990601|0.8262753486633301|0.008442002348601818|0|0|0|-1|-1|3
2021-03-10 21:05:47.853 +0000|290830.3610839167|0.0254364013671875|0.622406005859375|0.005706787109375|290830.3411199167|-1.353860860580231|1.630597226947764|-0.9583645635198604|-1.247588634490967|0.6265882849693298|0.7198894619941711|-0.5483492016792297|-0.008575379848480225|0.06162118911743164|XArbitraryZVertical|0.1582053401621353|0.7015335852302624|-0.6427327102264879|0.2640386453725742|0.5738314390182495|0.8182525038719177|0.03435660153627396|0|0|0|-1|-1|3
2021-03-10 21:05:47.873 +0000|290830.3810469167|0.0559234619140625|0.5724945068359375|0.0376434326171875|290830.3610839167|-1.314260121770894|1.675372997218303|-0.9399531249072834|-1.261055946350098|0.632600724697113|0.9316193461418152|-0.5691628456115723|-0.1627398133277893|-0.0456852950155735|XArbitraryZVertical|0.1647647025132002|0.7096741686856468|-0.6308913082876531|0.2668170882154871|0.5866036415100098|0.8075304627418518|0.06156966462731361|0|0|0|-1|-1|3
2021-03-10 21:05:47.893 +0000|290830.4010109167|0.16375732421875|0.5944366455078125|0.0553436279296875|290830.3810469167|-1.27383861839011|1.720001868259225|-0.916880182244581|-1.448683738708496|0.5960932970046997|1.029610514640808|-0.5603269338607788|-0.204336941242218|-0.06057906150817871|XArbitraryZVertical|0.1720437148046912|0.7180623897366286|-0.6175783092592606|0.2708957155854299|0.6015409827232361|0.7937077283859253|0.0904252678155899|0|0|0|-1|-1|3
2021-03-10 21:05:47.913 +0000|290830.4209749167|0.270660400390625|0.6930999755859375|0.069549560546875|290830.4010109167|-1.230920753837514|1.765161384549555|-0.8922631898859006|-1.544525146484375|0.5328234434127808|0.9173775911331177|-0.4832497835159302|-0.2198242545127869|-0.07102537900209427|XArbitraryZVertical|0.1785058114234736|0.7271513810385917|-0.6029225572109677|0.2754467889138371|0.6158334016799927|0.7784942388534546|0.1212269142270088|0|0|0|-1|-1|3
2021-03-10 21:05:47.933 +0000|290830.4409389167|0.395111083984375|0.6016845703125|0.017120361328125|290830.4209749167|-1.192493084605558|1.80414297376877|-0.8705729057675196|-1.236550211906433|0.399418979883194|0.6685579419136047|-0.3821275234222412|-0.0733073353767395|-0.08900739252567291|XArbitraryZVertical|0.1831868197114921|0.7354897014873873|-0.589442109326854|0.2793840894453119|0.6269242763519287|0.7646982073783875|0.1490050256252289|0|0|0|-1|-1|3
2021-03-10 21:05:47.953 +0000|290830.4609029167|0.61663818359375|0.6250762939453125|-0.016632080078125|290830.4409389167|-1.166970876139218|1.830763424210024|-0.8552233118631164|-0.7457217574119568|0.359254390001297|0.4070165455341339|-0.2745085954666138|-0.1228967905044556|-0.1273312717676163|XArbitraryZVertical|0.1865162484859142|0.7413029741933375|-0.5799292158608792|0.2817155803711344|0.6340056657791138|0.7547174096107483|0.1686368137598038|0|0|0|-1|-1|3
2021-03-10 21:05:47.973 +0000|290830.4808669167|0.830108642578125|0.721038818359375|-0.043853759765625|290830.4609029167|-1.153595220636847|1.847652786312703|-0.8475351931886272|-0.3052680194377899|0.3127948939800262|0.08800250291824341|-0.08362102508544922|-0.1480735540390015|-0.1887439340353012|XArbitraryZVertical|0.1888887145940873|0.7448298648657462|-0.5746586930639126|0.2816328119641663|0.636630117893219|0.7496513724327087|0.1809009462594986|0|0|0|-1|-1|3
2021-03-10 21:05:47.993 +0000|290830.5008309167|0.8779144287109375|0.79608154296875|0.01788330078125|290830.4808669167|-1.150495379064042|1.85437688372695|-0.8481892320973847|0.09806245565414429|0.1242394223809242|-0.1858327835798264|0.1548513174057007|-0.0490800142288208|-0.2309082746505737|XArbitraryZVertical|0.1894549684922862|0.7460743795615662|-0.5737432288082526|0.2798188665827155|0.6349284052848816|0.7500841021537781|0.1850403249263763|0|0|0|-1|-1|3
2021-03-10 21:05:48.013 +0000|290830.5207949167|0.8750152587890625|0.7829132080078125|0.1763763427734375|290830.5207949167|-1.15882535095362|1.854335353845137|-0.8613075110189524|0.2265151590108871|0.3266421556472778|-0.2895009219646454|0.245399534702301|0.01924401521682739|-0.04694579541683197|XArbitraryZVertical|0.1883605485543112|0.7454146590221034|-0.5780099584203503|0.2734628054874373|0.625434935092926|0.7586950063705444|0.1822454184293747|0|0|0|-1|-1|3
2021-03-10 21:05:48.033 +0000|290830.5407579167|0.8658599853515625|0.893707275390625|0.22247314453125||||||||||||||||||||||||3
2021-03-10 21:05:48.052 +0000|290830.5607219167|0.7393951416015625|0.948638916015625|0.239044189453125|290830.5407579167|-1.160522958590334|1.859833621068611|-0.8674059072490887|0.03641641139984131|0.3294458985328674|-0.2680359482765198|0.264331042766571|0.105983555316925|0.04260005056858063|XArbitraryZVertical|0.1886363789156723|0.7460535676688215|-0.5791576138614772|0.2690668188873634|0.6199769377708435|0.762653648853302|0.184359222650528|0|0|0|-1|-1|3
2021-03-10 21:05:48.072 +0000|290830.5806859167|0.6864166259765625|0.96331787109375|0.243255615234375|290830.5607219167|-1.157194018627587|1.869304006294972|-0.8720253771357868|-0.06302642077207565|0.3857791721820831|-0.2313641309738159|0.1502313613891602|0.1727820634841919|0.04682359099388123|XArbitraryZVertical|0.1886626547634823|0.7476619730436195|-0.5789097524273076|0.2650875187033543|0.6148290038108826|0.7656334042549133|0.1891840398311615|0|0|0|-1|-1|3
2021-03-10 21:05:48.092 +0000|290830.6006499167|0.6358489990234375|0.99810791015625|0.2575225830078125|290830.5806859167|-1.155656762946687|1.878235367219069|-0.8758823531415419|0.1333936303853989|0.3756991922855377|-0.1886652112007141|0.09084540605545044|0.1915317177772522|0.05023060739040375|XArbitraryZVertical|0.1894462673066827|0.7489969623362912|-0.5787780672036248|0.2610165954731266|0.6102959513664246|0.7681087851524353|0.1937726736068726|0|0|0|-1|-1|3
2021-03-10 21:05:48.112 +0000|290830.6206139167|0.6698760986328125|0.933502197265625|0.213226318359375|290830.6006499167|-1.164079958343419|1.87858202077787|-0.8819337996706821|0.5897209048271179|0.3026537299156189|-0.2309242635965347|0.03993350267410278|0.2217743396759033|0.06325638294219971|XArbitraryZVertical|0.1907779782695189|0.7482580061648594|-0.5812672825041713|0.2565973203902742|0.605787992477417|0.7719695568084717|0.1925725638866425|0|0|0|-1|-1|3
2021-03-10 21:05:48.132 +0000|290830.6405779167|0.704376220703125|0.794189453125|0.2654266357421875|290830.6206139167|-1.187116595530538|1.864920754820427|-0.8915634091647282|1.145167112350464|0.1110298782587051|-0.2431846559047699|0.04918664693832397|0.1980956196784973|0.04842959344387054|XArbitraryZVertical|0.1923128526739703|0.7443611019725235|-0.5877395409204583|0.2520010425156204|0.6012192964553833|0.7780548334121704|0.1821153610944748|0|0|0|-1|-1|3
2021-03-10 21:05:48.152 +0000|290830.6605419167|0.7183685302734375|0.8578338623046875|0.2495880126953125|290830.6405779167|-1.225138994866704|1.835654235913562|-0.9028102278654899|1.338422417640686|-0.07334049791097641|-0.169316902756691|0.1068892478942871|0.02373671531677246|0.09386873245239258|XArbitraryZVertical|0.194104989072349|0.7371532522431097|-0.5978219762480204|0.2480671638023075|0.5978074669837952|0.7850706577301025|0.1621433347463608|0|0|0|-1|-1|3
2021-03-10 21:05:48.172 +0000|290830.6805059167|0.743927001953125|0.812408447265625|0.216400146484375|290830.6605419167|-1.264580605290873|1.801785902501762|-0.9119400582788016|1.267279624938965|-0.1946339458227158|-0.1226267293095589|0.1101933717727661|0.05330127477645874|0.1211918741464615|XArbitraryZVertical|0.195387609757898|0.7293174956444997|-0.6079038378554856|0.2457086548768382|0.5959529876708984|0.7906929850578308|0.1401606500148773|0|0|0|-1|-1|3
2021-03-10 21:05:48.192 +0000|290830.7004689167|0.7225189208984375|0.8254241943359375|0.1908721923828125|290830.6805059167|-1.304558587051788|1.764581241381652|-0.9196688739047799|1.264359712600708|-0.3540928661823273|-0.1276693493127823|0.1502253413200378|0.03449404239654541|0.1047804355621338|XArbitraryZVertical|0.1959417514807229|0.7210859288286889|-0.6179607014396187|0.24447203944527|0.5947393178939819|0.7954009771347046|0.1167161762714386|0|0|0|-1|-1|3
2021-03-10 21:05:48.212 +0000|290830.7204329167|0.708953857421875|0.8292694091796875|0.155242919921875|290830.7004689167|-1.343429989913626|1.72514765619021|-0.9267084524588091|1.214053988456726|-0.4914900064468384|-0.1664859652519226|0.1335064172744751|0.01443910598754883|0.1097869873046875|XArbitraryZVertical|0.1952574880723884|0.7127638861803315|-0.6278517914310435|0.2442220361837959|0.5933308005332947|0.7996478080749512|0.09231568872928619|0|0|0|-1|-1|3
2021-03-10 21:05:48.232 +0000|290830.7403969167|0.6833343505859375|0.8093109130859375|0.132598876953125|290830.7204329167|-1.383779487756746|1.681729064882824|-0.9335167249371787|1.284099340438843|-0.6182219982147217|-0.1821954399347305|0.1200720071792603|0.03443259000778198|0.09700142592191696|XArbitraryZVertical|0.1935258280792133|0.7039056850434308|-0.6381480733754352|0.2446048601532963|0.5913537740707397|0.8037173748016357|0.06587091833353043|0|0|0|-1|-1|3
2021-03-10 21:05:48.252 +0000|290830.7603609167|0.6200408935546875|0.8153228759765625|0.0945892333984375|290830.7403969167|-1.428661967951496|1.631865027006502|-0.939562621168351|1.395663976669312|-0.7633705735206604|-0.1908403187990189|0.1061644554138184|-0.005710005760192871|0.1043335199356079|XArbitraryZVertical|0.1911181481832431|0.6938892136550255|-0.6493652569732483|0.2455942399805837|0.5890413522720337|0.8073000907897949|0.03601677343249321|0|0|0|-1|-1|3
2021-03-10 21:05:48.272 +0000|290830.7803249167|0.5695648193359375|0.794677734375|0.0347442626953125|290830.7603609167|-1.476684151743686|1.576229507364855|-0.9442261554948201|1.451313138008118|-0.9068858623504639|-0.1838226169347763|0.05287522077560425|0.01406848430633545|0.1021609306335449|XArbitraryZVertical|0.1878332540123707|0.6828701102787378|-0.661186138989089|0.2474670593706247|0.5863612294197083|0.8100433945655823|0.00318583776243031|0|0|0|-1|-1|3
2021-03-10 21:05:48.292 +0000|290830.8002889167|0.5323486328125|0.81976318359375|-0.0201263427734375|290830.7803249167|-1.525817611758554|1.516983736378913|-0.9471137952519278|1.429966568946838|-1.039429068565369|-0.1783418357372284|-0.001365423202514648|-0.01629257202148438|0.08201110363006592|XArbitraryZVertical|0.183716482299098|0.6712241006896965|-0.6731405916526929|0.2501765565867142|0.5831831097602844|0.8117332458496094|-0.03141292184591293|0|0|0|-1|-1|3
2021-03-10 21:05:48.312 +0000|290830.8202529167|0.51806640625|0.8028717041015625|-0.0512542724609375|290830.8002889167|-1.577119134509696|1.453097575518613|-0.9482048332925564|1.614997625350952|-1.190085172653198|-0.199794128537178|-0.03641384840011597|-0.0007396936416625977|0.05996239185333252|XArbitraryZVertical|0.1786996846711081|0.6586562305015876|-0.6854997880078624|0.2536306551309786|0.5791079998016357|0.8123700022697449|-0.06847678869962692|0|0|0|-1|-1|3
2021-03-10 21:05:48.332 +0000|290830.8402169167|0.51239013671875|0.7879638671875|-0.0657806396484375|290830.8202529167|-1.640565272333214|1.376889834534554|-0.9465895720577185|2.08764910697937|-1.275152921676636|-0.2099431604146957|-0.05454921722412109|0.002934634685516357|0.06998753547668457|XArbitraryZVertical|0.1734985489526039|0.6431080564943149|-0.7001928925607366|0.2569831021581443|0.5735006928443909|0.8114269971847534|-0.1126205623149872|0|0|0|-1|-1|3
2021-03-10 21:05:48.352 +0000|290830.8601799167|0.49786376953125|0.7344512939453125|-0.0916900634765625|290830.8402169167|-1.718287955582713|1.287370840483747|-0.9398111412254202|2.478542804718018|-1.401257038116455|-0.2116974741220474|-0.04823064804077148|-0.02044409513473511|0.1022915244102478|XArbitraryZVertical|0.1686787981735076|0.6237468686833578|-0.7175622334499066|0.2599843429911987|0.5664039254188538|0.8074467182159424|-0.1649746149778366|0|0|0|-1|-1|3
2021-03-10 21:05:48.372 +0000|290830.8801439167|0.5179595947265625|0.6853485107421875|-0.14520263671875|290830.8601799167|-1.807568055071226|1.186433622859272|-0.9259041900096591|2.999258756637573|-1.495158910751343|-0.2144106179475784|-0.05932885408401489|-0.04924094676971436|0.1377821713685989|XArbitraryZVertical|0.1639065840648514|0.6003628648054867|-0.7373159314229147|0.2628009140466454|0.5572537183761597|0.7991645932197571|-0.2253981232643127|0|0|0|-1|-1|3
2021-03-10 21:05:48.392 +0000|290830.9001079167|0.51666259765625|0.6783294677734375|-0.2825469970703125|290830.8801439167|-1.902198634583316|1.080816684098723|-0.9027478136270715|3.152550935745239|-1.569227457046509|-0.12793929874897|-0.03762996196746826|-0.08218169212341309|0.1600203216075897|XArbitraryZVertical|0.1596346133433642|0.5733729411115487|-0.7584804919615903|0.265457348359517|0.5465716123580933|0.7850320339202881|-0.2915205359458923|0|0|0|-1|-1|3
2021-03-10 21:05:48.412 +0000|290830.9200719167|0.4810028076171875|0.5473480224609375|-0.3945465087890625|290830.9001079167|-1.98177447135705|0.9870656206115099|-0.874389722363892|2.39980673789978|-1.62656307220459|0.02689502947032452|-0.009840488433837891|-0.09002816677093506|0.1132879257202148|XArbitraryZVertical|0.1547005139914272|0.5470822433875413|-0.7773045690984786|0.2693813985605408|0.5352463722229004|0.7671521902084351|-0.353537529706955|0|0|0|-1|-1|3
2021-03-10 21:05:48.432 +0000|290830.9400359167|0.5244598388671875|0.50994873046875|-0.44970703125|290830.9200719167|-2.022673364901244|0.9246888588483653|-0.8531993109004713|0.930410623550415|-1.464510679244995|0.1782587170600891|-0.04169338941574097|-0.16056889295578|0.01574274897575378|XArbitraryZVertical|0.1476159056510455|0.5293881567506795|-0.7885280387172097|0.2760094234120428|0.525030791759491|0.7533880472183228|-0.3959154486656189|0|0|0|-1|-1|3
2021-03-10 21:05:48.452 +0000|290830.9599999167|0.5258941650390625|0.823455810546875|-0.6006011962890625|290830.9400359167|-2.020417695606869|0.8986978682140546|-0.8486405873951508|-0.6091141104698181|-1.30220890045166|0.2733929455280304|-0.002354085445404053|-0.2578898072242737|-0.01815754175186157|XArbitraryZVertical|0.1381036864132991|0.5245446817138777|-0.7902984651259826|0.2849713643278299|0.5172466635704041|0.7503825426101685|-0.4115605056285858|0|0|0|-1|-1|3
2021-03-10 21:05:48.472 +0000|290830.9799639167|0.5204620361328125|1.020065307617188|-0.7455596923828125|290830.9599999167|-1.993806045923117|0.8951546701310726|-0.8543397612105184|-0.9695205092430115|-1.004399061203003|0.3818975985050201|0.01722335815429688|-0.02147150039672852|-0.1572685241699219|XArbitraryZVertical|0.1280208242252565|0.5274997589526625|-0.7863866608447252|0.2948741259408028|0.5124397873878479|0.7541375160217285|-0.4107093513011932|0|0|0|-1|-1|3
2021-03-10 21:05:48.492 +0000|290830.9999279167|0.5487518310546875|0.92962646484375|-0.8282318115234375|290830.9799639167|-1.967623076285896|0.8995901290810797|-0.8571384091040233|-0.4104906618595123|-0.5301019549369812|0.4653565287590027|0.005891919136047363|0.2505430579185486|-0.2970901727676392|XArbitraryZVertical|0.1219940350194141|0.5306207104588458|-0.7820598040861089|0.3032189412639873|0.5126017332077026|0.7559724450111389|-0.4071182310581207|0|0|0|-1|-1|3
2021-03-10 21:05:48.512 +0000|290831.0198909167|0.521270751953125|0.775604248046875|-0.761016845703125|290830.9999279167|-1.956519929992426|0.9009432846821475|-0.8506164498909693|0.1506249159574509|-0.1953443288803101|0.517906665802002|0.02361267805099487|0.2134007811546326|-0.4126668870449066|XArbitraryZVertical|0.1215543831434778|0.5296094751497572|-0.7805703235308126|0.3089471883994623|0.5170062184333801|0.7516871094703674|-0.4094766676425934|0|0|0|-1|-1|3
2021-03-10 21:05:48.532 +0000|290831.0398549167|0.474029541015625|0.7101287841796875|-0.6006317138671875|290831.0198909167|-1.948466953444458|0.9059488223979023|-0.8407648073952487|-0.08758576214313507|0.08846108615398407|0.5840828418731689|0.01021260023117065|0.06662940979003906|-0.3768213093280792|XArbitraryZVertical|0.1243719847802885|0.5280297276783849|-0.7794177948066032|0.313407192835164|0.5248520970344543|0.7451533675193787|-0.4114324450492859|0|0|0|-1|-1|3
2021-03-10 21:05:48.552 +0000|290831.0598189167|0.4802093505859375|0.67596435546875|-0.48553466796875|290831.0398549167|-1.928563871720915|0.9251444633702604|-0.8362787103762886|-0.6474826335906982|0.3542256951332092|0.5662127733230591|-0.05410081148147583|-0.01525604724884033|-0.2319640815258026|XArbitraryZVertical|0.1279358942274432|0.5310249647789198|-0.7752316913666942|0.3172706783480038|0.5353172421455383|0.7421541213989258|-0.403289794921875|0|0|0|-1|-1|3
2021-03-10 21:05:48.572 +0000|290831.0797829167|0.47198486328125|0.7313232421875|-0.4068145751953125|290831.0598189167|-1.898665202861971|0.9570005112834699|-0.8377894246399371|-1.059870958328247|0.5854865908622742|0.4919419884681702|-0.07260829210281372|-0.07127559185028076|-0.1262078881263733|XArbitraryZVertical|0.1317670445917386|0.5384636155051218|-0.7683569905207507|0.3198779391161134|0.5469735264778137|0.7431658506393433|-0.3853887617588043|0|0|0|-1|-1|3
2021-03-10 21:05:48.592 +0000|290831.0997469167|0.4622039794921875|0.6432037353515625|-0.34515380859375|290831.0797829167|-1.861344564590949|0.9979581083848778|-0.8437037980260659|-1.314721345901489|0.7489771246910095|0.415667712688446|-0.08006060123443604|-0.01983052492141724|-0.06556183099746704|XArbitraryZVertical|0.135401083372174|0.5491141153749142|-0.7595244683138209|0.3213455040782301|0.5585916042327881|0.74711012840271|-0.3602804839611053|0|0|0|-1|-1|3
2021-03-10 21:05:48.612 +0000|290831.1197109167|0.45166015625|0.5517730712890625|-0.2064971923828125|290831.0997469167|-1.816375867112904|1.04832474707791|-0.8527972153930142|-1.699694156646729|0.8852403163909912|0.3331928253173828|-0.1102868914604187|-0.07657939195632935|-0.0255693793296814|XArbitraryZVertical|0.1389757230497248|0.5626163429255515|-0.7487703747776093|0.3217012271979627|0.570110559463501|0.7531235814094543|-0.3282971978187561|0|0|0|-1|-1|3
2021-03-10 21:05:48.632 +0000|290831.1396749167|0.482421875|0.573577880859375|-0.1844635009765625|290831.1197109167|-1.759788823289131|1.112040330803513|-0.8660231960879708|-2.249165296554565|1.243321895599365|0.2698526382446289|-0.1161226630210876|-0.1967102289199829|0.04067853093147278|XArbitraryZVertical|0.1421176469933994|0.5799615440277003|-0.7352953416857019|0.3206058295751863|0.5808749794960022|0.76175856590271|-0.2868943512439728|0|0|0|-1|-1|3
2021-03-10 21:05:48.651 +0000|290831.1596389167|0.53076171875|0.6707763671875|-0.215484619140625|290831.1396749167|-1.687920816426779|1.193833787797908|-0.8818987076252316|-2.50602650642395|1.349363565444946|0.156124472618103|-0.1419870257377625|-0.2191364765167236|0.05978545546531677|XArbitraryZVertical|0.1452974924118793|0.6015738740916734|-0.7183528609796608|0.3177528150669541|0.591053307056427|0.7719472646713257|-0.2339950203895569|0|0|0|-1|-1|3
2021-03-10 21:05:48.671 +0000|290831.1796019167|0.5076751708984375|0.76446533203125|-0.260955810546875|290831.1596389167|-1.613886614389788|1.278529113485884|-0.8961019427785566|-2.258236885070801|1.369890809059143|0.02759197726845741|-0.05620723962783813|-0.1293018460273743|-0.05029116570949554|XArbitraryZVertical|0.14784229233434|0.6230193087386726|-0.7011396828199397|0.3136762366737252|0.5981689095497131|0.7808979153633118|-0.1799791902303696|0|0|0|-1|-1|3
2021-03-10 21:05:48.691 +0000|290831.1995659167|0.5420379638671875|0.6464080810546875|-0.1730804443359375|290831.1796019167|-1.553296094467182|1.353165615229929|-0.9061629954429516|-1.708447098731995|1.374215126037598|-0.01379425451159477|-0.09675949811935425|-0.03158867359161377|-0.1024092584848404|XArbitraryZVertical|0.1511258437039174|0.6407615631483365|-0.6868511034656517|0.3079307372917216|0.6022222638130188|0.7871429920196533|-0.1331712007522583|0|0|0|-1|-1|3
2021-03-10 21:05:48.711 +0000|290831.2195299167|0.5859222412109375|0.7722930908203125|0.00360107421875|290831.1995659167|-1.500334338343075|1.422643437352121|-0.9125948686572051|-1.726777911186218|1.355031847953796|-0.0232375580817461|-0.08202975988388062|-0.1246355175971985|-0.140846848487854|XArbitraryZVertical|0.1553604576980341|0.6562899564565914|-0.6740403017788371|0.3013575413046092|0.6049942970275879|0.791093647480011|-0.09029324352741241|0|0|0|-1|-1|3
2021-03-10 21:05:48.732 +0000|290831.2394939167|0.6295013427734375|0.769775390625|-0.128753662109375|290831.2195299167|-1.439746834086948|1.49710343559206|-0.9172505203872481|-1.95206618309021|1.306614875793457|-0.04786887019872665|-0.02371346950531006|-0.07005608081817627|0.0389363206923008|XArbitraryZVertical|0.1584426005718673|0.6726911490634938|-0.6596745325352479|0.2953167693640677|0.6063550710678101|0.7939329147338867|-0.04476512223482132|0|0|0|-1|-1|3
2021-03-10 21:05:48.751 +0000|290831.2594579167|0.5831451416015625|0.78363037109375|-0.11798095703125|290831.2394939167|-1.375433882516247|1.574075430282493|-0.9196528381484406|-1.978285908699036|1.300350189208984|-0.075397789478302|0.01974594593048096|0.00864022970199585|-0.09750747680664062|XArbitraryZVertical|0.1608084616930143|0.689299908365991|-0.6444472567103058|0.2892995012976061|0.6060934066772461|0.7953912615776062|0.001987450057640672|0|0|0|-1|-1|3
2021-03-10 21:05:48.771 +0000|290831.279421875|0.6305694580078125|0.9616851806640625|-0.0472259521484375|290831.2594579167|-1.31078646363463|1.652838138138082|-0.9192758486863404|-1.877128005027771|1.397424936294556|-0.009557697921991348|-0.01625239849090576|-0.06321382522583008|-0.1890678405761719|XArbitraryZVertical|0.1634598368329189|0.7057817732982491|-0.6287540444932955|0.2825268419563555|0.6043566465377808|0.7951626777648926|0.04969406127929688|0|0|0|-1|-1|3
2021-03-10 21:05:48.791 +0000|290831.299385875|0.6281585693359375|0.865386962890625|0.0341339111328125|290831.279421875|-1.255749889993786|1.724173209568981|-0.9138789759226772|-1.518885850906372|1.371930480003357|0.1389456689357758|0.02109348773956299|0.1714698076248169|-0.1680651903152466|XArbitraryZVertical|0.1678297084746518|0.7200567922824098|-0.6141828326814966|0.275918198561747|0.603509783744812|0.7918785214424133|0.09329719096422195|0|0|0|-1|-1|3
2021-03-10 21:05:48.811 +0000|290831.319349875|0.60247802734375|0.8464508056640625|0.0585784912109375|290831.299385875|-1.213854702211489|1.784207930023976|-0.9061316925100968|-1.186339735984802|1.310423135757446|0.155128002166748|0.01992392539978027|0.08773893117904663|-0.112644225358963|XArbitraryZVertical|0.1734476581361002|0.7315962469002294|-0.6017961770548774|0.2693030529175998|0.6028024554252625|0.7871236801147461|0.1306343227624893|0|0|0|-1|-1|3
2021-03-10 21:05:48.831 +0000|290831.339312875|0.59716796875|0.82293701171875|0.165191650390625|290831.319349875|-1.182130016853101|1.834981049500135|-0.89845459917798|-0.9014460444450378|1.304818868637085|0.1322324573993683|0.01246654987335205|0.07780301570892334|-0.1177256256341934|XArbitraryZVertical|0.17941891328983|0.7410296414781811|-0.5914378017477208|0.2624599173691483|0.6012114286422729|0.7823653221130371|0.1626321524381638|0|0|0|-1|-1|3
2021-03-10 21:05:48.851 +0000|290831.359276875|0.588104248046875|0.8295440673828125|0.2685546875|290831.339312875|-1.159014179846373|1.879159479741974|-0.891820561827085|-0.682502269744873|1.298535585403442|0.09256946295499802|-0.00373995304107666|0.02801245450973511|-0.06181237101554871|XArbitraryZVertical|0.1859072069616273|0.7488236187187325|-0.5828918129238805|0.2548313545143398|0.5983750224113464|0.7782163619995117|0.1905966103076935|0|0|0|-1|-1|3
2021-03-10 21:05:48.871 +0000|290831.379240875|0.5562896728515625|0.7780609130859375|0.2950286865234375|290831.359276875|-1.143104888420642|1.916868027484375|-0.8867757714412841|-0.4179591238498688|1.244609832763672|0.05658332630991936|-0.0002877712249755859|0.07589870691299438|0.03357627987861633|XArbitraryZVertical|0.1924447035066731|0.7550757115014455|-0.5761206996382926|0.2468011561685554|0.5944498777389526|0.7750383615493774|0.2143485844135284|0|0|0|-1|-1|3
2021-03-10 21:05:48.891 +0000|290831.399204875|0.5478515625|0.70880126953125|0.2699127197265625|290831.379240875|-1.133405185565465|1.948779875336244|-0.8834415803245286|-0.332735151052475|1.192580342292786|0.03940371796488762|-0.02746570110321045|0.007743000984191895|0.07237528264522552|XArbitraryZVertical|0.1989604221441101|0.7599302568962898|-0.5709954772869592|0.2385056322816524|0.5897063016891479|0.7729271054267883|0.2341584861278534|0|0|0|-1|-1|3
2021-03-10 21:05:48.911 +0000|290831.419168875|0.558074951171875|0.7651824951171875|0.3226776123046875|290831.399204875|-1.120384101937815|1.982029354648648|-0.8787545055171709|-0.644538938999176|1.116104602813721|0.04175138473510742|-0.03705900907516479|-0.03523397445678711|0.01581096649169922|XArbitraryZVertical|0.2048760605217688|0.765222167157426|-0.5649152996297047|0.2309364656430031|0.5849106311798096|0.7699447274208069|0.2550783157348633|0|0|0|-1|-1|3
2021-03-10 21:05:48.931 +0000|290831.439132875|0.5898284912109375|0.85894775390625|0.3809051513671875|290831.419168875|-1.099242152084244|2.019539676561745|-0.8713152263867379|-0.7991399765014648|1.032190322875977|0.06281547993421555|-0.02146905660629272|-0.03107589483261108|0.03378394246101379|XArbitraryZVertical|0.2095147497568877|0.7718543743023132|-0.5566586628665436|0.2246679037344543|0.5800781846046448|0.7651763558387756|0.2793112099170685|0|0|0|-1|-1|3
2021-03-10 21:05:48.951 +0000|290831.459096875|0.5698089599609375|0.929443359375|0.4093475341796875|290831.439132875|-1.082508118443279|2.051488617083714|-0.8645812751181537|-0.3808910250663757|0.8639612793922424|0.06478887796401978|0.01177322864532471|0.07894390821456909|0.06046056747436523|XArbitraryZVertical|0.2138662972169048|0.7773662220443492|-0.5495844956608151|0.2189060460404022|0.5754155516624451|0.7608236074447632|0.3000740706920624|0|0|0|-1|-1|3
2021-03-10 21:05:48.971 +0000|290831.479060875|0.542144775390625|0.7352142333984375|0.429595947265625|290831.459096875|-1.083438104516077|2.066443794630687|-0.863306089669856|0.3453580737113953|0.7311395406723022|0.08100061118602753|0.002883434295654297|0.1803732514381409|0.09937095642089844|XArbitraryZVertical|0.2187042680101778|0.7789235456885431|-0.5477132929156509|0.2132060043425582|0.571716845035553|0.7599954605102539|0.3091068863868713|0|0|0|-1|-1|3
2021-03-10 21:05:48.991 +0000|290831.499023875|0.5756378173828125|0.6219482421875|0.404754638671875|290831.479060875|-1.096879907221093|2.069676078298557|-0.8663897718345497|0.4416246712207794|0.6035664081573486|0.08012168109416962|-0.02216053009033203|0.003903806209564209|0.1096947491168976|XArbitraryZVertical|0.2239218354646748|0.7776723492294704|-0.5496262874471712|0.2073543699563876|0.5686541795730591|0.7619959712028503|0.3098305463790894|0|0|0|-1|-1|3
2021-03-10 21:05:49.011 +0000|290831.518987875|0.5919952392578125|0.79339599609375|0.3783721923828125|290831.499023875|-1.105971694876569|2.073457645967544|-0.8680022206997163|0.183771938085556|0.4618185460567474|0.0458553172647953|-0.002603769302368164|-0.113564133644104|0.09982284903526306|XArbitraryZVertical|0.2280253309447305|0.7769797765523554|-0.5505774855948274|0.2029071761272443|0.5664007663726807|0.7630391716957092|0.3113862574100494|0|0|0|-1|-1|3
2021-03-10 21:05:49.031 +0000|290831.538951875|0.6226654052734375|0.76507568359375|0.3278350830078125|290831.518987875|-1.106720219771407|2.080730666488309|-0.8674219940065556|-0.1064909696578979|0.3272229731082916|0.04273302480578423|0.02718251943588257|-0.02361971139907837|0.08426502346992493|XArbitraryZVertical|0.2304855681622482|0.7776459453693981|-0.5496587173513252|0.2000466108352708|0.5645076632499695|0.7626640200614929|0.3157136142253876|0|0|0|-1|-1|3
2021-03-10 21:05:49.051 +0000|290831.558915875|0.6065521240234375|0.81390380859375|0.298858642578125|290831.538951875|-1.106002487201076|2.086826050550666|-0.8669124248515804|0.09191711992025375|0.2139811813831329|-0.03155860677361488|0.05157625675201416|0.01798474788665771|0.01130256056785583|XArbitraryZVertical|0.2320280691691758|0.7783527838261582|-0.548741029558703|0.1980231738616085|0.5629104375839233|0.7623343467712402|0.3193401694297791|0|0|0|-1|-1|3
2021-03-10 21:05:49.071 +0000|290831.578879875|0.591888427734375|0.788482666015625|0.333221435546875|290831.558915875|-1.112953102115892|2.084997755660239|-0.8710538642361529|0.4694400429725647|0.1724302768707275|-0.0984501987695694|0.05296868085861206|0.03359121084213257|-0.01743853092193604|XArbitraryZVertical|0.233027673063232|0.7772230294989768|-0.5507856517615283|0.1955958973495744|0.5607398748397827|0.7650080919265747|0.3167550563812256|0|0|0|-1|-1|3
2021-03-10 21:05:49.091 +0000|290831.598843875|0.5995635986328125|0.744171142578125|0.32598876953125|290831.578879875|-1.125686461451694|2.080390949330226|-0.8784071352404298|0.7395723462104797|0.2493829280138016|-0.1622246503829956|0.03542983531951904|0.01938539743423462|0.01332178711891174|XArbitraryZVertical|0.2345569520154941|0.775042568475799|-0.5545754449466471|0.1916723162532392|0.5572674870491028|0.7697229981422424|0.3114158809185028|0|0|0|-1|-1|3
2021-03-10 21:05:49.111 +0000|290831.618807875|0.584808349609375|0.66070556640625|0.2955780029296875|290831.598843875|-1.142950951946262|2.074770503211854|-0.8888677397632828|0.8884301781654358|0.3563041090965271|-0.2224792838096619|0.04577445983886719|-0.01038265228271484|0.02477368712425232|XArbitraryZVertical|0.2366108678854643|0.7721412737711726|-0.5596943353575831|0.1858908753354414|0.5519275665283203|0.7763586044311523|0.30437371134758|0|0|0|-1|-1|3
2021-03-10 21:05:49.131 +0000|290831.638771875|0.5440521240234375|0.560546875|0.2961883544921875|290831.618807875|-1.160373734705822|2.068800270913229|-0.9003059678985146|0.6766883134841919|0.378330260515213|-0.2967419028282166|0.04896658658981323|-0.105782687664032|-0.002042531967163086|XArbitraryZVertical|0.2382820789430078|0.7691732877541997|-0.5650303019333991|0.1798191554391284|0.545897364616394|0.783517062664032|0.2968117892742157|0|0|0|-1|-1|3
2021-03-10 21:05:49.151 +0000|290831.658734875|0.5857391357421875|0.6846923828125|0.2934417724609375|290831.638771875|-1.165052056665669|2.073124695004534|-0.9069785999108443|-0.1738093048334122|0.5018166899681091|-0.2626343667507172|0.02222639322280884|-0.1821618676185608|0.01995879411697388|XArbitraryZVertical|0.2393368078647675|0.7687917609150827|-0.5666781644302756|0.1747939256345931|0.5400141477584839|0.7876457571983337|0.2966457605361938|0|0|0|-1|-1|3
2021-03-10 21:05:49.171 +0000|290831.678698875|0.549102783203125|0.8004302978515625|0.2954254150390625|290831.658734875|-1.146091321413875|2.099050078051085|-0.9057172146403487|-0.8225486874580383|0.6075075268745422|-0.2537640631198883|0.03139138221740723|-0.1762722730636597|-0.01293420791625977|XArbitraryZVertical|0.2397089404173923|0.7733448320917217|-0.5616017783489859|0.1705311867563342|0.5330007672309875|0.7868679761886597|0.3110451996326447|0|0|0|-1|-1|3
2021-03-10 21:05:49.191 +0000|290831.698662875|0.51275634765625|0.869842529296875|0.3162994384765625|290831.678698875|-1.120372465058068|2.13165816054166|-0.9010321931589371|-0.8235822319984436|0.715666651725769|-0.2342509031295776|0.04230058193206787|0.01438701152801514|-0.05102419853210449|XArbitraryZVertical|0.2401727772473155|0.779374211681653|-0.5542427440523879|0.1664570202031182|0.5256926417350769|0.7839680910110474|0.330214262008667|0|0|0|-1|-1|3
2021-03-10 21:05:49.210 +0000|290831.718626875|0.538726806640625|0.9945831298828125|0.412139892578125|290831.698662875|-1.09890868495743|2.163218059743216|-0.8959506463350428|-0.6111361980438232|0.9217246770858765|-0.1985202431678772|0.002839624881744385|0.05655306577682495|-0.03704425692558289|XArbitraryZVertical|0.2419088559326691|0.7847986355167054|-0.547246029441004|0.1615329426254705|0.5183089971542358|0.780803382396698|0.348857581615448|0|0|0|-1|-1|3
2021-03-10 21:05:49.230 +0000|290831.738590875|0.5520477294921875|1.010543823242188|0.5433502197265625|290831.718626875|-1.082995543559591|2.193715733848856|-0.891331700028177|-0.5731824636459351|0.9066879153251648|-0.06266219168901443|0.007681727409362793|0.2119894623756409|0.0347362756729126|XArbitraryZVertical|0.2452264083041626|0.7894075170342846|-0.5409333296346721|0.1552125391570454|0.5103541612625122|0.7779092192649841|0.3666004240512848|0|0|0|-1|-1|3
2021-03-10 21:05:49.250 +0000|290831.758554875|0.423065185546875|1.147384643554688|0.748138427734375|290831.738590875|-1.06642217305906|2.222248013234716|-0.8831196299246421|-0.7713272571563721|0.6556572914123535|0.1022722497582436|0.06611073017120361|0.2150244116783142|0.117127537727356|XArbitraryZVertical|0.2485700623425115|0.7941339134302112|-0.5337039576256755|0.150746279047357|0.5047511458396912|0.7727227807044983|0.3848714828491211|0|0|0|-1|-1|3
2021-03-10 21:05:49.271 +0000|290831.778518875|0.39373779296875|1.094573974609375|0.7487640380859375|290831.758554875|-1.049932124735871|2.245213150013329|-0.8686015812399999|-0.9144019484519958|0.358862578868866|0.4155705273151398|-0.05450820922851562|0.3702099919319153|0.2943843305110931|XArbitraryZVertical|0.2519673350951105|0.7988581638804931|-0.5251706128675799|0.1501131299074742|0.5044898986816406|0.7634264230728149|0.4033237993717194|0|0|0|-1|-1|3
2021-03-10 21:05:49.290 +0000|290831.798482875|0.539794921875|1.159286499023438|0.6189117431640625|290831.778518875|-1.044690863276312|2.252019755606984|-0.849375910129931|-0.4309917092323303|-0.09998264908790588|0.9166609048843384|-0.1262001991271973|0.3445602655410767|0.3514030873775482|XArbitraryZVertical|0.2567191617260172|0.8012821857018433|-0.5179439218686824|0.1541959411516013|0.5130411982536316|0.7508683800697327|0.4159157276153564|0|0|0|-1|-1|3
2021-03-10 21:05:49.310 +0000|290831.818445875|0.6770172119140625|1.142120361328125|0.518310546875|290831.798482875|-1.070888923960133|2.223997970688854|-0.8319393121375813|0.7273170351982117|-0.76304692029953|1.481352925300598|-0.04297327995300293|0.3920172452926636|0.2460612952709198|XArbitraryZVertical|0.2645414649288919|0.796652003382943|-0.5182780950731046|0.1635580798912577|0.5348098278045654|0.7392387986183167|0.4092732071876526|0|0|0|-1|-1|3
2021-03-10 21:05:49.330 +0000|290831.838409875|0.7274169921875|0.859405517578125|0.400115966796875|290831.818445875|-1.126023579140235|2.161982751728654|-0.8181809512214014|1.424226641654968|-1.340509176254272|1.763346552848816|0.08599585294723511|0.4628607034683228|0.1690593361854553|XArbitraryZVertical|0.273866576131091|0.7845280650267612|-0.5272071901643187|0.177666891321451|0.5675382018089294|0.7299036383628845|0.3809743821620941|0|0|0|-1|-1|3
2021-03-10 21:05:49.350 +0000|290831.858373875|0.7037353515625|0.7122344970703125|0.366302490234375|290831.838409875|-1.186888746901482|2.08832891432201|-0.8024588019533542|1.229069352149963|-1.589691042900085|1.733729004859924|0.1195470690727234|0.1901126503944397|0.07369789481163025|XArbitraryZVertical|0.2823168474969436|0.7695477857488857|-0.5386588795394605|0.1947820551487853|0.6039331555366516|0.7190669775009155|0.3438131809234619|0|0|0|-1|-1|3
2021-03-10 21:05:49.370 +0000|290831.878337875|0.653167724609375|0.474212646484375|0.2624969482421875|290831.858373875|-1.236329461722476|2.020835511703045|-0.7828634054742112|1.027444005012512|-1.600885987281799|1.626002907752991|0.07879000902175903|0.06482934951782227|0.06846031546592712|XArbitraryZVertical|0.2885208149077479|0.7556064460258151|-0.5480898669454575|0.213101273055482|0.638312041759491|0.705312192440033|0.3083707094192505|0|0|0|-1|-1|3
2021-03-10 21:05:49.390 +0000|290831.898301875|0.578216552734375|0.5333251953125|0.1231689453125|290831.878337875|-1.282965624210844|1.956463051629441|-0.7639508181545426|1.30538010597229|-1.60227632522583|1.432690620422363|-0.00390702486038208|-0.1954113841056824|0.01700985431671143|XArbitraryZVertical|0.2937976445294875|0.7412848792753407|-0.5578435539186642|0.2301962410147149|0.6690682172775269|0.6917797327041626|0.2716406583786011|0|0|0|-1|-1|3
2021-03-10 21:05:49.410 +0000|290831.918265875|0.4891204833984375|0.273590087890625|0.008209228515625|290831.898301875|-1.335072536845907|1.888453318533978|-0.7502209158346985|1.747054696083069|-1.591108441352844|1.165757417678833|-0.09111857414245605|-0.1467204093933105|-0.07123279571533203|XArbitraryZVertical|0.2978744065725978|0.7249246754737417|-0.5708297559256017|0.2447621595995731|0.6949394345283508|0.681800365447998|0.2284898906946182|0|0|0|-1|-1|3
2021-03-10 21:05:49.430 +0000|290831.938229875|0.4975433349609375|0.0483551025390625|-0.0013580322265625|290831.918265875|-1.392882843919074|1.819669615788347|-0.7425337231800476|2.04698371887207|-1.324859976768494|0.7225826382637024|-0.2130514979362488|-0.325403094291687|-0.1584010273218155|XArbitraryZVertical|0.3010447224676004|0.7071833166152603|-0.5866666200232128|0.2551196891620405|0.7140585780143738|0.6761568188667297|0.1814723312854767|0|0|0|-1|-1|3
2021-03-10 21:05:49.450 +0000|290831.958193875|0.5421600341796875|-0.0584259033203125|-0.1346435546875|290831.938229875|-1.444975390316669|1.76192753603607|-0.7408461023501236|1.604727029800415|-0.9268841147422791|0.24868343770504|-0.2353095412254333|-0.5910502672195435|-0.1324266344308853|XArbitraryZVertical|0.3026369933833733|0.6917368889676756|-0.6017572150245633|0.2603826381715836|0.7244605422019958|0.6749125123023987|0.1401781439781189|0|0|0|-1|-1|3
2021-03-10 21:05:49.470 +0000|290831.978156875|0.5691680908203125|0.005279541015625|-0.1634521484375|290831.958193875|-1.476480851018922|1.72645724882048|-0.7452720087278764|0.6773751974105835|-0.4811015129089355|-0.2857562601566315|-0.192784309387207|-0.7170969843864441|-0.2173888981342316|XArbitraryZVertical|0.3013011229948519|0.6827772656706855|-0.6120560508465642|0.261572503289032|0.7260178923606873|0.6781717538833618|0.1139343231916428|0|0|0|-1|-1|3
2021-03-10 21:05:49.490 +0000|290831.998120875|0.601593017578125|0.197662353515625|0.0103607177734375|290831.978156875|-1.479135775559596|1.718684001218517|-0.7578216347032765|-0.2583965063095093|-0.1375862807035446|-0.9173393845558167|-0.1644059419631958|-0.7170497179031372|-0.2811582088470459|XArbitraryZVertical|0.2958336536794313|0.6826381882020014|-0.6158253849502351|0.2593197122213641|0.7184067964553833|0.6873408555984497|0.1070248931646347|0|0|0|-1|-1|3
2021-03-10 21:05:49.510 +0000|290832.018084875|0.5894012451171875|0.4266357421875|0.215301513671875|290831.998120875|-1.455159973352735|1.735167517705771|-0.7791851183246508|-1.043501853942871|0.1014232710003853|-1.439615607261658|-0.1054151654243469|-0.5484335422515869|-0.1579868942499161|XArbitraryZVertical|0.2858553284756201|0.6902881324199197|-0.6141998913488159|0.2540619363094877|0.7018964886665344|0.7026998996734619|0.1164219528436661|0|0|0|-1|-1|3
2021-03-10 21:05:49.530 +0000|290832.038048875|0.5537109375|0.6623687744140625|0.2745361328125|290832.018084875|-1.412030352000015|1.770777089586492|-0.8061169176003795|-1.424588680267334|0.3928611874580383|-1.705930113792419|-0.08382761478424072|-0.3670052886009216|0.02716125547885895|XArbitraryZVertical|0.2731017670846626|0.7029785738372257|-0.6088421037809555|0.2460649883283353|0.6785085201263428|0.7216043472290039|0.1375268995761871|0|0|0|-1|-1|3
2021-03-10 21:05:49.550 +0000|290832.058012875|0.5634307861328125|0.7270050048828125|0.2633209228515625|290832.038048875|-1.35958645587187|1.82039393153153|-0.8330905502773229|-1.41002345085144|0.7540885806083679|-1.685624599456787|-0.09112644195556641|-0.1113209128379822|0.1073130369186401|XArbitraryZVertical|0.2608656971784792|0.7176481934264726|-0.6012046014428102|0.2355488139216218|0.6517496705055237|0.740013599395752|0.1661396771669388|0|0|0|-1|-1|3
2021-03-10 21:05:49.570 +0000|290832.077976875|0.5699005126953125|0.8640899658203125|0.3067626953125|290832.058012875|-1.306330655194493|1.877577931223738|-0.8567797029670964|-1.449573755264282|0.9569543600082397|-1.559997081756592|-0.0631873607635498|-0.04859954118728638|0.06796491146087646|XArbitraryZVertical|0.2511195061857289|0.7319989593471912|-0.5927469846159094|0.2230865274804265|0.6242988705635071|0.7557376027107239|0.1977669596672058|0|0|0|-1|-1|3
2021-03-10 21:05:49.590 +0000|290832.097940875|0.5477447509765625|0.96221923828125|0.266510009765625|290832.077976875|-1.243959051053262|1.944896399006613|-0.8735982147726217|-1.77039098739624|1.001121878623962|-1.374596476554871|-0.027626633644104|0.06135869026184082|0.06292605400085449|XArbitraryZVertical|0.2425555072814335|0.7473183151216843|-0.5814622875626573|0.211148835070027|0.5976645350456238|0.7666441798210144|0.2346356809139252|0|0|0|-1|-1|3
2021-03-10 21:05:49.610 +0000|290832.117904875|0.5398406982421875|0.991119384765625|0.27215576171875|290832.097940875|-1.176025266630968|2.017187485763351|-0.8829327968365092|-1.80769145488739|1.008548140525818|-1.207175850868225|-0.01882755756378174|0.1742493510246277|0.0003245770931243896|XArbitraryZVertical|0.2348311988175801|0.7628230586737564|-0.5681253024214603|0.2004715852806808|0.5726757645606995|0.7726041674613953|0.2740894258022308|0|0|0|-1|-1|3
2021-03-10 21:05:49.630 +0000|290832.137867875|0.5316162109375|1.061752319335938|0.391754150390625|290832.117904875|-1.112383563217254|2.086173688965713|-0.8866953110482151|-1.53132426738739|0.9408972263336182|-1.002120733261108|-0.01070243120193481|0.2122254967689514|-0.04736354947090149|XArbitraryZVertical|0.2285857522001341|0.7768445959920609|-0.5549015770614545|0.19064417816596|0.5498870015144348|0.774987518787384|0.3114779591560364|0|0|0|-1|-1|3
2021-03-10 21:05:49.650 +0000|290832.157831875|0.522979736328125|1.099639892578125|0.4259490966796875|290832.137867875|-1.062926217227891|2.141111388953827|-0.888146863620386|-1.042197942733765|0.7025062441825867|-0.7307670712471008|0.005599021911621094|0.2589775919914246|0.01810884475708008|XArbitraryZVertical|0.2239253316000916|0.7874991131841648|-0.5444819158597145|0.18232422297041|0.531006932258606|0.7759039998054504|0.3405948281288147|0|0|0|-1|-1|3
2021-03-10 21:05:49.670 +0000|290832.177795875|0.5202178955078125|1.083358764648438|0.4618682861328125|290832.157831875|-1.033601346052045|2.175394068499974|-0.8906857602434246|-0.3680677711963654|0.4504089057445526|-0.5112373232841492|-0.0009492039680480957|0.3301475644111633|0.06264579296112061|XArbitraryZVertical|0.2209079359673054|0.7936856638357002|-0.538787663282374|0.1759848453047548|0.5173982381820679|0.7775031924247742|0.3574745059013367|0|0|0|-1|-1|3
2021-03-10 21:05:49.690 +0000|290832.197759875|0.5206451416015625|1.0653076171875|0.4721832275390625|290832.177795875|-1.022555754375463|2.190036422917467|-0.8960230909415761|0.05532751977443695|0.1677297055721283|-0.3188453316688538|0.01920157670974731|0.2938430309295654|0.08952006697654724|XArbitraryZVertical|0.2189899859747698|0.7958280850112464|-0.537815511901051|0.1716259813234084|0.5087219476699829|0.7808486223220825|0.3625979125499725|0|0|0|-1|-1|3
2021-03-10 21:05:49.710 +0000|290832.217723875|0.5326995849609375|0.97747802734375|0.4705047607421875|290832.197759875|-1.022545694091938|2.19186169238237|-0.9015831288953909|0.2285527139902115|0.02595647983253002|-0.1423202604055405|0.007701516151428223|0.3043742179870605|0.1123640835285187|XArbitraryZVertical|0.2179526619347205|0.7956089914258232|-0.5392865337166473|0.169331297471598|0.5045208930969238|0.7843100428581238|0.3609940707683563|0|0|0|-1|-1|3
2021-03-10 21:05:49.730 +0000|290832.237687875|0.5328826904296875|0.9658355712890625|0.3921661376953125|290832.217723875|-1.026627012176069|2.187708465686551|-0.9049649729957682|0.1622038930654526|-0.1022675335407257|0.01264010369777679|0.03168851137161255|0.2033730149269104|0.11627396941185|XArbitraryZVertical|0.217524402850854|0.7945832631344342|-0.541096822428512|0.1689222862259783|0.5038491487503052|0.7864035367965698|0.35735884308815|0|0|0|-1|-1|3
2021-03-10 21:05:49.750 +0000|290832.257651875|0.5414276123046875|0.913909912109375|0.314056396484375|290832.237687875|-1.032254562326925|2.180644332196759|-0.9057138847816121|0.1849664747714996|-0.1599766463041306|0.1227698028087616|0.02505111694335938|0.182036817073822|0.06517139077186584|XArbitraryZVertical|0.2176379276224247|0.793322474435597|-0.5425651507631994|0.1699895460392372|0.5058785676956177|0.7868658900260925|0.3534536361694336|0|0|0|-1|-1|3
2021-03-10 21:05:49.769 +0000|290832.277616125|0.5364837646484375|0.8574981689453125|0.284698486328125|290832.257651875|-1.041678769993118|2.169787544533637|-0.9058555145631061|0.3251755237579346|-0.1800985783338547|0.1904349625110626|0.03163552284240723|0.144473671913147|-0.0246659517288208|XArbitraryZVertical|0.2183815254547836|0.7913585511764006|-0.5445954735554597|0.1716886618522785|0.5095937848091125|0.786953330039978|0.3478776812553406|0|0|0|-1|-1|3
2021-03-10 21:05:49.789 +0000|290832.297579125|0.5315093994140625|0.7952728271484375|0.2737274169921875|290832.277616125|-1.056430935403361|2.154678292698384|-0.9067587626143827|0.4570736587047577|-0.1602616012096405|0.2417756468057632|0.02558153867721558|0.08500242233276367|-0.047647625207901|XArbitraryZVertical|0.2198287935456527|0.7883835345757786|-0.5477869557250934|0.173367035031134|0.5141981244087219|0.7875102758407593|0.3397465944290161|0|0|0|-1|-1|3
2021-03-10 21:05:49.809 +0000|290832.317543125|0.537200927734375|0.7339630126953125|0.29339599609375|290832.297579125|-1.073449606592243|2.139194643308707|-0.9079548190314067|0.467363029718399|-0.01152532920241356|0.2301687896251678|0.01557689905166626|0.02037739753723145|-0.0634303092956543|XArbitraryZVertical|0.2219309432873919|0.7850893978859939|-0.5513203497593934|0.1744341132384354|0.5186028480529785|0.7882468700408936|0.331237405538559|0|0|0|-1|-1|3
2021-03-10 21:05:49.829 +0000|290832.337507125|0.5283660888671875|0.7271270751953125|0.3045196533203125|290832.317543125|-1.088203026414473|2.12893169978601|-0.9083926399407812|0.2815811336040497|0.1344018280506134|0.2134823948144913|0.009872972965240479|-0.03888231515884399|-0.03591987490653992|XArbitraryZVertical|0.2247524880641469|0.7825239978638597|-0.5538764140964914|0.1742516014170609|0.5216823220252991|0.7885162234306335|0.3257149755954742|0|0|0|-1|-1|3
2021-03-10 21:05:49.849 +0000|290832.357471125|0.5362548828125|0.705841064453125|0.28082275390625|290832.337507125|-1.09519045841374|2.126559749176848|-0.9066651164322467|0.02100288681685925|0.1700480878353119|0.1498952507972717|0.006038308143615723|-0.06627649068832397|-0.01992729306221008|XArbitraryZVertical|0.227321766689253|0.7816150869925613|-0.5542677486982377|0.1737525792664615|0.5236095190048218|0.7874525785446167|0.3251946568489075|0|0|0|-1|-1|3
2021-03-10 21:05:49.869 +0000|290832.377435125|0.5123443603515625|0.6792449951171875|0.3079071044921875|290832.357471125|-1.096273706875834|2.129143255411674|-0.904755084323704|-0.03853167966008186|0.1757405400276184|0.05107289180159569|0.01109868288040161|-0.06982797384262085|-0.04255250096321106|XArbitraryZVertical|0.2290068042828503|0.7818101820519726|-0.5535316842342716|0.1730070060741372|0.5240423083305359|0.7862738370895386|0.3273425400257111|0|0|0|-1|-1|3
2021-03-10 21:05:49.889 +0000|290832.397399125|0.5060577392578125|0.70916748046875|0.3457794189453125|290832.377435125|-1.096195128937856|2.133409493274041|-0.9043668634844207|0.0199580118060112|0.2501620948314667|-0.01571563817560673|-0.01131772994995117|-0.1035998463630676|-0.02781236171722412|XArbitraryZVertical|0.2302669793366499|0.7822059490905726|-0.5529260616674532|0.1714752845922961|0.5228992104530334|0.7860339283943176|0.329738050699234|0|0|0|-1|-1|3
2021-03-10 21:05:49.909 +0000|290832.417363125|0.5012664794921875|0.7699127197265625|0.35302734375|290832.397399125|-1.097665840997021|2.137394032893568|-0.9055232732676721|0.01169432234019041|0.3132266104221344|-0.04056577011942863|-0.006546854972839355|-0.09332793951034546|-0.005387812852859497|XArbitraryZVertical|0.2316143967350101|0.7823171694026018|-0.5529164337836866|0.1691686144515905|0.5208138227462769|0.7867482900619507|0.3313307762145996|0|0|0|-1|-1|3
2021-03-10 21:05:49.930 +0000|290832.437326125|0.5221710205078125|0.7502593994140625|0.3478546142578125|290832.417363125|-1.097416686864716|2.143122399602749|-0.9061273654390949|-0.06089692190289497|0.3250614702701569|-0.06491301208734512|-0.01643264293670654|-0.02364736795425415|0.02300432324409485|XArbitraryZVertical|0.2329280512004303|0.7827964204711491|-0.552400410766021|0.1668178555625551|0.5185079574584961|0.7871209979057312|0.3340514302253723|0|0|0|-1|-1|3
2021-03-10 21:05:49.950 +0000|290832.457290125|0.511932373046875|0.8292236328125|0.3102874755859375|290832.457290125|-1.090997820608867|2.155960285799774|-0.9061443544043628|-0.1289162039756775|0.1218501478433609|-0.084653340280056|0.01485663652420044|0.02977830171585083|-0.02364087104797363|XArbitraryZVertical|0.2339473416710868|0.7846050419947038|-0.5503766391482248|0.1635519354803617|0.5141656398773193|0.7871314883232117|0.3406728506088257|0|0|0|-1|-1|3
2021-03-10 21:05:49.969 +0000|290832.477254125|0.4966583251953125|0.8206329345703125|0.315704345703125||||||||||||||||||||||||3
2021-03-10 21:05:49.989 +0000|290832.497218125|0.482421875|0.8316802978515625|0.3831939697265625|290832.497218125|-1.088186468550233|2.162715907518308|-0.9058765121037092|0.05851092934608459|0.1284795552492142|-0.002766549587249756|-0.02795743942260742|0.03581815958023071|0.02374014258384705|XArbitraryZVertical|0.2347764180319326|0.7854986194601715|-0.5492798917643439|0.161751619513683|0.5120272636413574|0.7869662642478943|0.3442561030387878|0|0|0|-1|-1|3
2021-03-10 21:05:50.009 +0000|290832.517182125|0.5100555419921875|0.831573486328125|0.3377838134765625||||||||||||||||||||||||3
2021-03-10 21:05:50.029 +0000|290832.537146125|0.5079193115234375|0.8369598388671875|0.2975921630859375|290832.517182125|-1.089578641671581|2.164506214882398|-0.9061126241833485|0.05836077779531479|0.1282949894666672|0.02615369483828545|-0.0004835724830627441|0.05628728866577148|0.0009551346302032471|XArbitraryZVertical|0.2357485066126799|0.785466023677191|-0.5492490687016754|0.1605970810521505|0.5112563967704773|0.7871119379997253|0.3450684547424316|0|0|0|-1|-1|3
2021-03-10 21:05:50.049 +0000|290832.557110125|0.488861083984375|0.804656982421875|0.27410888671875|290832.537146125|-1.091869588548689|2.164409701545483|-0.9062277313033572|0.03122805990278721|0.08675037324428558|0.02219028770923615|-0.004866540431976318|0.04112511873245239|-0.03614547848701477|XArbitraryZVertical|0.2365893601847294|0.7851812273736354|-0.5494770076243539|0.1599715821445359|0.5112141966819763|0.7871829271316528|0.344968169927597|0|0|0|-1|-1|3
2021-03-10 21:05:50.069 +0000|290832.577074125|0.4949188232421875|0.79559326171875|0.285400390625|290832.557110125|-1.094663310678192|2.163160185730924|-0.9066814672115707|0.04067382588982582|0.06284093856811523|0.03751233965158463|-0.01748257875442505|0.03364330530166626|-0.06681647896766663|XArbitraryZVertical|0.2372149318128537|0.7847254012328679|-0.5499777591185608|0.1595607284028755|0.5113486051559448|0.7874626517295837|0.3441297709941864|0|0|0|-1|-1|3
2021-03-10 21:05:50.089 +0000|290832.597037125|0.4829254150390625|0.762664794921875|0.2772674560546875|290832.577074125|-1.096679280358005|2.163003760747535|-0.907139651211577|0.09153046458959579|0.07520386576652527|0.03119621053338051|-0.01198786497116089|0.008794188499450684|-0.06935790181159973|XArbitraryZVertical|0.2378340321021273|0.7844482722489989|-0.5502874690817754|0.1589325181508237|0.5111028552055359|0.7877449989318848|0.3438482284545898|0|0|0|-1|-1|3
2021-03-10 21:05:50.109 +0000|290832.617001125|0.4913330078125|0.6945343017578125|0.1639251708984375|290832.597037125|-1.099222841413093|2.163020621146466|-0.9081313894827251|0.0872635617852211|0.09472718089818954|0.001953903585672379|-0.02422744035720825|-0.01371258497238159|-0.05460238456726074|XArbitraryZVertical|0.2385572189134809|0.78409235909868|-0.5507692128541115|0.1579334990499331|0.5104488134384155|0.7883555293083191|0.3434207439422607|0|0|0|-1|-1|3
2021-03-10 21:05:50.129 +0000|290832.636965125|0.457733154296875|0.50250244140625|0.053192138671875|290832.617001125|-1.10057419004581|2.163082760159126|-0.9095058605372084|0.01362087018787861|0.03988395631313324|-0.07699728012084961|-0.01351058483123779|-0.07286107540130615|-0.1351903975009918|XArbitraryZVertical|0.2387174294882676|0.7838607402993121|-0.5512588212885421|0.1571312332431277|0.5095281600952148|0.7892003655433655|0.3428473472595215|0|0|0|-1|-1|3
2021-03-10 21:05:50.149 +0000|290832.656929125|0.426025390625|0.5057373046875|-0.088958740234375|290832.636965125|-1.09875295570835|2.164638230716933|-0.912269783631794|-0.091175377368927|0.06025857850909233|-0.221012607216835|-0.04613995552062988|-0.2453320026397705|-0.2639873027801514|XArbitraryZVertical|0.237655131818439|0.7840464205819295|-0.5517159657478788|0.1562076123817987|0.5071843266487122|0.7908947467803955|0.3424175083637238|0|0|0|-1|-1|3
2021-03-10 21:05:50.169 +0000|290832.676893125|0.4078216552734375|0.6256256103515625|-0.23095703125|290832.656929125|-1.090596851560432|2.173180549457658|-0.9163926521312734|-0.0005905397702008486|0.1619504243135452|-0.4127052426338196|-0.06876438856124878|-0.3004759550094604|-0.3879928886890411|XArbitraryZVertical|0.2356535432412778|0.7854366941806498|-0.5512479218726385|0.1538904225589914|0.5015494227409363|0.7934110164642334|0.3448867797851562|0|0|0|-1|-1|3
2021-03-10 21:05:50.189 +0000|290832.696857125|0.412567138671875|0.6270751953125|-0.1687774658203125|290832.676893125|-1.087073959730208|2.181427381313746|-0.9287455393439612|0.5532198548316956|0.3564087450504303|-0.7115519046783447|-0.08009824156761169|-0.2133450508117676|-0.5488245487213135|XArbitraryZVertical|0.2330922025449867|0.7857165983184065|-0.5535473554101944|0.1479958109304124|0.4906206727027893|0.800869345664978|0.3433651030063629|0|0|0|-1|-1|3
2021-03-10 21:05:50.208 +0000|290832.716821125|0.3348541259765625|0.6233673095703125|0.22259521484375|290832.696857125|-1.093493248819649|2.185171511137982|-0.9513487008412072|0.9076632261276245|0.546571671962738|-0.9033103585243225|-0.06747943162918091|-0.1728723645210266|-0.5486972332000732|XArbitraryZVertical|0.2303260172567412|0.7837656962701913|-0.5599943495890889|0.1380856625729069|0.4744161367416382|0.8141992688179016|0.3346774876117706|0|0|0|-1|-1|3
2021-03-10 21:05:50.229 +0000|290832.736785125|0.2435760498046875|0.8259429931640625|0.75506591796875|290832.716821125|-1.088028531094144|2.203264963211443|-0.9725263770698928|-0.122257873415947|0.9026350975036621|-0.9865739345550537|-0.07882916927337646|-0.2237416505813599|-0.2731682062149048|XArbitraryZVertical|0.227343696871541|0.784081179372863|-0.5635457334202557|0.1262844939792933|0.4542717337608337|0.8263112306594849|0.3329369127750397|0|0|0|-1|-1|3
2021-03-10 21:05:50.248 +0000|290832.756748125|0.286895751953125|0.9863433837890625|0.89068603515625|290832.736785125|-1.041756069307882|2.265300840405919|-0.9767616686430021|-1.604428291320801|1.47011411190033|-0.8969389200210571|-0.1873122751712799|-0.0538477897644043|0.2858873903751373|XArbitraryZVertical|0.2252896306801885|0.7926871738154395|-0.5549779625145647|0.1135396903834191|0.430064469575882|0.8286892175674438|0.3582167327404022|0|0|0|-1|-1|3
2021-03-10 21:05:50.268 +0000|290832.776712125|0.310546875|1.34661865234375|1.10076904296875|290832.776712125|-0.911346110337116|2.440445678868347|-0.9354337398885254|-2.049085378646851|1.58068323135376|-0.02695959247648716|-0.07345682382583618|0.4599599242210388|0.6079753637313843|XArbitraryZVertical|0.2298723350035219|0.8209108956040705|-0.515125723651962|0.08893648108155919|0.3828441500663757|0.804856538772583|0.4534719884395599|0|0|0|-1|-1|3
2021-03-10 21:05:50.289 +0000|290832.796676125|0.3596954345703125|1.615097045898438|1.199874877929688||||||||||||||||||||||||3
2021-03-10 21:05:50.308 +0000|290832.816640125|0.4461212158203125|1.516036987304688|1.17926025390625|290832.796676125|-0.8843947677088499|2.485804279544652|-0.9029316550474787|-1.450356245040894|0.7349117994308472|0.800578236579895|-0.03403329849243164|0.7875927090644836|0.7034903764724731|XArbitraryZVertical|0.2375465151323179|0.8300568759766978|-0.4973179363890317|0.08515902336153905|0.3776459395885468|0.7851458787918091|0.4908455312252045|0|0|0|-1|-1|3
2021-03-10 21:05:50.328 +0000|290832.836604125|0.5914306640625|1.432418823242188|1.138046264648438|290832.816640125|-0.8936767151201348|2.483188488468813|-0.8744255741288901|-0.4903743267059326|-0.3187520802021027|1.325499057769775|0.02533400058746338|0.7768006324768066|0.6925780773162842|XArbitraryZVertical|0.2470022734569094|0.8322671760516119|-0.4878968095968683|0.09098262291302522|0.3924669325351715|0.7671751976013184|0.5073575377464294|0|0|0|-1|-1|3
2021-03-10 21:05:50.348 +0000|290832.856568125|0.6389007568359375|1.215347290039062|0.8198699951171875|290832.836604125|-0.9259479803933977|2.441745840022258|-0.8534847353477283|0.1369389891624451|-1.381157398223877|1.624804377555847|0.1290684342384338|0.6960396766662598|0.6440845131874084|XArbitraryZVertical|0.2549602766931491|0.8285025066879795|-0.487270832415919|0.1055743022748323|0.423406571149826|0.7535756826400757|0.5028423070907593|0|0|0|-1|-1|3
2021-03-10 21:05:50.368 +0000|290832.876532125|0.642303466796875|1.024642944335938|0.4407501220703125|290832.856568125|-0.9727269887713508|2.369799601510507|-0.8374313195795593|0.7509088516235352|-2.263286828994751|1.720830082893372|0.1753306686878204|0.5419554710388184|0.4346383213996887|XArbitraryZVertical|0.2603423357424582|0.8198042480472291|-0.4937379473906467|0.1279291872611995|0.4668355584144592|0.7429261803627014|0.4797142744064331|0|0|0|-1|-1|3
2021-03-10 21:05:50.388 +0000|290832.896496125|0.6071319580078125|0.7787017822265625|0.3074493408203125|290832.876532125|-1.028851729906759|2.276375442208952|-0.8256118789240126|1.209662675857544|-2.912210464477539|1.681497097015381|0.1237995028495789|0.3506542444229126|0.0952070951461792|XArbitraryZVertical|0.262759251813644|0.806737507232124|-0.5060362344248561|0.1551115339889477|0.5162000060081482|0.7349628210067749|0.4397356510162354|0|0|0|-1|-1|3
2021-03-10 21:05:50.408 +0000|290832.916460125|0.4939422607421875|0.4340362548828125|0.22418212890625|290832.896496125|-1.088825448112287|2.169609937496408|-0.8155309787805423|1.3707035779953|-3.339995622634888|1.592717289924622|0.0639306902885437|0.1155077815055847|-0.06367260217666626|XArbitraryZVertical|0.2619511264126247|0.7902987090409489|-0.5220268997352208|0.1851961731580104|0.5662116408348083|0.7280896902084351|0.3863808810710907|0|0|0|-1|-1|3
2021-03-10 21:05:50.428 +0000|290832.936423125|0.4518280029296875|0.284454345703125|0.143646240234375|290832.916460125|-1.141978980188891|2.064513657862919|-0.803179547934099|1.077445030212402|-3.245113372802734|1.346218228340149|-0.09495198726654053|-0.1990445852279663|-0.09398114681243896|XArbitraryZVertical|0.2583794504879549|0.7731651420633281|-0.5374673980604624|0.2158345809955196|0.6114926338195801|0.7195676565170288|0.329088568687439|0|0|0|-1|-1|3
2021-03-10 21:05:50.448 +0000|290832.956387125|0.4340972900390625|0.2363128662109375|0.0970916748046875|290832.936423125|-1.182046735231462|1.976388199150164|-0.7916059238513188|0.9863585829734802|-2.580155611038208|0.7030487060546875|-0.1879136562347412|-0.4856526851654053|-0.1273735165596008|XArbitraryZVertical|0.2531717559740226|0.7579804489787676|-0.5502096219793458|0.242154963563078|0.6456925272941589|0.7114827036857605|0.2772606015205383|0|0|0|-1|-1|3
2021-03-10 21:05:50.468 +0000|290832.976351125|0.3923187255859375|0.0704498291015625|-0.03753662109375|290832.956387125|-1.218415035090279|1.904217229308168|-0.7915465821190273|1.405020236968994|-1.914737105369568|0.0880107581615448|-0.1754275560379028|-0.4841459989547729|-0.1226930618286133|XArbitraryZVertical|0.2467510600521885|0.7443859024557248|-0.5637758789599223|0.2591532045431741|0.6640445590019226|0.7114409804344177|0.2299929112195969|0|0|0|-1|-1|3
2021-03-10 21:05:50.488 +0000|290832.996315125|0.414031982421875|-0.195404052734375|-0.2232208251953125|290832.976351125|-1.262779973038723|1.843865548900697|-0.8052668065744867|1.894140005111694|-0.9327247738838196|-0.513685405254364|-0.2680287957191467|-0.6062238216400146|-0.1868873089551926|XArbitraryZVertical|0.2415653822622064|0.731493097994345|-0.5801813947907695|0.2644870439979582|0.6672443747520447|0.7210155725479126|0.1868719756603241|0|0|0|-1|-1|3
2021-03-10 21:05:50.508 +0000|290833.016279125|0.4557647705078125|-0.0065460205078125|-0.115081787109375|290832.996315125|-1.31032996179114|1.79975036336937|-0.8281507941242283|1.737098693847656|-0.04157143086194992|-0.864471971988678|-0.2445755004882812|-0.8852112293243408|-0.3491877317428589|XArbitraryZVertical|0.238547061651636|0.7209955461506784|-0.5966732350563766|0.2593101822547901|0.6585922837257385|0.736682116985321|0.1534785628318787|0|0|0|-1|-1|3
2021-03-10 21:05:50.528 +0000|290833.036243125|0.4795684814453125|0.28948974609375|0.0930633544921875|290833.016279125|-1.340006413805028|1.784057138231148|-0.8519759402878833|0.5675306916236877|0.6100197434425354|-1.018507838249207|-0.2008153796195984|-0.8360029458999634|-0.3026386797428131|XArbitraryZVertical|0.2367989330143288|0.7166666284826055|-0.6071340685424985|0.248401513952491|0.6435795426368713|0.7525830268859863|0.1393695771694183|0|0|0|-1|-1|3
2021-03-10 21:05:50.548 +0000|290833.056207125|0.51287841796875|0.7005767822265625|0.2432403564453125|290833.036243125|-1.330417291765595|1.806999807873136|-0.8723613781642402|-0.6240389347076416|0.9381953477859497|-1.054654121398926|-0.1505407094955444|-0.5696520805358887|-0.1002431064844131|XArbitraryZVertical|0.2337216362549182|0.7215343126669997|-0.6073154704888075|0.2364958994894216|0.6251653432846069|0.7658494710922241|0.1504751294851303|0|0|0|-1|-1|3
2021-03-10 21:05:50.568 +0000|290833.076171125|0.58056640625|0.852264404296875|0.2382354736328125|290833.056207125|-1.293245571561332|1.857300802908447|-0.8856807133703942|-1.214406728744507|1.192919492721558|-0.8356412053108215|-0.1059015989303589|-0.1595538854598999|0.04257048666477203|XArbitraryZVertical|0.2311134484434544|0.7321176435976838|-0.599914810498521|0.2251503301104762|0.6069698333740234|0.774345874786377|0.1788193434476852|0|0|0|-1|-1|3
2021-03-10 21:05:50.588 +0000|290833.096135125|0.635894775390625|1.006195068359375|0.30419921875|290833.076171125|-1.247688173053554|1.916899947080036|-0.8914567628573151|-1.289228439331055|1.1880704164505|-0.5962411165237427|-0.03378784656524658|0.0703856348991394|0.03001439571380615|XArbitraryZVertical|0.2301903118313094|0.7440293321690754|-0.5892946735662076|0.2148596466357831|0.5910236239433289|0.7779878377914429|0.2131344527006149|0|0|0|-1|-1|3
2021-03-10 21:05:50.608 +0000|290833.116098125|0.646636962890625|1.077789306640625|0.3374176025390625|290833.096135125|-1.20463357278389|1.971161993057336|-0.8905108569282344|-1.200951218605042|0.8638242483139038|-0.3398456871509552|0.04993987083435059|0.1644402742385864|0.04422116279602051|XArbitraryZVertical|0.2301900530870657|0.7547141554456094|-0.5782800164566042|0.2073917651360627|0.5792716145515442|0.7773931622505188|0.2451618313789368|0|0|0|-1|-1|3
2021-03-10 21:05:50.628 +0000|290833.136062125|0.6171417236328125|1.010269165039062|0.417816162109375|290833.116098125|-1.171227053084725|2.010712431543885|-0.8873135523253985|-0.8471594452857971|0.5070170760154724|-0.2503142952919006|0.07473200559616089|0.3291752934455872|0.06316044926643372|XArbitraryZVertical|0.2298397826547264|0.7626529887238871|-0.5695090867199452|0.2029621462476257|0.5713710784912109|0.7753780484199524|0.2689318060874939|0|0|0|-1|-1|3
2021-03-10 21:05:50.648 +0000|290833.156026125|0.616302490234375|0.9928131103515625|0.407989501953125|290833.136062125|-1.148018861157642|2.036228579070089|-0.8855805943593197|-0.5497782826423645|0.275228351354599|-0.2501496076583862|0.05952244997024536|0.2259004712104797|0.1148404777050018|XArbitraryZVertical|0.2287086260810745|0.7679222186896006|-0.5637968041652012|0.2003021181947802|0.5655232667922974|0.7742825150489807|0.2840243279933929|0|0|0|-1|-1|3
2021-03-10 21:05:50.668 +0000|290833.175990125|0.5890045166015625|0.8232269287109375|0.347991943359375|290833.156026125|-1.133944658217203|2.051261513428495|-0.8873047365198465|-0.1707052737474442|0.1452503800392151|-0.3003564476966858|0.05374908447265625|0.2577847838401794|0.1285952031612396|XArbitraryZVertical|0.2270093375637852|0.7709764879177136|-0.5611377473803706|0.1979555655189605|0.5600051879882812|0.7753725051879883|0.291875958442688|0|0|0|-1|-1|3
2021-03-10 21:05:50.688 +0000|290833.195954125|0.5454864501953125|0.89849853515625|0.3401641845703125|290833.175990125|-1.128030601795324|2.057765078460779|-0.8921432471910522|0.004048853181302547|0.05440793931484222|-0.2878273129463196|0.04443961381912231|0.05692332983016968|0.06402012705802917|XArbitraryZVertical|0.2251214420586282|0.7721377608117534|-0.5611102782233642|0.1956497779071835|0.5547730922698975|0.7784189581871033|0.2937527596950531|0|0|0|-1|-1|3
2021-03-10 21:05:50.708 +0000|290833.215918125|0.5116729736328125|0.86016845703125|0.3365020751953125|290833.195954125|-1.123881354875143|2.061612139150646|-0.8970122648780174|-0.01665579341351986|0.01174111105501652|-0.2770550847053528|0.003955245018005371|0.09873718023300171|0.04725936055183411|XArbitraryZVertical|0.2231609131367009|0.7728173839407525|-0.5615769020439433|0.1938658817332892|0.5502898693084717|0.7814661860466003|0.2940950095653534|0|0|0|-1|-1|3
2021-03-10 21:05:50.728 +0000|290833.235882125|0.53472900390625|0.8678741455078125|0.3360595703125|290833.215918125|-1.119430121793018|2.06590352113894|-0.9025731054590057|0.04064411669969559|0.09433788061141968|-0.3606165647506714|-0.02910757064819336|0.08899283409118652|0.03564798831939697|XArbitraryZVertical|0.221005664551139|0.7735300438568792|-0.5621608700999138|0.1917888902644373|0.5451903939247131|0.784923791885376|0.2943844795227051|0|0|0|-1|-1|3
2021-03-10 21:05:50.748 +0000|290833.255846125|0.5499114990234375|0.737884521484375|0.326873779296875|290833.235882125|-1.115242052302004|2.072360534576569|-0.9110539698956717|0.151258647441864|0.2252345830202103|-0.5224905610084534|-0.0119549036026001|0.0792955756187439|0.04219624400138855|XArbitraryZVertical|0.2187041076640145|0.7742817171182322|-0.5633292074780935|0.1879270636781902|0.5374218225479126|0.7901501655578613|0.2946873307228088|0|0|0|-1|-1|3
2021-03-10 21:05:50.768 +0000|290833.2758082917|0.5799560546875|0.4858856201171875|0.248779296875|290833.255846125|-1.112137683612217|2.080928780050005|-0.9241546533964355|0.2725649476051331|0.3720299005508423|-0.6941053867340088|0.01549255847930908|-0.01107877492904663|0.04075998067855835|XArbitraryZVertical|0.2160681934827057|0.7748645095769289|-0.5656282352451995|0.1815602052952003|0.5257976651191711|0.7981117367744446|0.2942009568214417|0|0|0|-1|-1|3
2021-03-10 21:05:50.788 +0000|290833.2957722917|0.528900146484375|0.68719482421875|0.2702484130859375|290833.2758082917|-1.10688516448817|2.09339475515319|-0.9393524708378833|0.1515812128782272|0.4355405271053314|-0.765104353427887|0.06491184234619141|-0.2818920016288757|-0.03596168756484985|XArbitraryZVertical|0.2131070145993783|0.7758269496886668|-0.5679069046535408|0.1736661203858837|0.5115196108818054|0.8071760535240173|0.2946441173553467|0|0|0|-1|-1|3
2021-03-10 21:05:50.808 +0000|290833.3157362917|0.4795379638671875|0.77093505859375|0.24871826171875|290833.2957722917|-1.091957191420655|2.113847739886259|-0.9511560317306559|-0.276853084564209|0.399651974439621|-0.7109490633010864|0.05300694704055786|-0.2073369026184082|-0.02661597728729248|XArbitraryZVertical|0.2096713974337349|0.7785162262478594|-0.5676703160636126|0.1664359089116785|0.4971945583820343|0.8140873908996582|0.3000992238521576|0|0|0|-1|-1|3
2021-03-10 21:05:50.828 +0000|290833.3357002917|0.47662353515625|0.801910400390625|0.33056640625|290833.3157362917|-1.067787864589604|2.142070065712656|-0.9589335469146479|-0.4940314292907715|0.4683689475059509|-0.6990457773208618|0.004819482564926147|-0.04006081819534302|-0.06689393520355225|XArbitraryZVertical|0.2059865533019402|0.7828524377730477|-0.5649092784322385|0.1599661240266303|0.4831871688365936|0.8185794949531555|0.3105767965316772|0|0|0|-1|-1|3
2021-03-10 21:05:50.848 +0000|290833.3556642917|0.4930267333984375|0.7577362060546875|0.35308837890625|290833.3357002917|-1.037378112310492|2.177134253647466|-0.9644516286463685|-0.6000840663909912|0.546366274356842|-0.7286890149116516|0.005914151668548584|-0.03557318449020386|-0.01621329784393311|XArbitraryZVertical|0.2023442456531392|0.7883081814045606|-0.5605120482808298|0.1531447700640469|0.4682833254337311|0.8217365145683289|0.3247459530830383|0|0|0|-1|-1|3
2021-03-10 21:05:50.867 +0000|290833.3756282917|0.4593505859375|0.7692108154296875|0.3631134033203125|290833.3556642917|-1.005811385158361|2.214392128898768|-0.9697636040723021|-0.548389732837677|0.5806147456169128|-0.7457913160324097|0.03855741024017334|-0.03941255807876587|0.01306203007698059|XArbitraryZVertical|0.1987855768737295|0.7938225013233935|-0.5559680676630824|0.1457044051773416|0.4523637294769287|0.8247520327568054|0.3393397331237793|0|0|0|-1|-1|3
2021-03-10 21:05:50.887 +0000|290833.3955922917|0.3868408203125|0.9037322998046875|0.366790771484375|290833.3756282917|-0.973762668282484|2.252020364767711|-0.9739929245119008|-0.635445773601532|0.528776228427887|-0.6876854300498962|0.03720620274543762|-0.08761918544769287|0.004771322011947632|XArbitraryZVertical|0.1952932613596397|0.7992615881804009|-0.5512570151477068|0.1384092429134121|0.4365639388561249|0.8271363377571106|0.3539170920848846|0|0|0|-1|-1|3
2021-03-10 21:05:50.907 +0000|290833.4155562917|0.3861846923828125|0.798126220703125|0.4390411376953125|290833.3955922917|-0.9405192137204259|2.290204279538704|-0.9755471689300136|-0.6387783288955688|0.5922123789787292|-0.6453299522399902|-0.01289308071136475|0.06658339500427246|-0.01219263672828674|XArbitraryZVertical|0.1920242182547066|0.8049008161584296|-0.5457955328304533|0.1317899433488206|0.4217675924301147|0.8280088305473328|0.369477242231369|0|0|0|-1|-1|3
2021-03-10 21:05:50.927 +0000|290833.4355202917|0.4022216796875|0.83392333984375|0.4316558837890625|290833.4155562917|-0.9107116704305444|2.327245885593802|-0.9775806684626587|-0.4709329605102539|0.5938246846199036|-0.6311960816383362|-0.03723087906837463|-0.006134092807769775|0.05701762437820435|XArbitraryZVertical|0.1895349533646172|0.8098887755820869|-0.5410013213643258|0.1243951988398871|0.4065698683261871|0.8291473388671875|0.3836866617202759|0|0|0|-1|-1|3
2021-03-10 21:05:50.947 +0000|290833.4554832917|0.384796142578125|0.8469696044921875|0.3488922119140625|290833.4355202917|-0.8859862844647161|2.358095120346239|-0.9807449870523375|-0.3641468584537506|0.4889491498470306|-0.6218611598014832|0.007961481809616089|-0.01647412776947021|0.04322439432144165|XArbitraryZVertical|0.1870304826416652|0.8137024638857369|-0.5376333921178149|0.117721765114585|0.3926886320114136|0.8309121131896973|0.3941842019557953|0|0|0|-1|-1|3
2021-03-10 21:05:50.967 +0000|290833.4754472917|0.3394775390625|0.83990478515625|0.3138885498046875|290833.4554832917|-0.8657458189178237|2.381912036137351|-0.9849272564757979|-0.2860871553421021|0.3723133206367493|-0.6517134308815002|0.01338711380958557|0.02310675382614136|-0.03823000192642212|XArbitraryZVertical|0.1841562813020668|0.8164171424159498|-0.535648323747868|0.1123857310918285|0.3807932734489441|0.8332318663597107|0.4009009599685669|0|0|0|-1|-1|3
2021-03-10 21:05:50.987 +0000|290833.4954112917|0.325775146484375|0.8627166748046875|0.3623504638671875|290833.4754472917|-0.8423825048241079|2.406809760946157|-0.9893830049030718|-0.3982507586479187|0.2600089907646179|-0.636771023273468|-0.01474723219871521|-0.0004515647888183594|-0.0831567645072937|XArbitraryZVertical|0.1801987107666757|0.8193151333521834|-0.5335999712261641|0.1073420072244264|0.3682019114494324|0.8356872797012329|0.4074977338314056|0|0|0|-1|-1|3
2021-03-10 21:05:51.007 +0000|290833.5153752917|0.318572998046875|0.8946685791015625|0.3974761962890625|290833.4954112917|-0.814874243163113|2.434996793943762|-0.9910498363245349|-0.4859622120857239|0.2623602151870728|-0.6123940348625183|-0.02915838360786438|0.0143200159072876|-0.06653982400894165|XArbitraryZVertical|0.1760146841765607|0.8230098489307046|-0.530217264283994|0.1026803786317768|0.3556659817695618|0.8366015553474426|0.4166527688503265|0|0|0|-1|-1|3
2021-03-10 21:05:51.027 +0000|290833.5353392917|0.320556640625|0.98052978515625|0.41424560546875|290833.5153752917|-0.7876655868451856|2.463312960402476|-0.990687473589926|-0.3826719522476196|0.2872581481933594|-0.5916877388954163|-0.0269160270690918|0.04267126321792603|-0.0353427529335022|XArbitraryZVertical|0.172351932801218|0.8268559387108949|-0.5262572873033979|0.09827257299956468|0.3439174294471741|0.8364030122756958|0.4267918765544891|0|0|0|-1|-1|3
2021-03-10 21:05:51.047 +0000|290833.5553032917|0.2958221435546875|1.01519775390625|0.3851165771484375|290833.5353392917|-0.7661856086735054|2.486133420437751|-0.9928962443500507|-0.3236356377601624|0.2760169804096222|-0.4984562695026398|-0.005767792463302612|0.1235394477844238|-0.01971703767776489|XArbitraryZVertical|0.1689673897406567|0.8294463440173666|-0.524062033386322|0.09395619299570079|0.3329620361328125|0.8376116156578064|0.4330624341964722|0|0|0|-1|-1|3
2021-03-10 21:05:51.067 +0000|290833.5752672917|0.3347015380859375|1.041427612304688|0.419158935546875|290833.5553032917|-0.7483564326803444|2.506660199256354|-0.9937494853853003|-0.4207682311534882|0.3837809860706329|-0.356330543756485|-0.03234997391700745|0.1713526248931885|-0.05678361654281616|XArbitraryZVertical|0.1667482233395604|0.8317511967984772|-0.5218263454995007|0.08990192661148885|0.3235793113708496|0.8380774259567261|0.4392300546169281|0|0|0|-1|-1|3
2021-03-10 21:05:51.087 +0000|290833.5952312917|0.2962188720703125|1.024627685546875|0.4786529541015625|290833.5752672917|-0.7322629683046366|2.527196923513009|-0.9901669102057856|-0.5919237732887268|0.4118487536907196|-0.1654229313135147|0.02075508236885071|0.2006866335868835|-0.03420045971870422|XArbitraryZVertical|0.1661279398331312|0.8345764125929694|-0.5181053005134925|0.08631713976741828|0.3162200152873993|0.8361175656318665|0.4482325613498688|0|0|0|-1|-1|3
2021-03-10 21:05:51.107 +0000|290833.6151952917|0.2814788818359375|1.161087036132812|0.510284423828125|290833.5952312917|-0.718343652758041|2.547216826809052|-0.9811727081433059|-0.7321982383728027|0.4695764780044556|0.0516129806637764|-0.01273733377456665|0.1916465759277344|-0.001685261726379395|XArbitraryZVertical|0.1672888026860728|0.8380673841705275|-0.5125338700655524|0.08346588346139439|0.3113824129104614|0.8311499953269958|0.4606849551200867|0|0|0|-1|-1|3
2021-03-10 21:05:51.127 +0000|290833.6351582917|0.2838134765625|1.186981201171875|0.5894317626953125|290833.6151952917|-0.7090163884384535|2.564363595332108|-0.9674374073148415|-0.6784531474113464|0.4760879576206207|0.2857785224914551|-0.02342960238456726|0.3041138052940369|0.02047809958457947|XArbitraryZVertical|0.1704529691295242|0.8418342804929737|-0.5055812122125439|0.0815380868713898|0.3096387386322021|0.8234343528747559|0.4754783511161804|0|0|0|-1|-1|3
2021-03-10 21:05:51.147 +0000|290833.6551222917|0.280242919921875|1.124221801757812|0.6466522216796875|290833.6351582917|-0.7104184517602378|2.571906939331801|-0.9526220931862029|-0.5267840027809143|0.3738139569759369|0.5910404324531555|-0.02076515555381775|0.3744694590568542|0.09088253974914551|XArbitraryZVertical|0.1758217905619181|0.844450721306047|-0.4994117391903655|0.08110278209432134|0.3125895261764526|0.814937949180603|0.488020658493042|0|0|0|-1|-1|3
2021-03-10 21:05:51.167 +0000|290833.6750862917|0.3080902099609375|1.128799438476562|0.7188568115234375|290833.6551222917|-0.7223686179425437|2.568864200876751|-0.9360052290402011|-0.5054368376731873|0.2651991546154022|0.9046193957328796|-0.0543694794178009|0.333415150642395|0.133150726556778|XArbitraryZVertical|0.1833397852439042|0.8459175730443865|-0.4938991334119299|0.08290703915736991|0.3213677704334259|0.8051955699920654|0.498380035161972|0|0|0|-1|-1|3
2021-03-10 21:05:51.187 +0000|290833.6950502917|0.28326416015625|1.232757568359375|0.7234649658203125|290833.6750862917|-0.7435847233207973|2.55432230432171|-0.916427539368034|-0.4210088551044464|-0.07927673310041428|1.219676613807678|-0.02343985438346863|0.3268985152244568|0.198198139667511|XArbitraryZVertical|0.1925826883557732|0.8463171742742375|-0.4887855795642882|0.08802188367072372|0.337252140045166|0.7934322953224182|0.5066816806793213|0|0|0|-1|-1|3
2021-03-10 21:05:51.207 +0000|290833.7150142917|0.359405517578125|1.043319702148438|0.5998992919921875|290833.6950502917|-0.7737620449212321|2.523743395108813|-0.8957817880048223|-0.1983794569969177|-0.6563882827758789|1.500028491020203|-0.08232089877128601|0.4276458024978638|0.2212722897529602|XArbitraryZVertical|0.202051040609085|0.8449054364824711|-0.4854697885960937|0.09812931759000831|0.3619993329048157|0.7806978821754456|0.5093796253204346|0|0|0|-1|-1|3
2021-03-10 21:05:51.227 +0000|290833.7349782917|0.485504150390625|0.87677001953125|0.4802093505859375|290833.7150142917|-0.8141952915672778|2.472698879591532|-0.876459321338265|0.1620128154754639|-1.29403030872345|1.677619934082031|-0.06438624858856201|0.3419343829154968|0.1246295571327209|XArbitraryZVertical|0.2107613494107957|0.8405793436314518|-0.4857540343052679|0.114232305331134|0.3967989981174469|0.7684780955314636|0.5019879341125488|0|0|0|-1|-1|3
2021-03-10 21:05:51.247 +0000|290833.7549422917|0.5998992919921875|1.001678466796875|0.56756591796875|290833.7349782917|-0.8593528609111083|2.406073489885193|-0.858032444215781|0.3168448209762573|-1.934388518333435|1.732053756713867|0.01577699184417725|0.1582528352737427|0.02942180633544922|XArbitraryZVertical|0.217534702946748|0.8337364845145125|-0.489075652010223|0.1355255943940435|0.4387671053409576|0.7565574049949646|0.4848757386207581|0|0|0|-1|-1|3
2021-03-10 21:05:51.267 +0000|290833.7749062917|0.6088409423828125|0.851318359375|0.5897979736328125|290833.7549422917|-0.9050962432189884|2.325442623689901|-0.8397964478371044|0.4852159917354584|-2.693405628204346|1.732841491699219|0.09029382467269897|0.2019038200378418|0.09376516938209534|XArbitraryZVertical|0.2209936930775889|0.8245180723679721|-0.4949739108666501|0.1622730216374688|0.4863663017749786|0.7445072531700134|0.4573365151882172|0|0|0|-1|-1|3
2021-03-10 21:05:51.287 +0000|290833.7948692917|0.52362060546875|0.5980682373046875|0.5228424072265625|290833.7749062917|-0.9493783321316223|2.233883372110042|-0.8207982910282048|0.4986050426959991|-3.152785778045654|1.622544527053833|0.08138066530227661|0.1969596147537231|0.1645075678825378|XArbitraryZVertical|0.2210958777091437|0.8129627297376428|-0.502688647065481|0.1936808197655602|0.5371953248977661|0.7316902279853821|0.4195835888385773|0|0|0|-1|-1|3
2021-03-10 21:05:51.307 +0000|290833.8148332917|0.53466796875|0.478759765625|0.4743194580078125|290833.7948692917|-0.9874833686285864|2.142165456534094|-0.8023261005995758|0.6479174494743347|-3.194987058639526|1.405959248542786|-0.03957843780517578|-0.0784260630607605|0.1739248931407928|XArbitraryZVertical|0.2181826010138212|0.8002053867710788|-0.5108680180464962|0.226012342100753|0.5846376419067383|0.718974769115448|0.3758646249771118|0|0|0|-1|-1|3
2021-03-10 21:05:51.327 +0000|290833.8347972917|0.5371551513671875|0.2845306396484375|0.404541015625|290833.8148332917|-1.025511042040455|2.056210692311649|-0.7901549770490317|1.004440069198608|-2.664913415908813|0.9198794364929199|-0.1022840738296509|-0.1956002712249756|0.1478968858718872|XArbitraryZVertical|0.2145276544003718|0.7862254779308934|-0.5210350342850141|0.2536728755241232|0.6224409937858582|0.7104623317718506|0.3283452391624451|0|0|0|-1|-1|3
2021-03-10 21:05:51.347 +0000|290833.8547612917|0.4073028564453125|0.0417938232421875|0.2603607177734375|290833.8347972917|-1.063025432280278|1.979490641106947|-0.787629098216878|1.254849314689636|-2.318408966064453|0.4621411263942719|-0.08066344261169434|-0.3723635673522949|0.1431991755962372|XArbitraryZVertical|0.2096641700304842|0.7721614583380894|-0.5334007899058408|0.2743924587833737|0.6474206447601318|0.7086825370788574|0.280384749174118|0|0|0|-1|-1|3
2021-03-10 21:05:51.366 +0000|290833.8747252917|0.4167633056640625|-0.052032470703125|-0.0283660888671875|290833.8547612917|-1.09736052598343|1.916211901318581|-0.791016948947363|1.00303065776825|-1.531987905502319|0.1242301017045975|-0.231325089931488|-0.6103149652481079|0.07600304484367371|XArbitraryZVertical|0.2047118967612429|0.7596889859909877|-0.5457103576966877|0.2883848440321525|0.6615923643112183|0.7110686898231506|0.238068625330925|0|0|0|-1|-1|3
2021-03-10 21:05:51.386 +0000|290833.8946892917|0.42889404296875|0.1193084716796875|-0.22344970703125|290833.8747252917|-1.115511330601112|1.881090199395007|-0.7963503835478205|0.3813044130802155|-0.7233262658119202|-0.2002995014190674|-0.2623740434646606|-0.7789414525032043|-0.1721779555082321|XArbitraryZVertical|0.2002664982561101|0.7527668825660603|-0.5533004805546703|0.2951166320165837|0.6659231781959534|0.7148085832595825|0.2135293036699295|0|0|0|-1|-1|3
2021-03-10 21:05:51.406 +0000|290833.9146532917|0.4252166748046875|0.3696136474609375|-0.143524169921875|290833.8946892917|-1.117629457076012|1.871755539949695|-0.8036022579757258|0.02162691578269005|-0.07738237828016281|-0.4242817461490631|-0.2341015934944153|-0.6441469788551331|-0.4029664695262909|XArbitraryZVertical|0.1961952314384025|0.7512578796385413|-0.5563809618214557|0.2959042734383586|0.6629194021224976|0.7198611497879028|0.2057619392871857|0|0|0|-1|-1|3
2021-03-10 21:05:51.426 +0000|290833.9346172917|0.4647674560546875|0.53814697265625|0.0463409423828125|290833.9146532917|-1.110769939748675|1.879999236823044|-0.8124404611749693|-0.1777152270078659|0.3869195580482483|-0.549558699131012|-0.2310420870780945|-0.4165956974029541|-0.3840648829936981|XArbitraryZVertical|0.1931289031086835|0.7532190940630299|-0.5568079760447162|0.2921082416128009|0.6551144123077393|0.7259677052497864|0.209275558590889|0|0|0|-1|-1|3
2021-03-10 21:05:51.446 +0000|290833.9545812917|0.512939453125|0.697967529296875|0.2299652099609375|290833.9346172917|-1.099178590355915|1.899821593078682|-0.8219260835319162|-0.3000397086143494|0.7231365442276001|-0.577530562877655|-0.1948440670967102|-0.2356932759284973|-0.224195808172226|XArbitraryZVertical|0.1912928785279242|0.7572313276161504|-0.5556537348766574|0.2850559409334509|0.6442917585372925|0.7324584722518921|0.2199845016002655|0|0|0|-1|-1|3
2021-03-10 21:05:51.466 +0000|290833.9745442917|0.5654144287109375|0.80303955078125|0.34075927734375|290833.9545812917|-1.082194348481446|1.92875844742035|-0.8293846732363696|-0.5533972382545471|0.9009451270103455|-0.5068389177322388|-0.1318817138671875|-0.07568109035491943|-0.05002826452255249|XArbitraryZVertical|0.1905380652405434|0.7628903474771174|-0.5524473260547647|0.2765786002442461|0.6325227618217468|0.7375159859657288|0.2366128712892532|0|0|0|-1|-1|3
2021-03-10 21:05:51.486 +0000|290833.9945082917|0.6268463134765625|0.8688812255859375|0.3359375|290833.9745442917|-1.058246248967014|1.965237809179234|-0.8328700711180534|-0.7991200089454651|0.9637821912765503|-0.4070845544338226|-0.07199251651763916|0.03766173124313354|0.06856781244277954|XArbitraryZVertical|0.1903152265685851|0.7700958394797485|-0.5466444029238704|0.2681653275396521|0.6210955381393433|0.739865243434906|0.2585349678993225|0|0|0|-1|-1|3
2021-03-10 21:05:51.506 +0000|290834.0144722917|0.6530914306640625|1.043212890625|0.362762451171875|290833.9945082917|-1.031561892002038|2.003832243708072|-0.8324984021180577|-0.8569258451461792|0.899858295917511|-0.2679233849048615|0.003183186054229736|0.1071256995201111|0.04953235387802124|XArbitraryZVertical|0.1905792992654425|0.7777473025957045|-0.5393385071547337|0.2605817141138407|0.6109069585800171|0.7396152019500732|0.282422661781311|0|0|0|-1|-1|3
2021-03-10 21:05:51.527 +0000|290834.0344362917|0.6765899658203125|0.9934844970703125|0.3912353515625|290834.0344362917|-0.9950516376893239|2.059717829597458|-0.8272046742256484|-0.2896443903446198|0.5218759775161743|-0.08174756169319153|0.07330280542373657|0.2776909470558167|0.06752827763557434|XArbitraryZVertical|0.1927475252462392|0.788554408963704|-0.527793750874209|0.2499284634308523|0.597626268863678|0.7360420227050781|0.3179393410682678|0|0|0|-1|-1|3
2021-03-10 21:05:51.546 +0000|290834.0544002917|0.6748809814453125|0.988494873046875|0.3869476318359375||||||||||||||||||||||||3
2021-03-10 21:05:51.566 +0000|290834.0743642917|0.6646270751953125|0.8593902587890625|0.3688201904296875|290834.0544002917|-0.9902678869744365|2.071621419577665|-0.8267928678036441|-0.04138574004173279|0.327086865901947|-0.03054438345134258|0.08363896608352661|0.2523044347763062|0.06778368353843689|XArbitraryZVertical|0.1941136826808743|0.7905111114850756|-0.5259264810285514|0.2466036624947043|0.5940649509429932|0.7357631921768188|0.3251758813858032|0|0|0|-1|-1|3
2021-03-10 21:05:51.586 +0000|290834.0943282917|0.6428985595703125|0.8728790283203125|0.3860931396484375|290834.0743642917|-0.9911903750966354|2.076077776728997|-0.8272951955931562|0.07857859879732132|0.1884035468101501|0.02370988763868809|0.07266104221343994|0.1569325923919678|0.04305586218833923|XArbitraryZVertical|0.195505788973196|0.7909475533376054|-0.5257554334308722|0.2444599745293913|0.5922865271568298|0.7361032962799072|0.327641099691391|0|0|0|-1|-1|3
2021-03-10 21:05:51.606 +0000|290834.1142922917|0.625|0.832794189453125|0.36932373046875|290834.0943282917|-0.9943851058189332|2.076195412449832|-0.8270435554372554|0.1197086870670319|0.07053204625844955|0.09694380313158035|0.05675995349884033|0.1207717657089233|0.05472216010093689|XArbitraryZVertical|0.1968721272006056|0.7906589504261088|-0.5260586983484021|0.24364322589061|0.5924099683761597|0.7359328866004944|0.3278004229068756|0|0|0|-1|-1|3
2021-03-10 21:05:51.626 +0000|290834.1342552917|0.62646484375|0.774871826171875|0.3665771484375|290834.1142922917|-1.000860481896965|2.072364646156101|-0.8269816990243563|0.2516383230686188|0.02930758707225323|0.112011082470417|0.03190910816192627|0.1202032566070557|0.05047187209129333|XArbitraryZVertical|0.1984393248266693|0.7895549914317006|-0.5272074593687045|0.2434686962944476|0.5937012434005737|0.7358910441398621|0.3255504965782166|0|0|0|-1|-1|3
2021-03-10 21:05:51.646 +0000|290834.1542192917|0.6262969970703125|0.6791229248046875|0.3438568115234375|290834.1342552917|-1.009630019988574|2.066439297680167|-0.8278851492420282|0.3129114210605621|0.02684320695698261|0.08778225630521774|0.03089600801467896|0.04903525114059448|0.04318806529045105|XArbitraryZVertical|0.2000726071939083|0.7879252960793905|-0.5291317660307356|0.2432370622007627|0.5950348377227783|0.736502468585968|0.3217106461524963|0|0|0|-1|-1|3
2021-03-10 21:05:51.666 +0000|290834.1741832917|0.6194915771484375|0.624847412109375|0.33563232421875|290834.1542192917|-1.018709546842158|2.060217947247241|-0.8295251398548923|0.2556326687335968|0.02341028302907944|0.06734871864318848|0.03024750947952271|-0.02047830820083618|0.03766831755638123|XArbitraryZVertical|0.2015218278198923|0.7861972410855753|-0.5313404464421314|0.2428172939798042|0.5959579944610596|0.7376108169555664|0.3174343109130859|0|0|0|-1|-1|3
2021-03-10 21:05:51.686 +0000|290834.1941472917|0.60418701171875|0.6938018798828125|0.3218994140625|290834.1741832917|-1.02300882629888|2.057457838284229|-0.8299074643306944|0.0253680907189846|0.009633059613406658|0.04068088158965111|0.02516734600067139|-0.1292873620986938|0.01643598079681396|XArbitraryZVertical|0.2023661882269919|0.7854145858990383|-0.5322523504366443|0.2426507160457962|0.5965825915336609|0.7378689050674438|0.315656304359436|0|0|0|-1|-1|3
2021-03-10 21:05:51.706 +0000|290834.2141112917|0.5852203369140625|0.6783294677734375|0.3108978271484375|290834.1941472917|-1.023448454739944|2.057156468447558|-0.8297063812217023|0.03197003155946732|-0.006953107193112373|-0.006154622882604599|0.01181846857070923|-0.04480093717575073|0.01427295804023743|XArbitraryZVertical|0.2025169881631885|0.785340570990524|-0.5322777083061871|0.2427089611535009|0.5968089699745178|0.7377331852912903|0.3155458867549896|0|0|0|-1|-1|3
2021-03-10 21:05:51.726 +0000|290834.2340752917|0.5716552734375|0.6760406494140625|0.3097381591796875|290834.2141112917|-1.024907787399818|2.055779957344487|-0.8309317571314605|0.1109307110309601|-0.02041474729776382|-0.05448398366570473|-0.005515336990356445|-0.06392300128936768|-0.001680225133895874|XArbitraryZVertical|0.2023672698685894|0.7849832449217791|-0.5329500802643866|0.2425142559920948|0.5964425802230835|0.7385598421096802|0.3143024146556854|0|0|0|-1|-1|3
2021-03-10 21:05:51.746 +0000|290834.2540392917|0.562744140625|0.6604156494140625|0.3110504150390625|290834.2340752917|-1.02627932159129|2.054897412366237|-0.8328915930187917|0.119488462805748|-0.01883000694215298|-0.1006940901279449|-0.02248489856719971|-0.0547906756401062|-0.002783447504043579|XArbitraryZVertical|0.2021002107141271|0.7846695202834527|-0.5337737152507462|0.2419398288438538|0.5954371690750122|0.7398797273635864|0.3131015002727509|0|0|0|-1|-1|3
2021-03-10 21:05:51.766 +0000|290834.2740032917|0.554718017578125|0.721649169921875|0.308563232421875|290834.2540392917|-1.024881121630142|2.056408502789219|-0.8340403869100841|0.01771091856062412|-0.02853653579950333|-0.1428644508123398|-0.02724051475524902|-0.08011436462402344|-0.001531243324279785|XArbitraryZVertical|0.2016206798529285|0.7849529389207601|-0.5337851664637154|0.2413948082724261|0.5942113995552063|0.7406520843505859|0.3136040270328522|0|0|0|-1|-1|3
2021-03-10 21:05:51.786 +0000|290834.29396625|0.54852294921875|0.76727294921875|0.309814453125|290834.2740032917|-1.021291732919267|2.059084819338186|-0.8357414013361739|-0.02293001674115658|-0.03707143664360046|-0.1738051474094391|-0.03570723533630371|-0.0411408543586731|-0.001735478639602661|XArbitraryZVertical|0.2004312678891467|0.7855750340924714|-0.5335772008427158|0.2408205479274953|0.5922563076019287|0.7417939305305481|0.3146016597747803|0|0|0|-1|-1|3
2021-03-10 21:05:51.806 +0000|290834.31393025|0.54638671875|0.79168701171875|0.294830322265625|290834.29396625|-1.01839719701306|2.060744827223356|-0.8383399347431048|0.05233136191964149|-0.04500643163919449|-0.194004237651825|-0.03779977560043335|0.01728445291519165|-0.005319595336914062|XArbitraryZVertical|0.1989825614708104|0.7859669948154808|-0.5338188761954444|0.2402069118746182|0.5900307297706604|0.7435340881347656|0.3146763443946838|0|0|0|-1|-1|3
2021-03-10 21:05:51.826 +0000|290834.33389425|0.5648651123046875|0.74652099609375|0.287994384765625|290834.31393025|-1.01768269957382|2.060903154443805|-0.842121080620114|0.1249260827898979|-0.0159614086151123|-0.1832851022481918|-0.04423749446868896|0.03742069005966187|-0.0148296058177948|XArbitraryZVertical|0.1976463653142818|0.7859122088337356|-0.5348167590755617|0.2392678824026501|0.587496280670166|0.7460572123527527|0.3134441673755646|0|0|0|-1|-1|3
2021-03-10 21:05:51.846 +0000|290834.35385825|0.5715789794921875|0.83074951171875|0.286956787109375|290834.33389425|-1.01770692672397|2.061193929474741|-0.8452299856457248|0.07704658061265945|-0.001518660224974155|-0.1295962184667587|-0.02503782510757446|0.006469130516052246|-0.02794447541236877|XArbitraryZVertical|0.1968308527236131|0.7858231667550384|-0.5356936165278241|0.2382684572640098|0.585355818271637|0.7481237649917603|0.3125208616256714|0|0|0|-1|-1|3
2021-03-10 21:05:51.866 +0000|290834.37382225|0.5741119384765625|0.817657470703125|0.2860565185546875|290834.35385825|-1.016770202132135|2.062114687383869|-0.8470695878743089|0.02586658298969269|0.005338072776794434|-0.08068735897541046|-0.01346474885940552|0.06300431489944458|-0.02662813663482666|XArbitraryZVertical|0.1961750703912571|0.7859518724733443|-0.5360254622690197|0.2376379215390902|0.5838536024093628|0.7493431568145752|0.3124099969863892|0|0|0|-1|-1|3
2021-03-10 21:05:51.886 +0000|290834.39378625|0.579803466796875|0.8377685546875|0.2889251708984375|290834.37382225|-1.016657380720186|2.062539124480161|-0.8490307687083525|0.05108198896050453|0.01854287832975388|-0.04857922345399857|-0.007640957832336426|0.06720024347305298|-0.02543365955352783|XArbitraryZVertical|0.195674932871766|0.7859344468315608|-0.5365393857174782|0.2369470458731917|0.5824242830276489|0.7506403923034668|0.3119632601737976|0|0|0|-1|-1|3
2021-03-10 21:05:51.906 +0000|290834.41375025|0.5867767333984375|0.7965545654296875|0.300018310546875|290834.39378625|-1.019020162596626|2.061322285209726|-0.8513336886734706|0.1336855441331863|0.06029410660266876|-0.01859806478023529|-0.003945648670196533|0.08873677253723145|-0.02383336424827576|XArbitraryZVertical|0.1956070325979796|0.7854664268741505|-0.5376047160323246|0.2361391631814985|0.5812773108482361|0.7521599531173706|0.3104392290115356|0|0|0|-1|-1|3
