loggingTime(txt)|accelerometerTimestamp_sinceReboot(s)|accelerometerAccelerationX(G)|accelerometerAccelerationY(G)|accelerometerAccelerationZ(G)|motionTimestamp_sinceReboot(s)|motionYaw(rad)|motionRoll(rad)|motionPitch(rad)|motionRotationRateX(rad/s)|motionRotationRateY(rad/s)|motionRotationRateZ(rad/s)|motionUserAccelerationX(G)|motionUserAccelerationY(G)|motionUserAccelerationZ(G)|motionAttitudeReferenceFrame(txt)|motionQuaternionX(R)|motionQuaternionY(R)|motionQuaternionZ(R)|motionQuaternionW(R)|motionGravityX(G)|motionGravityY(G)|motionGravityZ(G)|motionMagneticFieldX(µT)|motionMagneticFieldY(µT)|motionMagneticFieldZ(µT)|motionHeading(°)|motionMagneticFieldCalibrationAccuracy(Z)|label
2021-04-08 20:23:58.196 +0100|20288.0456315|-0.0110626220703125|0.12786865234375|-0.9888458251953125|20288.0256715|0.4338830492367001|-0.01424072287366892|-0.1382757293600311|0.2536456286907196|-0.06433016061782837|-0.1604399085044861|-0.035883579403162|-0.04174980521202087|-0.02029573917388916|XArbitraryZVertical|-0.06593286904938701|-0.02180606101425217|0.2152045298349873|0.9740967086530935|-0.01410432066768408|0.1378355026245117|-0.9903547167778015|0|0|0|-1|-1|3
2021-04-08 20:23:58.207 +0100|20288.0655925|0.0635223388671875|0.112457275390625|-1.004486083984375|20288.0655925|0.4296779198355365|-0.01582252055565049|-0.1283688938070423|0.3262976109981537|-0.005520639475435019|-0.1475958377122879|0.05457096174359322|-0.02884864807128906|-0.01645439863204956|XArbitraryZVertical|-0.06098076996904186|-0.0213870539911175|0.2132402000380672|0.9748603441940139|-0.01569167897105217|0.1280166208744049|-0.9916478991508484|0|0|0|-1|-1|3
2021-04-08 20:23:58.208 +0100|20288.0855525|0.0176544189453125|0.1063690185546875|-0.97625732421875||||||||||||||||||||||||3
2021-04-08 20:23:58.210 +0100|20288.1055125|0.024993896484375|0.1185455322265625|-0.9591522216796875|20288.0855525|0.427477122063408|-0.01501788410356129|-0.1232363757313992|0.1645554006099701|0.03682612627744675|-0.08305910229682922|0.03191686421632767|-0.01667661219835281|0.01142346858978271|XArbitraryZVertical|-0.05858653003167306|-0.0203855702389631|0.2121581899337498|0.9752646648282722|-0.01490342803299427|0.1229246780276299|-0.9923040866851807|0|0|0|-1|-1|3
2021-04-08 20:23:58.229 +0100|20288.1254725|0.0362396240234375|0.131744384765625|-0.9553070068359375|20288.1055125|0.4264623475478838|-0.01453892353357363|-0.1208946416228134|0.03370134904980659|0.06396058946847916|-0.02033570967614651|0.04017376154661179|-0.007409557700157166|0.02985835075378418|XArbitraryZVertical|-0.05750525560663865|-0.01987545681148513|0.2116560988786005|0.975448615121592|-0.01443229708820581|0.1206003651022911|-0.9925962090492249|0|0|0|-1|-1|3
2021-04-08 20:23:58.249 +0100|20288.1454325|0.0314483642578125|0.117767333984375|-0.976226806640625|20288.1254725|0.4270172124042811|-0.01406904779290201|-0.1192126116463728|0.1213938072323799|-0.04051617160439491|0.06053676828742027|0.05306163802742958|0.007199816405773163|0.03400319814682007|XArbitraryZVertical|-0.05672903559671869|-0.01948472392365224|0.2119181208770203|0.9754450342693525|-0.01396873313933611|0.1189304441213608|-0.9928043484687805|0|0|0|-1|-1|3
2021-04-08 20:23:58.274 +0100|20288.1653925|0.0148773193359375|0.1389007568359375|-0.998321533203125|20288.1653925|0.4278767728940561|-0.01269289346826895|-0.1194277073076581|-0.1023290082812309|0.01793280616402626|-0.06250668317079544|0.02911204099655151|0.01403580605983734|-0.001816451549530029|XArbitraryZVertical|-0.05697166097309375|-0.01886073105323123|0.2122975471776473|0.9753606864302662|-0.01260214298963547|0.119144007563591|-0.9927970170974731|0|0|0|-1|-1|3
2021-04-08 20:23:58.288 +0100|20288.1853525|0.0075531005859375|0.1651458740234375|-1.005172729492188||||||||||||||||||||||||3
2021-04-08 20:23:58.308 +0100|20288.2053125|0.0059051513671875|0.1418304443359375|-0.993011474609375|20288.1853525|0.4268933073555826|-0.0116946023787681|-0.1198012644472663|0.02607700414955616|0.008754916489124298|-0.02541240490972996|0.01910246722400188|0.04390784353017807|-0.01175194978713989|XArbitraryZVertical|-0.05726887373307429|-0.01838524283428247|0.2117881377092333|0.9754630970349618|-0.01161051541566849|0.1195148974657059|-0.9927645325660706|0|0|0|-1|-1|3
2021-04-08 20:23:58.329 +0100|20288.2252725|0.0002288818359375|0.1519927978515625|-0.9927520751953125|20288.2053125|0.4270638191870206|-0.01054563187538318|-0.119547374423894|-0.005621720105409622|0.01102510094642639|0.01114809140563011|0.02086129412055016|0.0270242914557457|-0.006490409374237061|XArbitraryZVertical|-0.05726517086570299|-0.01780293325690679|0.2118393378214298|0.975462917398267|-0.01047017052769661|0.1192628219723701|-0.9928075075149536|0|0|0|-1|-1|3
2021-04-08 20:23:58.348 +0100|20288.2452325|0.0104217529296875|0.16571044921875|-0.99627685546875|20288.2252725|0.427500741733424|-0.008744435861697352|-0.1207795199566206|-0.1014389544725418|0.06980974972248077|0.02578606642782688|0.00395028293132782|0.02114710956811905|-0.002363681793212891|XArbitraryZVertical|-0.05805322185882791|-0.01706726494595323|0.2119955448340431|0.9753956205648834|-0.008680622093379498|0.1204860880970955|-0.9926770925521851|0|0|0|-1|-1|3
2021-04-08 20:23:58.368 +0100|20288.2651925|0.00830078125|0.17120361328125|-0.97967529296875|20288.2452325|0.4280370173654767|-0.00630686464321648|-0.1229789655975524|-0.1256508380174637|0.1070399433374405|0.01239809021353722|0.01452934369444847|0.04757420718669891|-0.001972019672393799|XArbitraryZVertical|-0.05937997243004545|-0.01612701591036395|0.2121753245488324|0.9752926794959611|-0.006259191315621138|0.1226692125201225|-0.9924278855323792|0|0|0|-1|-1|3
2021-04-08 20:23:58.388 +0100|20288.2851525|0.020751953125|0.151397705078125|-0.9768524169921875|20288.2651925|0.427783360344231|-0.003724660478850941|-0.1261602872042158|-0.09820260107517242|0.1353137195110321|-0.03400766849517822|0.0190147627145052|0.03759686648845673|0.003031909465789795|XArbitraryZVertical|-0.0612071894267496|-0.01519704456664723|0.2119566778615313|0.9752420787521708|-0.003695049555972219|0.1258258819580078|-0.9920454621315002|0|0|0|-1|-1|3
2021-04-08 20:23:58.408 +0100|20288.3051125|0.0401611328125|0.1237030029296875|-0.9700775146484375|20288.2851525|0.426883844994831|-0.0007197427310074947|-0.1282994550182426|-0.08077932149171829|0.1364646703004837|-0.05626779049634933|0.009350188076496124|0.0366956889629364|0.01166301965713501|XArbitraryZVertical|-0.06257494671703143|-0.01393017441132307|0.2114117870441745|0.9752925144963661|-0.0007138270302675664|0.1279477626085281|-0.9917806386947632|0|0|0|-1|-1|3
2021-04-08 20:23:58.429 +0100|20288.3250725|0.02130126953125|0.1332550048828125|-0.9610137939453125|20288.3051125|0.425695905320119|0.001216761693939443|-0.130670006296255|-0.1119611784815788|0.06997448951005936|-0.06864003837108612|0.04131974279880524|-0.01231639087200165|0.0178871750831604|XArbitraryZVertical|-0.06394340891475903|-0.01319845069845308|0.2107548548980526|0.9753561248790555|0.001206388231366873|0.1302984654903412|-0.9914740920066833|0|0|0|-1|-1|3
2021-04-08 20:23:58.448 +0100|20288.3450325|0.0406951904296875|0.12982177734375|-0.9716796875|20288.3250725|0.4240047109056027|0.002573514465022412|-0.1336672727477604|-0.1205340623855591|0.0816732794046402|-0.08543064445257187|0.01514952257275581|0.0008562803268432617|0.03308415412902832|XArbitraryZVertical|-0.06555879929174641|-0.01279736910123502|0.2098638856995726|0.9754463232390056|0.002550555393099785|0.1332695931196213|-0.9910765290260315|0|0|0|-1|-1|3
2021-04-08 20:23:58.469 +0100|20288.3649925|0.030548095703125|0.1307220458984375|-0.969635009765625|20288.3450325|0.422549016295852|0.003797460787856781|-0.1366762132126295|-0.1281070411205292|0.03716631606221199|-0.07383497059345245|0.03781804442405701|-0.006580784916877747|0.01901817321777344|XArbitraryZVertical|-0.06716369044383039|-0.01246756694721914|0.2090895771832433|0.9755077898927322|0.003762037958949804|0.1362510770559311|-0.9906672239303589|0|0|0|-1|-1|3
2021-04-08 20:23:58.488 +0100|20288.3849525|0.0356903076171875|0.105743408203125|-0.956878662109375|20288.3649925|0.4207303520907568|0.004080491857767691|-0.1401267994040544|-0.1563512235879898|0.01585607603192329|-0.1205718517303467|0.02830802649259567|-0.009876295924186707|0.01681679487228394|XArbitraryZVertical|-0.06888763238880909|-0.0126280591763099|0.2081645885858833|0.975583266351287|0.00404048478230834|0.1396686732769012|-0.9901900291442871|0|0|0|-1|-1|3
2021-04-08 20:23:58.508 +0100|20288.4049125|0.014190673828125|0.10675048828125|-0.921295166015625|20288.3849525|0.4179908286332245|0.004293450753669164|-0.1433128934932714|-0.1637707948684692|-0.02283422276377678|-0.1690985560417175|0.03044894151389599|-0.02677863836288452|0.03124326467514038|XArbitraryZVertical|-0.07048130885296194|-0.01275970793449792|0.206794012492639|0.9757591257049052|0.00424942234531045|0.1428228169679642|-0.9897391796112061|0|0|0|-1|-1|3
2021-04-08 20:23:58.528 +0100|20288.424872|-0.0142364501953125|0.115966796875|-0.886810302734375|20288.4049125|0.4133758699170647|0.003453058395147193|-0.1469816127750694|-0.2033625096082687|-0.03861680626869202|-0.3217788338661194|0.01533710397779942|-0.03825177252292633|0.05706775188446045|XArbitraryZVertical|-0.07221515089905794|-0.01338292778750286|0.2045411419382372|0.9760987954491321|0.003415819490328431|0.1464529633522034|-0.9892117381095886|0|0|0|-1|-1|3
2021-04-08 20:23:58.548 +0100|20288.444832|-0.3665618896484375|-0.0934295654296875|-0.6800537109375|20288.424872|0.4052085141071968|0.001494471564675494|-0.1504701417016409|-0.1288818418979645|-0.1027754470705986|-0.5040775537490845|-0.0009589232504367828|-0.0300440788269043|0.09326827526092529|XArbitraryZVertical|-0.07377660849705051|-0.01439471072367974|0.200596698382675|0.9767859929022579|0.001477584592066705|0.1499029844999313|-0.9886996150016785|0|0|0|-1|-1|3
2021-04-08 20:23:58.568 +0100|20288.464792|-0.0838470458984375|0.0639190673828125|-0.808563232421875|20288.444832|0.3823399882633803|0.002871533868685295|-0.1600725289474828|-0.9525816440582275|0.8217008113861084|-1.618301510810852|-0.3347288966178894|-0.1126968115568161|0.2789903879165649|XArbitraryZVertical|-0.07876619764148396|-0.01378616190673358|0.1892865569850211|0.9786605366551639|0.002834819490090013|0.1593898087739944|-0.9872116446495056|0|0|0|-1|-1|3
2021-04-08 20:23:58.588 +0100|20288.484752|-0.226776123046875|-0.0185394287109375|-0.7405548095703125|20288.464792|0.3651302270739877|0.006054238033781776|-0.1762402245524639|-0.810286283493042|0.01691382937133312|-0.9002067446708679|-0.02450003102421761|-0.1841019839048386|0.1138407588005066|XArbitraryZVertical|-0.08709060331871021|-0.01301240898334539|0.1805853965172971|0.9796096067476417|0.005960420705378056|0.1753292828798294|-0.9844918251037598|0|0|0|-1|-1|3
2021-04-08 20:23:58.608 +0100|20288.504712|-0.28564453125|0.0934906005859375|-0.6933746337890625|20288.484752|0.3373664075943921|0.003048516536135767|-0.1977590122910635|-1.406260013580322|0.1910907924175262|-1.619841814041138|-0.1939683109521866|-0.2093956172466278|0.2422847747802734|XArbitraryZVertical|-0.09757184413342919|-0.01507798066931111|0.1669157957919309|0.9810156404902638|0.002989094238728285|0.1964725106954575|-0.9805047512054443|0|0|0|-1|-1|3
2021-04-08 20:23:58.628 +0100|20288.524672|-0.2669219970703125|0.267425537109375|-0.652313232421875|20288.504712|0.3024636887537355|0.001427444868695878|-0.2325321817639307|-2.026938438415527|0.405549019575119|-1.849643111228943|-0.2858741283416748|-0.1795989274978638|0.2708300352096558|XArbitraryZVertical|-0.1147870452016588|-0.01677593158188483|0.1495570132615091|0.9819242818761358|0.001389026176184416|0.2304422855377197|-0.9730849862098694|0|0|0|-1|-1|3
2021-04-08 20:23:58.648 +0100|20288.544632|-0.3016357421875|0.4292755126953125|-0.6419219970703125|20288.524672|0.2600135359092277|0.0006196372297118842|-0.2759527509143835|-2.251331567764282|0.5420878529548645|-2.247984647750854|-0.2717451751232147|-0.05008110404014587|0.3012317419052124|XArbitraryZVertical|-0.1364180735673574|-0.01752638112898304|0.1283665159704681|0.982143190725102|0.0005961938877590001|0.2724637687206268|-0.962165892124176|0|0|0|-1|-1|3
2021-04-08 20:23:58.668 +0100|20288.564592|-0.3041229248046875|0.5012359619140625|-0.654327392578125|20288.544632|0.209686051223141|-0.002353159104690099|-0.3213021855394835|-2.291224241256714|0.6511978507041931|-2.565933704376221|-0.2925979495048523|0.08570319414138794|0.3081977367401123|XArbitraryZVertical|-0.1589609398593891|-0.01789511931654005|0.103490597532078|0.981682736943708|-0.002232734113931656|0.3158023655414581|-0.9488223791122437|0|0|0|-1|-1|3
2021-04-08 20:23:58.688 +0100|20288.584552|-0.2970428466796875|0.58154296875|-0.66351318359375|20288.564592|0.1517655282453802|-0.007764428361848763|-0.367556983504325|-2.389501094818115|0.7781428098678589|-2.867260456085205|-0.2962977588176727|0.1236355602741241|0.2828201651573181|XArbitraryZVertical|-0.1819291104765388|-0.01765968639549452|0.07524018780985645|0.980269806327436|-0.007245753891766071|0.3593366742134094|-0.9331798553466797|0|0|0|-1|-1|3
2021-04-08 20:23:58.708 +0100|20288.604512|-0.29296875|0.64825439453125|-0.657470703125|20288.584552|0.08630192931561394|-0.0153841792628094|-0.4152575730559596|-2.426983833312988|0.9564934968948364|-3.132371664047241|-0.2847371697425842|0.1537347733974457|0.2559385299682617|XArbitraryZVertical|-0.2056175020579599|-0.01641192267408789|0.04379398864140386|0.9775144021835217|-0.01407616026699543|0.4034256339073181|-0.9149041771888733|0|0|0|-1|-1|3
2021-04-08 20:23:58.728 +0100|20288.624472|-0.306396484375|0.664031982421875|-0.6626739501953125|20288.604512|0.01311188076576104|-0.02635916542024067|-0.4613096451342112|-2.296394824981689|1.068842649459839|-3.41291356086731|-0.2683000564575195|0.1949553787708282|0.2415342330932617|XArbitraryZVertical|-0.2285061479970253|-0.01432854325641295|0.009394616127262705|0.9733917845808918|-0.0236011166125536|0.4451212286949158|-0.8951592445373535|0|0|0|-1|-1|3
2021-04-08 20:23:58.748 +0100|20288.644433|-0.35394287109375|0.6414031982421875|-0.669036865234375|20288.624472|-0.06803462232742255|-0.04169954045624583|-0.5044646543766264|-2.338232755661011|1.165335655212402|-3.649091720581055|-0.2656910717487335|0.1824029982089996|0.2149896621704102|XArbitraryZVertical|-0.2500542796884512|-0.01169080258730841|-0.02772740087894295|0.9677642029088018|-0.03649459034204483|0.483338862657547|-0.8746723532676697|0|0|0|-1|-1|3
2021-04-08 20:23:58.779 +0100|20288.664393|-0.36883544921875|0.69805908203125|-0.6431884765625|20288.644433|-0.1587228743257815|-0.06252625851174994|-0.5517268748926243|-2.831993579864502|1.378534317016602|-3.910402536392212|-0.2813356518745422|0.1159941554069519|0.1839566230773926|XArbitraryZVertical|-0.2737722099058928|-0.008398460943045952|-0.06775620188425881|0.9593682789253321|-0.05321396514773369|0.5241586565971375|-0.8499565124511719|0|0|0|-1|-1|3
2021-04-08 20:23:58.792 +0100|20288.684353|-0.32550048828125|0.7397613525390625|-0.6143798828125|20288.664393|-0.2577008262966783|-0.08605380572361361|-0.6064193113180386|-3.210482835769653|1.665055871009827|-3.946386814117432|-0.3048511147499084|0.1091641783714294|0.1674089431762695|XArbitraryZVertical|-0.3011106065468793|-0.002380252152057263|-0.1097824028090018|0.9472457906356768|-0.07062266021966934|0.5699288845062256|-0.8186534643173218|0|0|0|-1|-1|3
2021-04-08 20:23:58.808 +0100|20288.704313|-0.327545166015625|0.7811279296875|-0.5714111328125|20288.684353|-0.3640105466218736|-0.114153846321204|-0.663844242779045|-3.337524175643921|1.8169264793396|-4.007181167602539|-0.2442694008350372|0.1181653141975403|0.1655909419059753|XArbitraryZVertical|-0.3297184440808745|0.005844007925206719|-0.1525619183993202|0.9316525977794363|-0.08971578627824783|0.6161492466926575|-0.7825031876564026|0|0|0|-1|-1|3
2021-04-08 20:23:58.828 +0100|20288.724273|-0.353668212890625|0.8085174560546875|-0.5540924072265625|20288.704313|-0.4781335551669266|-0.1502245406345852|-0.7198969466506244|-3.411901950836182|1.873984575271606|-3.985540628433228|-0.2089627683162689|0.1099651455879211|0.1540661454200745|XArbitraryZVertical|-0.3578743744311147|0.01493538856335133|-0.1953161838243663|0.9129920900516169|-0.1125255301594734|0.6593071818351746|-0.7434057593345642|0|0|0|-1|-1|3
2021-04-08 20:23:58.848 +0100|20288.744233|-0.322540283203125|0.8284149169921875|-0.5464019775390625|20288.724273|-0.6015712872103459|-0.1954250005881523|-0.7756157615861876|-3.676287889480591|1.99349582195282|-3.975930452346802|-0.2178164422512054|0.1047762036323547|0.1378389596939087|XArbitraryZVertical|-0.3862161740339022|0.02524540568080296|-0.237725509649179|0.8908908379520769|-0.1386450678110123|0.7001558542251587|-0.7003994584083557|0|0|0|-1|-1|3
2021-04-08 20:23:58.868 +0100|20288.764193|-0.241943359375|0.915069580078125|-0.5130767822265625|20288.744233|-0.7379627395587803|-0.2525859153121298|-0.8349951992029703|-4.252795696258545|2.165676355361938|-3.926629066467285|-0.1633216440677643|0.07496070861816406|0.1107308864593506|XArbitraryZVertical|-0.4166983859004724|0.03768666470335517|-0.2794258535799332|0.8642126499579598|-0.1677340269088745|0.7412933111190796|-0.6498843431472778|0|0|0|-1|-1|3
2021-04-08 20:23:58.888 +0100|20288.784153|-0.1686553955078125|1.056716918945312|-0.497039794921875|20288.764193|-0.8930949801695867|-0.326742728925027|-0.9010634983451555|-4.933939456939697|2.270198822021484|-3.798061847686768|-0.06366559863090515|0.1062104105949402|0.07517731189727783|XArbitraryZVertical|-0.4507468957041974|0.05348536476798092|-0.3197069021171015|0.8317176161183992|-0.199244350194931|0.7839875221252441|-0.5879331231117249|0|0|0|-1|-1|3
2021-04-08 20:23:58.908 +0100|20288.804113|-0.0863494873046875|1.268112182617188|-0.4630584716796875|20288.784153|-1.069714011675116|-0.4232955185849786|-0.9689482486563714|-5.163724899291992|2.276210784912109|-3.449654817581177|0.04077406227588654|0.1868482232093811|-0.004020333290100098|XArbitraryZVertical|-0.4865115966496547|0.07216616157137135|-0.3568196447762845|0.7942154922087294|-0.2325628250837326|0.8242906928062439|-0.5161970257759094|0|0|0|-1|-1|3
2021-04-08 20:23:58.927 +0100|20288.824073|-0.0072784423828125|1.398269653320312|-0.474853515625|20288.804113|-1.262595129456071|-0.5409995949642028|-1.030132233636307|-5.052740573883057|2.151649475097656|-2.986477136611938|0.1507957279682159|0.3642668724060059|-0.03099524974822998|XArbitraryZVertical|-0.5204379423963766|0.09242811082135417|-0.3886870392028714|0.7546681137193717|-0.2650698721408844|0.8573670387268066|-0.4412027895450592|0|0|0|-1|-1|3
2021-04-08 20:23:58.947 +0100|20288.844033|-0.0084381103515625|1.537124633789062|-0.4524078369140625|20288.824073|-1.468114215167267|-0.6796615910464842|-1.078917326486672|-4.642599582672119|1.834240555763245|-2.518998622894287|0.279844731092453|0.4907452464103699|-0.1011094152927399|XArbitraryZVertical|-0.5511526902947766|0.1120857857650805|-0.4147599035865899|0.7152914517434441|-0.2968440651893616|0.8814470171928406|-0.3673349916934967|0|0|0|-1|-1|3
2021-04-08 20:23:58.967 +0100|20288.863993|-0.0140838623046875|1.592880249023438|-0.485748291015625|20288.844033|-1.664081354355593|-0.8208990389822436|-1.111162636519422|-3.786191940307617|1.499353408813477|-1.871626138687134|0.3219667077064514|0.6031895875930786|-0.152631014585495|XArbitraryZVertical|-0.5762903662528798|0.1292742614164447|-0.4342245541852766|0.6801666215142473|-0.32462278008461|0.8962150812149048|-0.302355170249939|0|0|0|-1|-1|3
2021-04-08 20:23:58.987 +0100|20288.883953|-0.041748046875|1.46722412109375|-0.513946533203125|20288.863993|-1.826098935591979|-0.93978926634627|-1.128390547116519|-2.765271663665771|1.188474297523499|-1.319085836410522|0.3309183120727539|0.6939164400100708|-0.2196586728096008|XArbitraryZVertical|-0.5942651186310393|0.143401350109995|-0.4482261777301721|0.6522104588217352|-0.3456746339797974|0.9037243127822876|-0.2525700330734253|0|0|0|-1|-1|3
2021-04-08 20:23:59.007 +0100|20288.903913|-0.07330322265625|1.35498046875|-0.496337890625|20288.883953|-1.946364935784045|-1.028575021067133|-1.137357677680356|-2.069638967514038|0.8467342853546143|-0.7912742495536804|0.3343909978866577|0.6015670895576477|-0.300523579120636|XArbitraryZVertical|-0.6064671048147847|0.154372066963597|-0.4574111503528058|0.6317769674530302|-0.3597522079944611|0.9075269103050232|-0.2167338281869888|0|0|0|-1|-1|3
2021-04-08 20:23:59.027 +0100|20288.923873|-0.0586395263671875|1.24835205078125|-0.5090484619140625|20288.903913|-2.039053669454236|-1.096988692592344|-1.144375973942837|-1.68136727809906|0.7543654441833496|-0.4746292531490326|0.3032751083374023|0.4688352942466736|-0.2982761263847351|XArbitraryZVertical|-0.6154201382034162|0.1640014738966865|-0.4632459474615506|0.6162506633927953|-0.3680497407913208|0.9104521870613098|-0.1887231469154358|0|0|0|-1|-1|3
2021-04-08 20:23:59.047 +0100|20288.943833|-0.014495849609375|1.0570068359375|-0.4929046630859375|20288.923873|-2.11074237327716|-1.147721143305988|-1.150986723334337|-1.31635582447052|0.6904569268226624|-0.2066447734832764|0.3067231178283691|0.3653976321220398|-0.3392957448959351|XArbitraryZVertical|-0.6215552365052436|0.1732002317987321|-0.4673727323018038|0.6043456676697185|-0.3716503083705902|0.9131665825843811|-0.1673415303230286|0|0|0|-1|-1|3
2021-04-08 20:23:59.067 +0100|20288.963793|0.0271148681640625|0.91717529296875|-0.4601898193359375|20288.943833|-2.170414320431592|-1.190225892286739|-1.159409898471865|-1.287428498268127|0.5294134616851807|0.02139273844659328|0.3449325859546661|0.1887332797050476|-0.3524101376533508|XArbitraryZVertical|-0.6265069433426802|0.1822668097322055|-0.4693834439936262|0.594934549776398|-0.3712703287601471|0.916567325592041|-0.1485357135534286|0|0|0|-1|-1|3
2021-04-08 20:23:59.087 +0100|20288.983753|0.0949859619140625|0.871063232421875|-0.4217681884765625|20288.963793|-2.233653263308985|-1.238752607765824|-1.170761684736375|-1.448694705963135|0.4352737963199615|0.1631371825933456|0.3820777237415314|0.01982438564300537|-0.3403944969177246|XArbitraryZVertical|-0.6321505568812948|0.1921196052587084|-0.46926972037076|0.5858854890333662|-0.3681780397891998|0.9210475087165833|-0.1269514560699463|0|0|0|-1|-1|3
2021-04-08 20:23:59.107 +0100|20289.003713|0.1480712890625|0.8575897216796875|-0.3747711181640625|20288.983753|-2.306383435435392|-1.298852266691976|-1.183883646066764|-1.596689939498901|0.2404032647609711|0.2610580623149872|0.4439233541488647|-0.0495375394821167|-0.3196673393249512|XArbitraryZVertical|-0.6389445538740525|0.2026656412661721|-0.4672782194386458|0.5764787638160777|-0.3634648621082306|0.9260784387588501|-0.1013529896736145|0|0|0|-1|-1|3
2021-04-08 20:23:59.127 +0100|20289.023673|0.1809234619140625|0.8765411376953125|-0.351226806640625|20289.003713|-2.38765727789771|-1.372097833222858|-1.197005995052917|-1.629616737365723|-0.01299618557095528|0.2973667085170746|0.4947412610054016|-0.06937801837921143|-0.314045786857605|XArbitraryZVertical|-0.6470941893190942|0.2126740778646759|-0.4629961102162607|0.5671627714923051|-0.3579625487327576|0.9309499859809875|-0.07207769155502319|0|0|0|-1|-1|3
2021-04-08 20:23:59.147 +0100|20289.043633|0.18780517578125|0.882049560546875|-0.3412933349609375|20289.023673|-2.476298328170011|-1.457761494001963|-1.208324905890726|-1.715833187103271|-0.2891726791858673|0.3169077336788177|0.5270659923553467|-0.06089353561401367|-0.3229042887687683|XArbitraryZVertical|-0.6564542541907576|0.2215178618882986|-0.4566733418159699|0.5580744882610325|-0.3523233830928802|0.9350233674049377|-0.03999529778957367|0|0|0|-1|-1|3
2021-04-08 20:23:59.167 +0100|20289.063593|0.1762237548828125|0.9644622802734375|-0.2608489990234375|20289.043633|-2.571164980399296|-1.555180261124104|-1.217071714337868|-1.586730241775513|-0.5440600514411926|0.3524644076824188|0.5348738431930542|-0.06449306011199951|-0.346366822719574|XArbitraryZVertical|-0.6669888619590564|0.2289569959103273|-0.4482198187388424|0.5493666790496844|-0.3463525772094727|0.9380890130996704|-0.005409104283899069|0|0|0|-1|-1|3
2021-04-08 20:23:59.189 +0100|20289.083553|0.1275177001953125|0.9810791015625|-0.21258544921875|20289.063593|-2.656213104193351|-1.648146123513172|-1.224514247476301|-1.338897824287415|-0.7554424405097961|0.471140444278717|0.521156907081604|0.004396378993988037|-0.304012656211853|XArbitraryZVertical|-0.6768149160875012|0.2345950998118166|-0.4382033854631944|0.5430142960441836|-0.3383881747722626|0.9406411051750183|0.02622658386826515|0|0|0|-1|-1|3
2021-04-08 20:23:59.207 +0100|20289.103513|0.0392608642578125|0.97833251953125|-0.1103363037109375|20289.083553|-2.725681901968505|-1.730971545325952|-1.232000635893166|-0.8674416542053223|-0.9834983944892883|0.5628972053527832|0.4718493223190308|0.03683978319168091|-0.2875498533248901|XArbitraryZVertical|-0.6854010960841649|0.2381783273273311|-0.4268892992920822|0.5396869431720703|-0.3280973136425018|0.9431555867195129|0.05300715565681458|0|0|0|-1|-1|3
2021-04-08 20:23:59.227 +0100|20289.123474|-0.0373687744140625|0.9308624267578125|-0.02496337890625|20289.103513|-2.773192176203725|-1.797159284283631|-1.241179149928119|-0.506619393825531|-1.12636923789978|0.6135578751564026|0.3769769668579102|0.0383915901184082|-0.2062206268310547|XArbitraryZVertical|-0.6921036065593628|0.239406119131515|-0.4146982656082284|0.5400952353988772|-0.3154241144657135|0.9461663365364075|0.07264538109302521|0|0|0|-1|-1|3
2021-04-08 20:23:59.247 +0100|20289.143434|-0.086883544921875|0.8652801513671875|0.0250244140625|20289.123474|-2.804965361136333|-1.850079773059334|-1.251374629095736|-0.2324400693178177|-1.168012380599976|0.6237365007400513|0.2820895314216614|-0.004379630088806152|-0.1318368911743164|XArbitraryZVertical|-0.6972444452743891|0.2390237654967646|-0.4025504884966545|0.5428360970921967|-0.3018507361412048|0.9494171738624573|0.08656435459852219|0|0|0|-1|-1|3
2021-04-08 20:23:59.283 +0100|20289.163394|-0.10284423828125|0.839874267578125|0.064178466796875|20289.143434|-2.824342787662797|-1.892071159295825|-1.263093784971778|-0.004617026075720787|-1.192099094390869|0.6762934327125549|0.2106206119060516|-0.07214230298995972|-0.08269954472780228|XArbitraryZVertical|-0.700982230507145|0.2375784937476114|-0.3905149699148559|0.5474289969799663|-0.2873733937740326|0.9530318975448608|0.09563925862312317|0|0|0|-1|-1|3
2021-04-08 20:23:59.297 +0100|20289.183354|-0.1524200439453125|0.8065032958984375|0.08441162109375|20289.183354|-2.844729983274238|-1.959931027554004|-1.288846308328101|-0.03276310861110687|-1.323192238807678|0.5090349316596985|0.1262932121753693|-0.1344804763793945|-0.02935411781072617|XArbitraryZVertical|-0.7061116071153306|0.232776354359035|-0.3666552379984874|0.5592723343015754|-0.2574282884597778|0.9605147242546082|0.1055568680167198|0|0|0|-1|-1|3
2021-04-08 20:23:59.307 +0100|20289.203314|-0.263031005859375|0.7393951416015625|0.1116790771484375||||||||||||||||||||||||3
2021-04-08 20:23:59.332 +0100|20289.223274|-0.354705810546875|0.8678741455078125|0.2610015869140625|20289.203314|-2.86429398086626|-2.005498747252605|-1.29413528043497|-0.2347960621118546|-1.274293422698975|0.1993527859449387|0.01545614004135132|-0.2173289060592651|-0.02540220320224762|XArbitraryZVertical|-0.7109239446879466|0.2282618548120652|-0.3548839994832204|0.5626198583759398|-0.2477417588233948|0.9619728326797485|0.1150326579809189|0|0|0|-1|-1|3
2021-04-08 20:23:59.346 +0100|20289.243234|-0.4828948974609375|1.041839599609375|0.363067626953125|20289.223274|-2.89187058303769|-2.057161770981691|-1.292968257127361|-0.4911909699440002|-1.304452776908875|0.06094440817832947|-0.0911862850189209|-0.1429280042648315|0.09537482261657715|XArbitraryZVertical|-0.7171076554007446|0.2232829789158367|-0.344437288218238|0.5632623098225008|-0.2424634546041489|0.9616534113883972|0.1281973570585251|0|0|0|-1|-1|3
2021-04-08 20:23:59.366 +0100|20289.263194|-0.61810302734375|1.025177001953125|0.3917694091796875|20289.243234|-2.923733302950622|-2.115190607446089|-1.289382897762012|-0.4272862672805786|-1.393097400665283|0.07891035825014114|-0.2100950479507446|0.04856753349304199|0.1998915672302246|XArbitraryZVertical|-0.7242682725614458|0.2175997068487087|-0.3331823534771868|0.563094598623095|-0.2375683784484863|0.9606638550758362|0.1438283324241638|0|0|0|-1|-1|3
2021-04-08 20:23:59.386 +0100|20289.283154|-0.5946502685546875|0.7880401611328125|0.371551513671875|20289.263194|-2.946076868509751|-2.161057928937915|-1.286163256292072|-0.3241348564624786|-0.999205470085144|-0.06675602495670319|-0.3612828850746155|0.104428768157959|0.2305354923009872|XArbitraryZVertical|-0.7301758245847069|0.212104913161009|-0.3233747019603067|0.5632794178898952|-0.2332921177148819|0.9597647786140442|0.1562904566526413|0|0|0|-1|-1|3
2021-04-08 20:23:59.406 +0100|20289.303114|-0.5213470458984375|0.8367919921875|0.4241485595703125|20289.283154|-2.968036456270855|-2.196937051114209|-1.277631540687666|-0.7368196249008179|-0.5184984803199768|-0.2457968890666962|-0.3827824294567108|-0.1217783689498901|0.2111123651266098|XArbitraryZVertical|-0.7357254208709717|0.2082869678135732|-0.3178508623243886|0.5606206422342686|-0.2341619729995728|0.9573341012001038|0.1693507134914398|0|0|0|-1|-1|3
2021-04-08 20:23:59.426 +0100|20289.323074|-0.512237548828125|1.023452758789062|0.456939697265625|20289.303114|-3.011767730265051|-2.248523680817758|-1.259926658135376|-1.393193960189819|-0.4952653050422668|-0.3627893030643463|-0.2928735017776489|-0.1585500836372375|0.2242326587438583|XArbitraryZVertical|-0.7437867355953789|0.2065928821205943|-0.3137479782972416|0.5528679608660777|-0.2382860034704208|0.9520679116249084|0.1917986571788788|0|0|0|-1|-1|3
2021-04-08 20:23:59.447 +0100|20289.343034|-0.492706298828125|1.039154052734375|0.4633636474609375|20289.323074|-3.066019884588876|-2.309865030296408|-1.235967060799294|-1.452416300773621|-0.4971185028553009|-0.3132739365100861|-0.269334465265274|0.03884035348892212|0.2155697643756866|XArbitraryZVertical|-0.7538902991673206|0.2057301536377352|-0.3090064305675574|0.5420699457041396|-0.2428736388683319|0.9444664120674133|0.2213509529829025|0|0|0|-1|-1|3
2021-04-08 20:23:59.466 +0100|20289.362994|-0.4532470703125|1.065032958984375|0.5524749755859375|20289.343034|-3.109324143116645|-2.358422982122801|-1.215915933846126|-0.8501102328300476|-0.3047155141830444|-0.07522141933441162|-0.2618634402751923|0.1043040752410889|0.2103069126605988|XArbitraryZVertical|-0.762103280175113|0.2057291653556584|-0.304709292580159|0.5329414664814526|-0.2451566904783249|0.9376880526542664|0.2462517917156219|0|0|0|-1|-1|3
2021-04-08 20:23:59.487 +0100|20289.382954|-0.466278076171875|1.062652587890625|0.5568695068359375|20289.362994|-3.136306835488507|-2.38977330119218|-1.208965481586563|-0.3720490038394928|-0.2844003140926361|0.2218995541334152|-0.211577296257019|0.126349151134491|0.283225029706955|XArbitraryZVertical|-0.7658924836376828|0.2066236119456022|-0.3006658416692244|0.5294483160649897|-0.2417623698711395|0.9352502822875977|0.2585692405700684|0|0|0|-1|-1|3
2021-04-08 20:23:59.506 +0100|20289.402914|-0.4831085205078125|1.066680908203125|0.6024322509765625|20289.382954|3.127838504365295|-2.412195800325391|-1.209708691030803|-0.08494556695222855|-0.1841306537389755|0.3173622488975525|-0.2283657640218735|0.1257965564727783|0.279928594827652|XArbitraryZVertical|-0.7670719101433977|0.2080964069746661|-0.2970361029325499|0.5292129863434398|-0.2354414612054825|0.9355131387710571|0.2634068727493286|0|0|0|-1|-1|3
2021-04-08 20:23:59.526 +0100|20289.422874|-0.5185394287109375|1.082977294921875|0.6142425537109375|20289.402914|3.112714983127211|-2.43018472982064|-1.213380133799126|0.002108803950250149|-0.2314939647912979|0.3259748220443726|-0.2498364448547363|0.1270843744277954|0.3241162002086639|XArbitraryZVertical|-0.7671655805096034|0.2096538759050587|-0.2937884941299181|0.5302741252582401|-0.2284207940101624|0.936803936958313|0.2649955451488495|0|0|0|-1|-1|3
2021-04-08 20:23:59.546 +0100|20289.442832375|-0.4793701171875|0.98760986328125|0.5194854736328125|20289.422874|3.098902059640008|-2.447364472975869|-1.218435672727119|0.08800357580184937|-0.137324258685112|0.3688281178474426|-0.290948212146759|0.1447980999946594|0.3539188206195831|XArbitraryZVertical|-0.7668536986496782|0.2110786427801835|-0.2904063740448886|0.5320202979666381|-0.2208021581172943|0.9385606050491333|0.26523756980896|0|0|0|-1|-1|3
2021-04-08 20:23:59.566 +0100|20289.462792375|-0.4005889892578125|0.8542327880859375|0.382171630859375|20289.442832375|3.084588088476867|-2.461820006979698|-1.225287488227509|0.0816509947180748|0.01041108183562756|0.4427138864994049|-0.2822211980819702|0.08706581592559814|0.2858624160289764|XArbitraryZVertical|-0.7655509702952381|0.2136080215103104|-0.2880876236863272|0.5341431337493054|-0.212897002696991|0.9409032464027405|0.2633933424949646|0|0|0|-1|-1|3
2021-04-08 20:23:59.586 +0100|20289.482752375|-0.2924346923828125|0.8359375|0.30816650390625|20289.462792375|3.063322810172219|-2.479810678392254|-1.231242767253457|-0.08607032150030136|0.182701513171196|0.4774742722511292|-0.2196094989776611|-0.07097065448760986|0.1508035659790039|XArbitraryZVertical|-0.7641956401022398|0.2176763187402568|-0.2864063933518647|0.5353443752031056|-0.2046774476766586|0.942903459072113|0.2627559006214142|0|0|0|-1|-1|3
2021-04-08 20:23:59.606 +0100|20289.502712375|-0.2192840576171875|0.90008544921875|0.301849365234375|20289.482752375|3.032951832389251|-2.504221107442575|-1.23428368617042|-0.2577293515205383|0.2295176535844803|0.5329708456993103|-0.1235122233629227|-0.1165041327476501|0.05070295929908752|XArbitraryZVertical|-0.7634853767228631|0.2231012652848481|-0.2849841781136288|0.5348833672723776|-0.1964961886405945|0.9439119100570679|0.2653681933879852|0|0|0|-1|-1|3
2021-04-08 20:23:59.626 +0100|20289.522672375|-0.168182373046875|0.957855224609375|0.3087005615234375|20289.502712375|2.994549248204617|-2.536425933466019|-1.235835125254165|-0.3043224215507507|0.175923615694046|0.5891414880752563|-0.04491856694221497|-0.05271482467651367|0.03325200080871582|XArbitraryZVertical|-0.7632743770783631|0.2293218950076312|-0.2828517584414227|0.5336841420469746|-0.1870160847902298|0.9444230794906616|0.2703526020050049|0|0|0|-1|-1|3
2021-04-08 20:23:59.646 +0100|20289.542633375|-0.117919921875|0.9074554443359375|0.303802490234375|20289.522672375|2.953935681844408|-2.571362566538244|-1.238963374788547|-0.1818064749240875|0.1655541658401489|0.6840661764144897|-0.004817202687263489|-0.001660168170928955|0.03471305966377258|XArbitraryZVertical|-0.7625736113529229|0.2357913240141182|-0.2801976041740567|0.5332668604519791|-0.1758632063865662|0.945446789264679|0.2742321193218231|0|0|0|-1|-1|3
2021-04-08 20:23:59.666 +0100|20289.562593375|-0.0259246826171875|0.8291015625|0.2696075439453125|20289.542633375|2.913087666197771|-2.607072464279002|-1.243389178120514|-0.1927104890346527|0.1514001041650772|0.6598302125930786|0.03363753855228424|-0.01531529426574707|0.02440091967582703|XArbitraryZVertical|-0.7613868879764295|0.2421897135512857|-0.2773173548210057|0.5336002952629028|-0.163826584815979|0.9468793869018555|0.2767316997051239|0|0|0|-1|-1|3
2021-04-08 20:23:59.686 +0100|20289.582553375|0.0832672119140625|0.9095306396484375|0.2690887451171875|20289.562593375|2.873310828735991|-2.640500762420898|-1.245716042390832|-0.1986232548952103|0.2659566402435303|0.5822199583053589|0.09297090768814087|-0.1117641925811768|-0.003461778163909912|XArbitraryZVertical|-0.7604431121755907|0.2485677432974073|-0.2751475785257074|0.5331361738484564|-0.1534272432327271|0.9476251006126404|0.2801192998886108|0|0|0|-1|-1|3
2021-04-08 20:23:59.705 +0100|20289.602513375|0.0396728515625|0.97418212890625|0.28057861328125|20289.582553375|2.835080996558204|-2.673618877848813|-1.247929350909079|-0.1581383943557739|-0.01583149284124374|0.5888252854347229|0.2105642110109329|-0.0680045485496521|-0.01339772343635559|XArbitraryZVertical|-0.7595205451518509|0.2543920156867273|-0.2727231655547668|0.5329496858118145|-0.1431214064359665|0.9483296871185303|0.2831735014915466|0|0|0|-1|-1|3
2021-04-08 20:23:59.725 +0100|20289.622473375|-0.0057373046875|0.986968994140625|0.2606353759765625|20289.602513375|2.799641061346749|-2.710267298501548|-1.251585648867757|0.03036016412079334|-0.2115312218666077|0.5743039846420288|0.191592738032341|0.02294397354125977|-0.003917306661605835|XArbitraryZVertical|-0.7588531085296853|0.2582248774673332|-0.2682653389078918|0.5343180643486997|-0.1311995387077332|0.9494833946228027|0.2850762605667114|0|0|0|-1|-1|3
2021-04-08 20:23:59.745 +0100|20289.642433375|0.044677734375|1.005661010742188|0.2288970947265625|20289.622473375|2.770075281460384|-2.741332805818337|-1.258919585831193|0.2619903981685638|-0.06533347815275192|0.5557844638824463|0.1140552833676338|0.03314954042434692|-0.007201582193374634|XArbitraryZVertical|-0.7569677567827332|0.2613352343920725|-0.2644915917887839|0.5373527640310883|-0.1195647940039635|0.951759397983551|0.2825925648212433|0|0|0|-1|-1|3
2021-04-08 20:23:59.765 +0100|20289.662393375|0.0752716064453125|0.978973388671875|0.197418212890625|20289.642433375|2.744645696449027|-2.766342575547627|-1.26958304589443|0.4289305210113525|-0.0280992928892374|0.5602086186408997|0.1408685743808746|0.04473274946212769|-0.03718924522399902|XArbitraryZVertical|-0.7537250279773701|0.2644169764720996|-0.2621151336078478|0.5415515105009833|-0.1087346449494362|0.9549772143363953|0.2760355174541473|0|0|0|-1|-1|3
2021-04-08 20:23:59.785 +0100|20289.682353375|0.04840087890625|0.9034271240234375|0.2199249267578125|20289.662393375|2.716784322472612|-2.794738341260572|-1.283222951483171|0.5532127618789673|-0.134443998336792|0.4912721812725067|0.1678569912910461|0.0390661358833313|-0.06614339351654053|XArbitraryZVertical|-0.7496096841676892|0.2673074638403133|-0.2594109423448112|0.5471180584990898|-0.09641642868518829|0.9589349627494812|0.2667359113693237|0|0|0|-1|-1|3
2021-04-08 20:23:59.805 +0100|20289.702313375|0.0125274658203125|0.941680908203125|0.221954345703125|20289.682353375|2.686761793073589|-2.828740655983526|-1.297321096688536|0.4694989621639252|-0.2742910087108612|0.4318202137947083|0.1441268622875214|-0.05376541614532471|-0.04673364758491516|XArbitraryZVertical|-0.7456771881935775|0.2691661021838569|-0.2554926499662099|0.5533883943956344|-0.08312328904867172|0.9628381133079529|0.2569697201251984|0|0|0|-1|-1|3
2021-04-08 20:23:59.825 +0100|20289.722273375|0.00390625|1.02117919921875|0.2268829345703125|20289.702313375|2.66199208118486|-2.858683776568637|-1.307355148908788|0.3293215930461884|-0.2571856379508972|0.3328835070133209|0.09080320596694946|-0.0445554256439209|-0.03383588790893555|XArbitraryZVertical|-0.7430726622267781|0.2699438743448978|-0.2517062305439692|0.5582270282274343|-0.07269210368394852|0.9654995799064636|0.250053346157074|0|0|0|-1|-1|3
2021-04-08 20:23:59.845 +0100|20289.742233375|-0.0194549560546875|1.088211059570312|0.26727294921875|20289.722273375|2.642460425202786|-2.883823850163774|-1.314521402866293|0.2333183139562607|-0.350851833820343|0.1844272017478943|0.07250577211380005|0.03644329309463501|-0.02373015880584717|XArbitraryZVertical|-0.741385914098406|0.2699991311974458|-0.2482425613187251|0.5619815186819902|-0.06461803615093231|0.967340886592865|0.2451052069664001|0|0|0|-1|-1|3
2021-04-08 20:23:59.865 +0100|20289.762193375|-0.0142059326171875|1.110687255859375|0.25006103515625|20289.742233375|2.626978457069416|-2.90659666925567|-1.320282173039819|0.117374561727047|-0.3690949380397797|0.09899193048477173|0.04088984057307243|0.1039838790893555|0.02134759724140167|XArbitraryZVertical|-0.7403403155958779|0.2691478785954985|-0.2445271434405652|0.5653867204757781|-0.0577213317155838|0.9687851071357727|0.2410887330770493|0|0|0|-1|-1|3
2021-04-08 20:23:59.885 +0100|20289.782153375|-0.014923095703125|1.1185302734375|0.260589599609375|20289.762193375|2.61507567634307|-2.925914161759478|-1.323072041143084|0.05353973805904388|-0.3586370050907135|0.02394404634833336|0.03449922800064087|0.1444644331932068|0.01928651332855225|XArbitraryZVertical|-0.7402326491997352|0.2679828194943578|-0.24093706709258|0.5676181297969203|-0.05247515439987183|0.9694729447364807|0.239518329501152|0|0|0|-1|-1|3
2021-04-08 20:23:59.905 +0100|20289.802113375|-0.01605224609375|1.137893676757812|0.2180023193359375|20289.782153375|2.608936952431041|-2.940024832424397|-1.324481005311842|0.005432312842458487|-0.3863844573497772|-0.01461745984852314|0.03848541155457497|0.1468206644058228|0.02230440080165863|XArbitraryZVertical|-0.7406699952474974|0.2661878777997048|-0.2375588358584138|0.5693135181583968|-0.04881668835878372|0.9698174595832825|0.238896057009697|0|0|0|-1|-1|3
2021-04-08 20:23:59.925 +0100|20289.822073375|0.0045166015625|1.167266845703125|0.2224273681640625|20289.802113375|2.608608253064582|-2.947548384490943|-1.324935851730068|0.001112365629523993|-0.3155576884746552|-0.07060864567756653|0.02761431783437729|0.1602751016616821|-0.01052173972129822|XArbitraryZVertical|-0.7413762722477892|0.2641464953091023|-0.2348986726124721|0.5704478020079377|-0.04693302884697914|0.9699282646179199|0.2388242930173874|0|0|0|-1|-1|3
2021-04-08 20:23:59.945 +0100|20289.842033375|-0.0230865478515625|1.1788330078125|0.2375946044921875|20289.822073375|2.615060983712464|-2.947182052863235|-1.325661176390978|0.1211241632699966|-0.2883385121822357|-0.04564914479851723|0.04842448979616165|0.1851992607116699|-0.01512329280376434|XArbitraryZVertical|-0.7419600559676831|0.2618265226104624|-0.2332459200025572|0.5714354778349552|-0.04688438400626183|0.9701045155525208|0.2381156980991364|0|0|0|-1|-1|3
2021-04-08 20:23:59.965 +0100|20289.861993375|-0.040008544921875|1.11212158203125|0.2496337890625|20289.842033375|2.617824324831398|-2.950468879506467|-1.329964573810935|0.3317430019378662|-0.2737355530261993|0.07255773991346359|0.03223012015223503|0.2134301662445068|-0.003881275653839111|XArbitraryZVertical|-0.7413853676831558|0.2596755510608227|-0.2315504180445036|0.5738472873188583|-0.04530796408653259|0.9711399078369141|0.2341673076152802|0|0|0|-1|-1|3
2021-04-08 20:23:59.985 +0100|20289.881953375|-0.020294189453125|1.037384033203125|0.2252044677734375|20289.861993375|2.613230588743534|-2.959250578159924|-1.339120998260013|0.5012220144271851|-0.1579070389270782|0.1981185972690582|0.0009243451058864594|0.1598499417304993|0.02012351155281067|XArbitraryZVertical|-0.7389935903796202|0.2584375484756959|-0.2302992652769328|0.5779800715321141|-0.04163585603237152|0.9732831120491028|0.2258029878139496|0|0|0|-1|-1|3
2021-04-08 20:24:00.005 +0100|20289.901913375|0.0149688720703125|0.98126220703125|0.1992340087890625|20289.881953375|2.600714616380223|-2.973580396612435|-1.349711298430574|0.4738268852233887|-0.07125719636678696|0.2602128386497498|0.007662206888198853|0.07391571998596191|0.0151832103729248|XArbitraryZVertical|-0.7357596221405673|0.2583767536640473|-0.2294589611795274|0.5824499882989939|-0.03667020425200462|0.9756600856781006|0.2162015438079834|0|0|0|-1|-1|3
2021-04-08 20:24:00.025 +0100|20289.921873375|0.021270751953125|0.9412384033203125|0.15692138671875|20289.901913375|2.58240164432888|-2.993164091968846|-1.358334245726151|0.309954971075058|-0.1024220436811447|0.2581678330898285|0.0382477380335331|0.01870101690292358|-0.003119498491287231|XArbitraryZVertical|-0.7329688851337571|0.2589037419007961|-0.2283226305791526|0.5861691787532001|-0.03118398040533066|0.9775146842002869|0.2085490673780441|0|0|0|-1|-1|3
2021-04-08 20:24:00.045 +0100|20289.941833375|0.0108184814453125|0.9424896240234375|0.1327362060546875|20289.921873375|2.560931875606837|-3.017199464345974|-1.363194391059444|0.1476207226514816|-0.1877723634243011|0.267794281244278|0.04780420660972595|-0.03170490264892578|-0.03884150087833405|XArbitraryZVertical|-0.7314185199464116|0.2593991761329931|-0.2262590987701504|0.5886815353893178|-0.02557317912578583|0.9785280227661133|0.204521968960762|0|0|0|-1|-1|3
2021-04-08 20:24:00.065 +0100|20289.961793375|0.0494537353515625|0.885650634765625|0.0723876953125|20289.941833375|2.535007167115946|-3.046171927815645|-1.366220189311564|0.1056843101978302|-0.1289766281843185|0.2817291617393494|0.02881497330963612|-0.03299552202224731|-0.06068733334541321|XArbitraryZVertical|-0.7303798648201514|0.2601142738578482|-0.2236073242216589|0.5906654256760585|-0.01935555785894394|0.97914719581604|0.2022283673286438|0|0|0|-1|-1|3
2021-04-08 20:24:00.085 +0100|20289.981754375|0.080169677734375|0.8445281982421875|0.0479583740234375|20289.961793375|2.507763318110182|-3.074534504548098|-1.368645291230207|0.1073110178112984|-0.05060518532991409|0.2944570183753967|0.05065354704856873|-0.0767744779586792|-0.1069418489933014|XArbitraryZVertical|-0.7292434104736463|0.2614711067441127|-0.2215712441535746|0.592235731406881|-0.01345367543399334|0.9796369671821594|0.2003261893987656|0|0|0|-1|-1|3
2021-04-08 20:24:00.105 +0100|20290.001714375|0.082366943359375|0.8237457275390625|0.04058837890625|20289.981754375|2.477158413469407|-3.105721094871644|-1.371540966809257|0.1569628268480301|-0.063557468354702|0.3433984816074371|0.08365121483802795|-0.1302385330200195|-0.1439338624477386|XArbitraryZVertical|-0.7277924278366081|0.2631060310861074|-0.2196225702251217|0.594019781323807|-0.007098913192749023|0.9802142381668091|0.1978131979703903|0|0|0|-1|-1|3
2021-04-08 20:24:00.125 +0100|20290.021674375|0.08099365234375|0.747650146484375|0.008758544921875|20290.001714375|2.438924609214584|3.138705147085346|-1.375716985165792|0.2010343372821808|-0.05595100298523903|0.3763558864593506|0.08168411254882812|-0.147337794303894|-0.1490442752838135|XArbitraryZVertical|-0.7257271657045242|0.2650327319521462|-0.2174482944324226|0.5964848103799136|0.0005597289418801665|0.9810323119163513|0.1938445419073105|0|0|0|-1|-1|3
2021-04-08 20:24:00.145 +0100|20290.041634375|0.0843505859375|0.7127227783203125|0.0091400146484375|20290.021674375|2.402039981942393|3.101748887582209|-1.379373235576522|0.1218950226902962|-0.03072841838002205|0.2932918965816498|0.07236120104789734|-0.2128592729568481|-0.1747705936431885|XArbitraryZVertical|-0.7237405213803867|0.2669320726813029|-0.2155870815414246|0.5987230497402803|0.00757855549454689|0.9817344546318054|0.1901061534881592|0|0|0|-1|-1|3
2021-04-08 20:24:00.165 +0100|20290.061594375|0.0654449462890625|0.7584991455078125|0.036865234375|20290.041634375|2.378061863488068|3.077455612825929|-1.380122250104854|-0.02164442837238312|-0.04120108857750893|0.1506717205047607|0.07433873414993286|-0.2678263783454895|-0.1806931644678116|XArbitraryZVertical|-0.7229230695538659|0.2682315000519144|-0.2140964558191234|0.5996640003351991|0.01214701496064663|0.9818767309188843|0.1891318112611771|0|0|0|-1|-1|3
2021-04-08 20:24:00.185 +0100|20290.081554375|0.0648040771484375|0.8411407470703125|0.054168701171875|20290.061594375|2.368831162854696|3.067431805493383|-1.37887232071231|-0.06266593188047409|-0.04192269593477249|0.0483996793627739|0.05630040168762207|-0.2434951066970825|-0.1677779108285904|XArbitraryZVertical|-0.7231165560687959|0.2687275565365714|-0.2130469241240588|0.5995823813709669|0.01413310039788485|0.98163902759552|0.1902241110801697|0|0|0|-1|-1|3
2021-04-08 20:24:00.205 +0100|20290.101514375|0.1128082275390625|0.85955810546875|0.0306396484375|20290.081554375|2.366685717449306|3.065270569222438|-1.378224594476837|0.01845531910657883|0.04371913149952888|-0.003813459072262049|0.04480868577957153|-0.1570979952812195|-0.134415477514267|XArbitraryZVertical|-0.7232454850507798|0.2689421011451403|-0.212807152872537|0.5994159009592653|0.01459271833300591|0.9815152883529663|0.1908277720212936|0|0|0|-1|-1|3
2021-04-08 20:24:00.224 +0100|20290.121474375|0.1530303955078125|0.881500244140625|-0.003814697265625|20290.101514375|2.369492420418792|3.068484600430177|-1.379853697626714|0.1208709254860878|-0.03211816027760506|-0.05684179067611694|0.08554753661155701|-0.1276845932006836|-0.1510843336582184|XArbitraryZVertical|-0.7228092931010004|0.2686736498210217|-0.213382328963491|0.5998576422423977|0.01386242359876633|0.9818257689476013|0.1892776042222977|0|0|0|-1|-1|3
2021-04-08 20:24:00.244 +0100|20290.141434375|0.1221466064453125|0.949127197265625|0.0086212158203125|20290.121474375|2.376262070767083|3.072774736302486|-1.382761011250617|0.183896392583847|-0.235479325056076|-0.06528836488723755|0.1319050490856171|-0.1037873029708862|-0.1823681145906448|XArbitraryZVertical|-0.7224157540472291|0.2671324000845807|-0.2133504021019502|0.6010304820621778|0.01285404711961746|0.9823734164237976|0.1864884793758392|0|0|0|-1|-1|3
2021-04-08 20:24:00.264 +0100|20290.161394375|0.0406036376953125|0.9700469970703125|0.086212158203125|20290.141434375|2.374445956227628|3.063453097862998|-1.387917174564919|0.3493377268314362|-0.4801736772060394|0.05043353140354156|0.1261226832866669|-0.05577301979064941|-0.1735240519046783|XArbitraryZVertical|-0.7216650403368483|0.264296932170754|-0.2113293155801531|0.6038928963045896|0.0141961220651865|0.9833241701126099|0.1813066005706787|0|0|0|-1|-1|3
2021-04-08 20:24:00.284 +0100|20290.181354375|-0.0988006591796875|1.015594482421875|0.207366943359375|20290.161394375|2.359078912395115|3.038075275855472|-1.397307328944918|0.5927522778511047|-0.5336803793907166|0.1315047740936279|0.04711839184165001|-0.01584190130233765|-0.114428922533989|XArbitraryZVertical|-0.7195862649689606|0.2608513169530904|-0.2083306560147506|0.6088928340778316|0.01783723756670952|0.9849885106086731|0.1716956049203873|0|0|0|-1|-1|3
2021-04-08 20:24:00.304 +0100|20290.201314375|-0.2167510986328125|1.057098388671875|0.2873992919921875|20290.181354375|2.335167525024389|3.002772122541029|-1.409200973004743|0.5796803832054138|-0.6400724053382874|0.1106055229902267|-0.08021759986877441|0.01319605112075806|0.007707700133323669|XArbitraryZVertical|-0.7167118180503984|0.2568991966314761|-0.2049393423014557|0.6150828905429746|0.02226370386779308|0.9869718551635742|0.1593460589647293|0|0|0|-1|-1|3
2021-04-08 20:24:00.324 +0100|20290.221274375|-0.13787841796875|0.96044921875|0.3211517333984375|20290.201314375|2.319927567853686|2.976572433170374|-1.418813340212503|0.3928956687450409|-0.4363020360469818|-0.02828249521553516|-0.2310637831687927|0.07633131742477417|0.1212571710348129|XArbitraryZVertical|-0.7146859585484933|0.2527752794808082|-0.201929952806174|0.6201234186598261|0.0248707365244627|0.9884728193283081|0.1493427157402039|0|0|0|-1|-1|3
2021-04-08 20:24:00.344 +0100|20290.241234375|-0.0551605224609375|0.9300689697265625|0.2992095947265625|20290.221274375|2.326592855552485|2.977428907122404|-1.423913886432386|0.1125539541244507|-0.1978985071182251|-0.1337207704782486|-0.1915982961654663|-0.004872441291809082|0.1915658414363861|XArbitraryZVertical|-0.7139791116231786|0.249855082326172|-0.2010572654208057|0.6224004181479171|0.02391844056546688|0.9892321825027466|0.1443874686956406|0|0|0|-1|-1|3
2021-04-08 20:24:00.365 +0100|20290.261194375|-0.0888519287109375|1.01654052734375|0.2908782958984375|20290.241234375|2.347863612727235|2.99280961582731|-1.42528393256056|-0.01660899072885513|-0.3893024921417236|-0.1726340055465698|-0.08365932106971741|-0.06511533260345459|0.1586809009313583|XArbitraryZVertical|-0.7146827464302308|0.2468350206320819|-0.2001621679311238|0.6230860319756478|0.02149401046335697|0.9894317388534546|0.1433979123830795|0|0|0|-1|-1|3
2021-04-08 20:24:00.384 +0100|20290.281154375|-0.063568115234375|1.070556640625|0.27691650390625|20290.261194375|2.371401903843946|3.008614177242743|-1.425604729276547|-0.006950321141630411|-0.3157031536102295|-0.176623672246933|-0.1001929640769958|0.003563761711120605|0.1445743888616562|XArbitraryZVertical|-0.7158982560550757|0.243294794591878|-0.1985313435724298|0.6236046189933205|0.01918303035199642|0.9894782304763794|0.1434053331613541|0|0|0|-1|-1|3
2021-04-08 20:24:00.404 +0100|20290.301114375|-0.0050048828125|1.118453979492188|0.225189208984375|20290.281154375|2.396724979154297|3.029199929871613|-1.42629654898934|0.04058831930160522|-0.1421957165002823|-0.1868811100721359|-0.09326925873756409|0.0681917667388916|0.1382522433996201|XArbitraryZVertical|-0.7167162174901286|0.2405469003107851|-0.1981162954277603|0.6238630555833412|0.01615032553672791|0.9895780682563782|0.1430898904800415|0|0|0|-1|-1|3
2021-04-08 20:24:00.424 +0100|20290.321074375|0.0118255615234375|1.159408569335938|0.1682281494140625|20290.301114375|2.431046342366494|3.061092817431511|-1.426821030955121|0.2020923942327499|-0.09466835856437683|-0.1482571065425873|-0.03049007058143616|0.1178295612335205|0.09097886085510254|XArbitraryZVertical|-0.7175009847027695|0.2381174589582482|-0.1989260578366334|0.6236353207835729|0.01153763104230165|0.989653468132019|0.1430151760578156|0|0|0|-1|-1|3
2021-04-08 20:24:00.444 +0100|20290.341034375|-0.031402587890625|1.061264038085938|0.1756439208984375|20290.321074375|2.452129664840434|3.080269043751548|-1.431659511270747|0.4272324442863464|-0.1084632650017738|-0.08192397654056549|0.004271029494702816|0.1648915410041809|0.04472397267818451|XArbitraryZVertical|-0.7166211785501694|0.2359406685508291|-0.1998981342298211|0.6251614567807542|0.008499550633132458|0.9903360605239868|0.1384278237819672|0|0|0|-1|-1|3
2021-04-08 20:24:00.464 +0100|20290.360995375|0.0496826171875|0.9716644287109375|0.140838623046875|20290.341034375|2.463422224124963|3.089171067930029|-1.440349984957109|0.3785304427146912|-0.01731934770941734|-0.1324654519557953|-0.0288657546043396|0.1093415021896362|0.04098451137542725|XArbitraryZVertical|-0.7143946634777351|0.2336448881600502|-0.2007175911516266|0.6283016247366504|0.006815773900598288|0.9915039539337158|0.129899337887764|0|0|0|-1|-1|3
2021-04-08 20:24:00.484 +0100|20290.380955375|0.0764617919921875|1.068832397460938|0.1578369140625|20290.360995375|2.485085658309125|3.112763508854008|-1.447166796806948|0.2880882024765015|0.09785155206918716|-0.1374146640300751|0.01609769463539124|-0.02622681856155396|0.02067195624113083|XArbitraryZVertical|-0.7124264374876977|0.2325531460681209|-0.2031985832035725|0.6301413111208444|0.003554603317752481|0.9923676252365112|0.1232647895812988|0|0|0|-1|-1|3
2021-04-08 20:24:00.504 +0100|20290.400915375|0.0302886962890625|1.114654541015625|0.1475067138671875|20290.380955375|2.50366649829652|3.130835121792992|-1.451429540582787|0.1862311065196991|-0.1018684804439545|-0.1165866106748581|0.08663907647132874|0.05675280094146729|0.0463729053735733|XArbitraryZVertical|-0.7114053239771669|0.2311748967745238|-0.2042917659314795|0.6314473297767731|0.001281042699702084|0.9928842186927795|0.1190787330269814|0|0|0|-1|-1|3
2021-04-08 20:24:00.524 +0100|20290.420875375|0.02789306640625|1.207687377929688|0.10919189453125|20290.400915375|2.52049327614473|-3.136944441018747|-1.456121384290445|0.3011738955974579|-0.02707584016025066|-0.04932901263237|0.03529039025306702|0.1077643036842346|0.04024028033018112|XArbitraryZVertical|-0.7102853224103721|0.2295788839048748|-0.2049928185062571|0.6330610796576066|-0.0005318681360222399|0.9934320449829102|0.1144234091043472|0|0|0|-1|-1|3
2021-04-08 20:24:00.544 +0100|20290.4408365|0.0077972412109375|1.167694091796875|0.0812835693359375|20290.420875375|2.516453276093383|-3.140920116414363|-1.463030599123815|0.3893209099769592|0.007685336750000715|0.08408185839653015|0.02926138043403625|0.1977565884590149|0.01741275936365128|XArbitraryZVertical|-0.708036668179827|0.2290474912181945|-0.2056507303480409|0.6355541769322739|-7.233632641145959e-05|0.9941989183425903|0.1075573563575745|0|0|0|-1|-1|3
2021-04-08 20:24:00.564 +0100|20290.4607965|-0.006500244140625|1.074798583984375|0.039794921875|20290.4408365|2.490852231764045|3.116486777990168|-1.471169927962272|0.3793541193008423|-0.007932770997285843|0.1462163329124451|0.01303556561470032|0.1911922693252563|-0.01305198669433594|XArbitraryZVertical|-0.7051746325213948|0.2290087429038766|-0.2056628721545276|0.6387383780870404|0.002496865345165133|0.9950413703918457|0.09943253546953201|0|0|0|-1|-1|3
2021-04-08 20:24:00.584 +0100|20290.4807565|-0.0371856689453125|1.072723388671875|0.022369384765625|20290.4607965|2.461785553566503|3.086910031253873|-1.476364229635143|0.1310629397630692|-0.08560929447412491|0.1159729510545731|-0.007229835260659456|0.09811389446258545|-0.04510975629091263|XArbitraryZVertical|-0.7032460688845943|0.2291747339496359|-0.2052085671505866|0.6409473185866043|0.005153626203536987|0.9955446124076843|0.09415218234062195|0|0|0|-1|-1|3
2021-04-08 20:24:00.604 +0100|20290.5007165|-0.062255859375|1.09124755859375|0.0181121826171875|20290.4807565|2.443557692409837|3.066100048971443|-1.475819455945428|-0.1483941227197647|-0.1721296459436417|0.06510639935731888|-0.03738132119178772|0.07369047403335571|-0.06684063374996185|XArbitraryZVertical|-0.7034558741365062|0.2289826247672372|-0.2036596742945553|0.6412797632856297|0.007152658421546221|0.9954931139945984|0.09456641972064972|0|0|0|-1|-1|3
2021-04-08 20:24:00.624 +0100|20290.5206765|-0.0983734130859375|1.171890258789062|-0.022796630859375|20290.5007165|2.433827469235093|3.052810617854523|-1.471902802936662|-0.2264883816242218|-0.1876040995121002|0.06132293120026588|-0.0681425929069519|0.08320951461791992|-0.08064530789852142|XArbitraryZVertical|-0.7049030093674959|0.2286587511289365|-0.2015489702836671|0.6404726152326237|0.008754385635256767|0.9951140284538269|0.09834615141153336|0|0|0|-1|-1|3
2021-04-08 20:24:00.644 +0100|20290.5406365|-0.1387176513671875|1.23016357421875|-0.0821533203125|20290.5206765|2.424812750500147|3.039405867243473|-1.467491417708497|-0.1813242733478546|-0.2583161294460297|0.07915759086608887|-0.09738871455192566|0.149526834487915|-0.1121816709637642|XArbitraryZVertical|-0.7065730026493167|0.2281378204195681|-0.1990675714141494|0.6395935766600326|0.0105194253847003|0.9946687817573547|0.1025845482945442|0|0|0|-1|-1|3
2021-04-08 20:24:00.664 +0100|20290.5605965|-0.1142730712890625|1.122848510742188|-0.1616363525390625|20290.5406365|2.403686572465416|3.013928170128902|-1.466052915339568|0.09378209710121155|-0.1720477193593979|0.1562198847532272|-0.1485662758350372|0.2364985942840576|-0.1675586849451065|XArbitraryZVertical|-0.7071239795359439|0.2276539254371829|-0.1966052523127627|0.6399185529122922|0.01331136468797922|0.9945194125175476|0.103701263666153|0|0|0|-1|-1|3
2021-04-08 20:24:00.684 +0100|20290.5805565|-0.15380859375|1.013107299804688|-0.199005126953125|20290.5605965|2.359739319855381|2.967515943722257|-1.470938070535527|0.4587017595767975|-0.1332872360944748|0.2117727100849152|-0.1381783187389374|0.1681134104728699|-0.2354078441858292|XArbitraryZVertical|-0.7052022062770618|0.2275585652608239|-0.1950930164918261|0.6425306983780354|0.01726667582988739|0.9950183033943176|0.09818610548973083|0|0|0|-1|-1|3
2021-04-08 20:24:00.704 +0100|20290.6005165|-0.293731689453125|0.9035491943359375|-0.168243408203125|20290.5805565|2.263026183190513|2.866815595626216|-1.482758809204228|0.8362948298454285|-0.3180736303329468|0.4140876233577728|-0.1524900496006012|0.04314917325973511|-0.2848690748214722|XArbitraryZVertical|-0.7005584604053998|0.227006923732704|-0.1930745841941897|0.6483889044411493|0.0238574743270874|0.996127188205719|0.08462859690189362|0|0|0|-1|-1|3
2021-04-08 20:24:00.724 +0100|20290.6204765|-0.3895721435546875|0.7509765625|-0.092498779296875|20290.6005165|2.036446999835483|2.634225681907173|-1.498527264338791|1.256323337554932|-0.3431022465229034|0.6866334080696106|-0.2943934798240662|-0.07491946220397949|-0.2583327293395996|XArbitraryZVertical|-0.6929986198572498|0.2265151663531353|-0.1896415631792406|0.657632151857406|0.03508463129401207|0.9973897337913513|0.06311241537332535|0|0|0|-1|-1|3
2021-04-08 20:24:00.744 +0100|20290.6404365|-0.3942413330078125|0.4951324462890625|-0.0883026123046875|20290.6204765|1.60629101528847|2.199587398654306|-1.507761286340805|1.253046751022339|-0.2497804462909698|0.8854372501373291|-0.429076611995697|-0.1933567523956299|-0.1658968925476074|XArbitraryZVertical|-0.6831516027501183|0.2276621933484866|-0.1855307739976789|0.6686197178077061|0.05094757303595543|0.998013973236084|0.03705237433314323|0|0|0|-1|-1|3
2021-04-08 20:24:00.764 +0100|20290.6603965|-0.2070159912109375|0.35784912109375|-0.1575164794921875|20290.6404365|1.219205093299914|1.811314153344108|-1.497912691852128|0.799457311630249|0.120283842086792|1.126014113426208|-0.474458634853363|-0.4501953125|-0.06562459468841553|XArbitraryZVertical|-0.6744649678451126|0.2318841433086994|-0.1804368072464907|0.6773252415049063|0.07072535902261734|0.9973451495170593|0.01734649762511253|0|0|0|-1|-1|3
2021-04-08 20:24:00.784 +0100|20290.6803565|0.1778106689453125|0.3541412353515625|-0.43743896484375|20290.6603965|1.034052949340191|1.633484664904104|-1.476385196010847|0.433172196149826|0.5501869916915894|1.191934108734131|-0.3604761958122253|-0.5983142852783203|-0.1114808320999146|XArbitraryZVertical|-0.6669965056335347|0.2409743098591775|-0.1761052068160003|0.6826669327163098|0.09408727288246155|0.9955465793609619|0.005905913189053535|0|0|0|-1|-1|3
2021-04-08 20:24:00.804 +0100|20290.7003175|0.9682464599609375|0.6038970947265625|-0.71002197265625|20290.6803565|0.943687862561142|1.56097134902418|-1.451823556501678|0.4920974373817444|1.210056900978088|1.372068881988525|-0.06912804394960403|-0.6726336479187012|-0.3470693826675415|XArbitraryZVertical|-0.6593394752845481|0.2543391162155663|-0.1744892711992802|0.6856651420116724|0.1186875998973846|0.992931067943573|-0.001166140544228256|0|0|0|-1|-1|3
2021-04-08 20:24:00.824 +0100|20290.7202775|2.163436889648438|0.8029327392578125|-0.949676513671875|20290.7003175|0.9026890166531516|1.552787300742576|-1.421037744947615|-0.02471997961401939|2.15518045425415|1.575926423072815|0.5783620476722717|-0.4557105898857117|-0.6311932802200317|XArbitraryZVertical|-0.6504081171285799|0.2750015972074409|-0.1753694242805927|0.6859949615804135|0.1491760313510895|0.9888071417808533|-0.002686805324628949|0|0|0|-1|-1|3
2021-04-08 20:24:00.844 +0100|20290.7402375|2.9490966796875|1.0604248046875|-0.756500244140625|20290.7202775|0.9607879634370947|1.659223396213676|-1.392665385077271|-0.9542431235313416|2.322315216064453|1.403255224227905|1.65168559551239|-0.2223505973815918|-0.9227521419525146|XArbitraryZVertical|-0.6455752870605396|0.3017558927202414|-0.1802173103814209|0.6780102473112117|0.1764994859695435|0.9841765761375427|0.0156481396406889|0|0|0|-1|-1|3
2021-04-08 20:24:00.864 +0100|20290.7601975|3.243865966796875|1.175674438476562|-0.365478515625|20290.7402375|1.081276617661342|1.808864117541032|-1.358966670695772|-1.544293999671936|1.126891016960144|1.464228510856628|2.624215602874756|0.03402554988861084|-0.8510192632675171|XArbitraryZVertical|-0.6477523612990542|0.3243579090644268|-0.1760308537030732|0.6664999776722336|0.2043202817440033|0.9776478409767151|0.0495823509991169|0|0|0|-1|-1|3
2021-04-08 20:24:00.884 +0100|20290.7801575|3.005706787109375|1.495407104492188|0.10150146484375|20290.7601975|1.159217663115697|1.901432892497129|-1.319129207771214|-1.218830347061157|0.5944151282310486|2.024454116821289|2.943956851959229|0.1798170208930969|-0.5449842214584351|XArbitraryZVertical|-0.6501705834308384|0.3430738191144435|-0.1657327273733185|0.6573517211727317|0.2355312407016754|0.9684986472129822|0.08084286749362946|0|0|0|-1|-1|3
2021-04-08 20:24:00.904 +0100|20290.8001175|2.043624877929688|1.933181762695312|0.6184539794921875|20290.7801575|1.17131248126008|1.922335857804477|-1.268935034110291|-0.9702302813529968|0.3500206172466278|2.649569988250732|2.865962743759155|0.4600257873535156|-0.151658296585083|XArbitraryZVertical|-0.6478085930686185|0.3626712561679291|-0.1500932623133921|0.6529056345392796|0.2791168093681335|0.9547848105430603|0.1023728251457214|0|0|0|-1|-1|3
2021-04-08 20:24:00.923 +0100|20290.8200775|1.059890747070312|2.625640869140625|0.8638916015625|20290.8001175|1.138414434600307|1.897930177262779|-1.212718185237257|0.1179923266172409|0.456738293170929|2.909454345703125|1.981678247451782|0.8528417944908142|0.3355631828308105|XArbitraryZVertical|-0.6396072844511898|0.3836817935320047|-0.1321810905510981|0.6528546348671523|0.331888884305954|0.9365721344947815|0.1126183941960335|0|0|0|-1|-1|3
2021-04-08 20:24:00.943 +0100|20290.8400375|-0.0831146240234375|3.014389038085938|1.2581787109375|20290.8200775|1.06685783435903|1.842987111208787|-1.162495483762938|1.055121898651123|0.1080489605665207|2.887253046035767|0.9002804756164551|1.50694739818573|0.7672035694122314|XArbitraryZVertical|-0.6243622512622511|0.4044055261127092|-0.119616748706632|0.6575104823662585|0.3824333846569061|0.917796790599823|0.1067441031336784|0|0|0|-1|-1|3
2021-04-08 20:24:00.963 +0100|20290.8599975|-0.9582061767578125|2.779617309570312|0.6262359619140625|20290.8400375|0.9953034860983653|1.769429682426377|-1.126967977131756|1.34109354019165|-0.7702152132987976|1.898180961608887|-0.2672867774963379|2.236000537872314|0.9844961166381836|XArbitraryZVertical|-0.6095866760596|0.4132442596207467|-0.1074890439191097|0.6678918381102572|0.4209571480751038|0.903114378452301|0.08473346382379532|0|0|0|-1|-1|3
2021-04-08 20:24:00.983 +0100|20290.8799575|-1.504592895507812|2.037704467773438|0.263824462890625|20290.8599975|0.9181392473212697|1.692396777035378|-1.085167891431268|1.109676003456116|-0.2696196138858795|2.40906286239624|-1.266648411750793|2.045260667800903|0.7053900957107544|XArbitraryZVertical|-0.5909560135083338|0.423179047583914|-0.0950685459971938|0.6801857843377719|0.4633180797100067|0.8843817710876465|0.05661903321743011|0|0|0|-1|-1|3
2021-04-08 20:24:01.003 +0100|20290.8999175|-2.306121826171875|1.63330078125|0.7860870361328125|20290.8799575|0.9177975872697278|1.674604983502892|-1.042684405937344|-1.436084747314453|-1.561202526092529|1.907104969024658|-1.801072835922241|1.313837647438049|0.2266238927841187|XArbitraryZVertical|-0.5842649313973388|0.4298166100290916|-0.07453805537396348|0.6843510430697218|0.5011909604072571|0.8637599945068359|0.05221565812826157|0|0|0|-1|-1|3
2021-04-08 20:24:01.023 +0100|20290.9198775|-1.3568115234375|1.074508666992188|0.3059844970703125|20290.8999175|0.9680399121352711|1.696134675560599|-1.002334089743048|-0.9952334761619568|0.06715106219053268|1.854522228240967|-2.770565032958984|0.9284499883651733|0.6102235317230225|XArbitraryZVertical|-0.5873692938849734|0.4343341784369368|-0.04900624917454281|0.6811384557901367|0.534113883972168|0.8427298069000244|0.06729773432016373|0|0|0|-1|-1|3
2021-04-08 20:24:01.043 +0100|20290.9398375|-0.6641998291015625|0.4075927734375|-0.0584259033203125|20290.9198775|0.9764097564869075|1.722109148803935|-0.9638130604693728|-0.2889211773872375|1.210112571716309|1.716830611228943|-2.224703788757324|0.402612030506134|0.4088490009307861|XArbitraryZVertical|-0.5819947247592341|0.4519640620392563|-0.03964937861243604|0.6748620324710557|0.5638753175735474|0.8213724493980408|0.08597874641418457|0|0|0|-1|-1|3
2021-04-08 20:24:01.063 +0100|20290.9597975|-0.56365966796875|0.188140869140625|-0.2110137939453125|20290.9398375|0.9769366588692996|1.735592875463625|-0.9381959118908449|-0.08705076575279236|0.08969748765230179|0.797400951385498|-1.345273852348328|-0.2570536732673645|-0.1155029684305191|XArbitraryZVertical|-0.5774325141459318|0.4637552945215203|-0.03394469122341828|0.671081622257794|0.5832337737083435|0.8064927458763123|0.09699456393718719|0|0|0|-1|-1|3
2021-04-08 20:24:01.083 +0100|20290.9797575|-0.3299102783203125|0.309173583984375|-0.2723541259765625|20290.9597975|0.9794374229262984|1.734603188602323|-0.928475672224626|-0.2374075055122375|-0.1660586446523666|0.2007069140672684|-1.175570845603943|-0.5997182130813599|-0.2758064270019531|XArbitraryZVertical|-0.5763348101486457|0.4654930319018198|-0.02923320201324125|0.6710439814544008|0.5910363793373108|0.8007076978683472|0.09769115597009659|0|0|0|-1|-1|3
2021-04-08 20:24:01.103 +0100|20290.9997175|-0.178497314453125|0.6896514892578125|-0.228179931640625|20290.9797575|0.9883542134572512|1.741051651721044|-0.9279160910526293|-0.1134495139122009|0.01040351763367653|-0.1933745145797729|-0.9987344145774841|-0.5314201712608337|-0.3631420135498047|XArbitraryZVertical|-0.578220278862264|0.4652412861262153|-0.02789917664582213|0.6696519477732501|0.5908357501029968|0.8003723621368408|0.1015762910246849|0|0|0|-1|-1|3
2021-04-08 20:24:01.123 +0100|20291.0196775|-0.1367340087890625|0.693817138671875|-0.155059814453125|20290.9997175|0.9788843096162987|1.730941559481963|-0.9340168745722962|0.7352281212806702|-0.2616856396198273|-0.359069287776947|-0.7749291062355042|-0.2146127820014954|-0.341994047164917|XArbitraryZVertical|-0.5772301400249271|0.462832649680676|-0.03040655475215224|0.6720617522970163|0.5870010852813721|0.8040148615837097|0.0948173925280571|0|0|0|-1|-1|3
2021-04-08 20:24:01.143 +0100|20291.0396375|0.0412445068359375|0.312103271484375|-0.0979156494140625|20291.0196775|0.9514412050197738|1.705950137427875|-0.9479160735669625|1.053415656089783|0.08240660279989243|-0.8100908994674683|-0.7469270825386047|-0.03818339109420776|-0.2522656917572021|XArbitraryZVertical|-0.5738110115055651|0.4583054096979109|-0.03758622133940395|0.6777053785454511|0.5780572891235352|0.8122015595436096|0.07860585302114487|0|0|0|-1|-1|3
2021-04-08 20:24:01.163 +0100|20291.0595985|0.1290435791015625|0.2791900634765625|0.0014495849609375|20291.0396375|0.9163267850896929|1.683029226991051|-0.9694393175197652|1.145131587982178|0.3902159631252289|-1.017381429672241|-0.559304416179657|-0.443479597568512|-0.1639035940170288|XArbitraryZVertical|-0.5702759019455121|0.4543867923669778|-0.05084090827959149|0.682446648219334|0.5622028112411499|0.8245686292648315|0.06336392462253571|0|0|0|-1|-1|3
2021-04-08 20:24:01.183 +0100|20291.0795585|0.1508026123046875|0.4657745361328125|0.11932373046875|20291.0795585|0.8418253871367213|1.637145507488497|-1.01684398052701|0.8121333122253418|0.4861589372158051|-1.202378392219543|-0.3789764642715454|-0.4195889830589294|0.05418836697936058|XArbitraryZVertical|-0.5641879596505818|0.4462406664755741|-0.08055699785895588|0.6899796404041287|0.5248953700065613|0.8504520058631897|0.03487757220864296|0|0|0|-1|-1|3
2021-04-08 20:24:01.203 +0100|20291.0995185|0.2544708251953125|0.424468994140625|0.1115875244140625||||||||||||||||||||||||3
2021-04-08 20:24:01.223 +0100|20291.1194785|0.307281494140625|0.55828857421875|0.158935546875|20291.0995185|0.8234958709426061|1.633895159670936|-1.043738358828035|0.3658567368984222|0.6787336468696594|-1.371425151824951|-0.2816711664199829|-0.4270036816596985|0.08188486099243164|XArbitraryZVertical|-0.5656220926723414|0.442640093788875|-0.09559980930441209|0.6892039955711541|0.5019919276237488|0.8642906546592712|0.0317172072827816|0|0|0|-1|-1|3
2021-04-08 20:24:01.243 +0100|20291.1394385|0.323944091796875|0.7174530029296875|0.16314697265625|20291.1194785|0.8194022173540046|1.641724200437472|-1.070472104037621|0.03152678161859512|0.5011067390441895|-1.281622648239136|-0.1693470478057861|-0.3741151690483093|0.1127936840057373|XArbitraryZVertical|-0.5695823258878511|0.438832705292863|-0.1087972555633381|0.686414809223305|0.4785045385360718|0.8774271011352539|0.0339963398873806|0|0|0|-1|-1|3
2021-04-08 20:24:01.263 +0100|20291.1593985|0.4010467529296875|0.7462615966796875|0.1676177978515625|20291.1394385|0.8273558989801389|1.659582141852963|-1.095465064749345|-0.1826346665620804|0.583330512046814|-1.274134755134583|-0.1415767669677734|-0.1986346840858459|0.1367599964141846|XArbitraryZVertical|-0.5750620082693584|0.4354224047697903|-0.1201458773907762|0.6821114496947877|0.4558305442333221|0.8891412019729614|0.0405779667198658|0|0|0|-1|-1|3
2021-04-08 20:24:01.283 +0100|20291.1793585|0.379425048828125|0.838287353515625|0.194915771484375|20291.1593985|0.8472856385333669|1.687938477158427|-1.120064157475778|-0.3840247094631195|0.4158418774604797|-1.259084463119507|-0.0449603796005249|-0.1557126045227051|0.1330469846725464|XArbitraryZVertical|-0.5820563047432792|0.4320499546810904|-0.13043883145858|0.6764089691603118|0.4326394498348236|0.9001283645629883|0.05091341212391853|0|0|0|-1|-1|3
2021-04-08 20:24:01.303 +0100|20291.1993185|0.351715087890625|0.952301025390625|0.2009735107421875|20291.1793585|0.867858284028342|1.71231386997287|-1.142478610972699|-0.1999996900558472|0.2188224494457245|-1.076487302780151|-0.01588067412376404|-0.1108219027519226|0.1150175333023071|XArbitraryZVertical|-0.5886397256444721|0.4275445181595551|-0.1387519486187575|0.6719054574330131|0.4111891686916351|0.9096657633781433|0.05858208239078522|0|0|0|-1|-1|3
2021-04-08 20:24:01.323 +0100|20291.2192785|0.3753814697265625|0.9004974365234375|0.1833648681640625|20291.1993185|0.8750510271687517|1.72435804076128|-1.162099673701806|0.1867159903049469|0.3119584619998932|-0.9232525229454041|-0.04409009218215942|0.01424556970596313|0.1279177516698837|XArbitraryZVertical|-0.5924719850097412|0.4235220510605012|-0.1470179107279554|0.6693218715990507|0.3927371501922607|0.9176395535469055|0.06078796088695526|0|0|0|-1|-1|3
2021-04-08 20:24:01.342 +0100|20291.2392385|0.361602783203125|0.853912353515625|0.205718994140625|20291.2192785|0.8678457691905104|1.724168607572697|-1.180836696737623|0.3746675550937653|0.3082659840583801|-0.9075216054916382|-0.005771219730377197|-0.0008363723754882812|0.1290119886398315|XArbitraryZVertical|-0.5939135694574692|0.4198867316221417|-0.15616700504808|0.6682617988839411|0.3756891191005707|0.9249244332313538|0.05807638913393021|0|0|0|-1|-1|3
2021-04-08 20:24:01.363 +0100|20291.2591985|0.2894134521484375|0.9020233154296875|0.2060546875|20291.2392385|0.8493630715376773|1.711911370589025|-1.200054397345952|0.5931040644645691|0.1828605681657791|-0.8924615979194641|0.01546883583068848|-0.08475297689437866|0.1421427726745605|XArbitraryZVertical|-0.5940673797649856|0.415406689575165|-0.1656468468128395|0.6686423176916978|0.3587062060832977|0.9320588111877441|0.05095753818750381|0|0|0|-1|-1|3
2021-04-08 20:24:01.383 +0100|20291.2791585|0.295989990234375|0.8474578857421875|0.1883544921875|20291.2591985|0.8150808449362155|1.683768045538214|-1.21889638505711|0.8695561289787292|0.2792220711708069|-0.8455910682678223|-0.03796654939651489|-0.05119156837463379|0.1671221256256104|XArbitraryZVertical|-0.5924493728700687|0.4104047231492764|-0.1755292859915748|0.6706424820963145|0.342485249042511|0.9387195110321045|0.03885659202933311|0|0|0|-1|-1|3
2021-04-08 20:24:01.403 +0100|20291.2991185|0.293975830078125|0.7663421630859375|0.1380462646484375|20291.2791585|0.7648852959672144|1.643370092620724|-1.237754674089513|0.9291045069694519|0.3487057089805603|-0.8984976410865784|-0.03513592481613159|-0.06640499830245972|0.1781996488571167|XArbitraryZVertical|-0.5891126167157301|0.4059541915235877|-0.1871266601224217|0.6731502737517993|0.3260589838027954|0.9450523257255554|0.02370496094226837|0|0|0|-1|-1|3
2021-04-08 20:24:01.422 +0100|20291.3190785|0.280609130859375|0.7267913818359375|0.0896148681640625|20291.2991185|0.7155357597727474|1.601901053912154|-1.25818013325133|0.6859687566757202|0.1986950784921646|-1.082594871520996|-0.01017555594444275|-0.1757444739341736|0.1350584030151367|XArbitraryZVertical|-0.5869191155062902|0.4003851865958034|-0.1986600891312926|0.6750939649143597|0.3074004352092743|0.951532244682312|0.009564691223204136|0|0|0|-1|-1|3
2021-04-08 20:24:01.442 +0100|20291.3390385|0.2339630126953125|0.8014984130859375|0.100860595703125|20291.3190785|0.682831728069536|1.573092686383667|-1.282405265061257|0.3682227432727814|0.03302409127354622|-1.304990768432617|0.001614898443222046|-0.234016478061676|0.1079134941101074|XArbitraryZVertical|-0.5880394203503041|0.3931109190131197|-0.2094953166068118|0.6751187880769925|0.2844101190567017|0.9587027430534363|0.0006531090475618839|0|0|0|-1|-1|3
2021-04-08 20:24:01.462 +0100|20291.3589985|0.171295166015625|0.839996337890625|0.102264404296875|20291.3390385|0.6618465969126239|1.551842666913012|-1.309762881280192|0.2031448185443878|-0.1079858168959618|-1.422584056854248|-0.009041517972946167|-0.1847207546234131|0.1000300645828247|XArbitraryZVertical|-0.5916332841033204|0.3840890855357419|-0.2194900362267985|0.673995488601759|0.2580333948135376|0.9661237597465515|-0.004891262855380774|0|0|0|-1|-1|3
2021-04-08 20:24:01.482 +0100|20291.3789595|0.11761474609375|0.8974456787109375|0.13385009765625|20291.3589985|0.64011919130805|1.528143617818164|-1.338649960301826|0.2626782059669495|-0.1680229902267456|-1.475306034088135|-0.04564008116722107|-0.1432794332504272|0.109587550163269|XArbitraryZVertical|-0.5959463781827891|0.374089424086774|-0.2293207596937694|0.6725453134492069|0.2298584282398224|0.9731748104095459|-0.009810034185647964|0|0|0|-1|-1|3
2021-04-08 20:24:01.502 +0100|20291.3989195|0.116790771484375|0.9065093994140625|0.13323974609375|20291.3789595|0.6096807279898251|1.494187014584838|-1.36841905859905|0.2230067700147629|-0.239167109131813|-1.550701141357422|-0.07112236320972443|-0.09015655517578125|0.1488064527511597|XArbitraryZVertical|-0.6003856364050429|0.3631052702275716|-0.2390495413118401|0.671227935151919|0.2004089802503586|0.9795914888381958|-0.01538330037146807|0|0|0|-1|-1|3
2021-04-08 20:24:01.522 +0100|20291.4188795|0.074737548828125|0.8705596923828125|0.1226806640625|20291.3989195|0.5792785615559886|1.458967203823683|-1.39997890718423|0.03039669990539551|-0.3325968086719513|-1.647914886474609|-0.05677574872970581|-0.07384002208709717|0.1527441740036011|XArbitraryZVertical|-0.6058563380249234|0.3513588725283394|-0.2486161396217841|0.6690853266525895|0.1689268052577972|0.9854461550712585|-0.01897008158266544|0|0|0|-1|-1|3
2021-04-08 20:24:01.542 +0100|20291.4388405|-0.0528564453125|0.8552398681640625|0.179443359375|20291.4188795|0.5514877155708287|1.421807590791724|-1.432958920929312|-0.0174977034330368|-0.6218426823616028|-1.660101175308228|-0.0372949093580246|-0.1183837056159973|0.1336469054222107|XArbitraryZVertical|-0.6128294630801526|0.3379972202586403|-0.2567564359170698|0.6665390467837278|0.1358808726072311|0.9905154705047607|-0.02039585635066032|0|0|0|-1|-1|3
2021-04-08 20:24:01.562 +0100|20291.4588005|-0.1223907470703125|0.8154754638671875|0.197509765625|20291.4388405|0.5177879355334415|1.374280329158629|-1.46600024543121|-0.1350477635860443|-0.7365114688873291|-1.670179605484009|-0.1218507587909698|-0.1288977861404419|0.1976864337921143|XArbitraryZVertical|-0.6207073014492965|0.3232801416184116|-0.2632021560048202|0.6640310592018333|0.1025931090116501|0.9945139288902283|-0.02042479254305363|0|0|0|-1|-1|3
2021-04-08 20:24:01.582 +0100|20291.4787605|-0.0993804931640625|0.820526123046875|0.19049072265625|20291.4588005|0.4850824025694421|1.327486218062824|-1.499615806622589|-0.3163312077522278|-0.6820163130760193|-1.6757652759552|-0.1841398477554321|-0.1700292229652405|0.2028036117553711|XArbitraryZVertical|-0.6293795534186807|0.3087300306440628|-0.2691155091025397|0.6604120303586219|0.06902645528316498|0.9974677562713623|-0.0171342920511961|0|0|0|-1|-1|3
2021-04-08 20:24:01.602 +0100|20291.4987205|-0.10528564453125|0.9302978515625|0.1379547119140625|20291.4787605|0.4678574552285343|1.296397513854889|-1.533828170860591|-0.4397337734699249|-0.7441908717155457|-1.655361771583557|-0.1444814205169678|-0.1879000663757324|0.210867166519165|XArbitraryZVertical|-0.6388763254461595|0.2946682750817116|-0.2744858298715351|0.6554885430378715|0.03557835891842842|0.9993167519569397|-0.01001529674977064|0|0|0|-1|-1|3
2021-04-08 20:24:01.622 +0100|20291.5186805|-0.1307525634765625|1.044296264648438|0.1544036865234375|20291.4987205|0.4181242149825867|1.229187948653405|-1.566910692193139|-0.426335334777832|-0.9660481214523315|-1.521129608154297|-0.09912359714508057|-0.1064835786819458|0.1532957553863525|XArbitraryZVertical|-0.6488200609838598|0.2799665068568499|-0.2779494549619367|0.6506884001660483|0.003663552226498723|0.9999924302101135|-0.00130256696138531|0|0|0|-1|-1|3
2021-04-08 20:24:01.642 +0100|20291.5386405|-0.0917205810546875|1.09539794921875|0.11663818359375|20291.5186805|-2.636916025933875|-1.845420115703172|-1.545212875875281|-0.3517508506774902|-0.9380702376365662|-1.319442749023438|-0.1051334738731384|0.02872395515441895|0.1419415473937988|XArbitraryZVertical|-0.6580204123712581|0.2654779891959063|-0.2796565733629369|0.6467788960965668|-0.02462834678590298|0.9996727705001831|0.006938851904124022|0|0|0|-1|-1|3
2021-04-08 20:24:01.662 +0100|20291.5586005|-0.0536346435546875|1.0711669921875|0.0889739990234375|20291.5386405|-2.608721483203302|-1.83502380773481|-1.519801034820442|-0.2938052713871002|-0.8983418941497803|-1.198725342750549|-0.05766380578279495|0.09259355068206787|0.1057814359664917|XArbitraryZVertical|-0.6655668805921292|0.2523443468387553|-0.2810271776198939|0.6437135077468942|-0.0492098331451416|0.9987000226974487|0.01331388391554356|0|0|0|-1|-1|3
2021-04-08 20:24:01.682 +0100|20291.5785605|-0.013946533203125|1.1353759765625|0.057159423828125|20291.5586005|-2.617665857965176|-1.862517876935502|-1.495049196981781|-0.4612219333648682|-0.9783235192298889|-1.160076856613159|0.01158031821250916|0.07205080986022949|0.08370459079742432|XArbitraryZVertical|-0.6734399879425178|0.239501405506932|-0.281498326487795|0.6402159682657671|-0.07247921079397202|0.9971325397491455|0.02176468074321747|0|0|0|-1|-1|3
2021-04-08 20:24:01.702 +0100|20291.5985205|0.0462799072265625|1.13226318359375|-0.0544891357421875|20291.5785605|-2.662695374532629|-1.926371196244566|-1.469902626508767|-0.72800213098526|-0.9343191385269165|-1.087833285331726|0.06762737780809402|0.1248821616172791|0.03665196523070335|XArbitraryZVertical|-0.6824958451536698|0.2274463114362634|-0.2808837456573832|0.6352731735695046|-0.09442289918661118|0.9949145317077637|0.03506480529904366|0|0|0|-1|-1|3
2021-04-08 20:24:01.722 +0100|20291.6184805|0.0876007080078125|1.139328002929688|-0.0782623291015625|20291.5985205|-2.728293198958702|-2.008509171069062|-1.443807117504965|-0.8941737413406372|-0.8165364861488342|-1.068520784378052|0.1449497640132904|0.1546738147735596|-0.0632183700799942|XArbitraryZVertical|-0.6925830753997054|0.2171859091017881|-0.2798584087149013|0.6283615101915594|-0.1147078648209572|0.9919477105140686|0.05368207022547722|0|0|0|-1|-1|3
2021-04-08 20:24:01.742 +0100|20291.6384405|0.04852294921875|1.29931640625|-0.04351806640625|20291.6184805|-2.785081365740542|-2.080522198835661|-1.417558638360425|-1.027315735816956|-0.7888038754463196|-0.9107140898704529|0.2256113439798355|0.1242514252662659|-0.1422270536422729|XArbitraryZVertical|-0.7028241663080024|0.2080324221239328|-0.2784941162072806|0.6206463102378204|-0.1332356780767441|0.9882820844650269|0.07447859644889832|0|0|0|-1|-1|3
2021-04-08 20:24:01.762 +0100|20291.6584005|-0.0225677490234375|1.44866943359375|-0.094573974609375|20291.6384405|-2.83734432895003|-2.14643119615269|-1.393491259648254|-0.8801183104515076|-0.6298719048500061|-0.6817671656608582|0.2078133225440979|0.257193386554718|-0.1410883665084839|XArbitraryZVertical|-0.7125686652751682|0.2006317986220551|-0.2763776447322395|0.6128688692495301|-0.147954136133194|0.9843226075172424|0.09601444005966187|0|0|0|-1|-1|3
2021-04-08 20:24:01.782 +0100|20291.6783615|-0.0962677001953125|1.42718505859375|-0.1521759033203125|20291.6584005|-2.871026073848912|-2.190419039106689|-1.375786211167397|-0.6498441100120544|-0.4907896518707275|-0.4247048497200012|0.1559372395277023|0.456606924533844|-0.1956615298986435|XArbitraryZVertical|-0.7197788770548127|0.1954085067406711|-0.2743765313310839|0.6070021785444584|-0.1577540785074234|0.9810457229614258|0.1125322356820107|0|0|0|-1|-1|3
2021-04-08 20:24:01.802 +0100|20291.6983215|-0.053985595703125|1.351959228515625|-0.2616729736328125|20291.6783615|-2.900966222276549|-2.226973485125999|-1.363902913756537|-0.5407586097717285|-0.1871820986270905|-0.157983586192131|0.07018543779850006|0.4659062027931213|-0.2650654315948486|XArbitraryZVertical|-0.7249375457726877|0.192687680684494|-0.2724280213137642|0.6025944931369032|-0.1627615392208099|0.9786738157272339|0.1253259778022766|0|0|0|-1|-1|3
2021-04-08 20:24:01.822 +0100|20291.7182815|-0.0245819091796875|1.259857177734375|-0.3895263671875|20291.6983215|-2.936038194646772|-2.262694123957574|-1.35770619335363|-0.3801307678222656|0.02309326827526093|0.113968126475811|0.09061269462108612|0.3973737359046936|-0.3642644882202148|XArbitraryZVertical|-0.728035153475401|0.1934619465223963|-0.271071485947663|0.599214226450656|-0.1628488451242447|0.9773820638656616|0.1349254250526428|0|0|0|-1|-1|3
2021-04-08 20:24:01.842 +0100|20291.7382415|0.008575439453125|1.279525756835938|-0.5034332275390625|20291.7182815|-2.97094274632288|-2.296554687892911|-1.358701887575613|-0.1373503059148788|-0.001883294433355331|0.4404860436916351|0.1400790214538574|0.2874834537506104|-0.5123343467712402|XArbitraryZVertical|-0.7289391113952545|0.1962280033148976|-0.2690229561024626|0.5981380849418509|-0.1574598252773285|0.9775921702384949|0.139715313911438|0|0|0|-1|-1|3
2021-04-08 20:24:01.862 +0100|20291.7582015|0.19525146484375|1.463104248046875|-0.6392669677734375|20291.7382415|-3.009160703130907|-2.332386678680557|-1.368243488112261|0.2720595598220825|0.1603532284498215|0.857329785823822|0.1322281956672668|0.2715424299240112|-0.6030408143997192|XArbitraryZVertical|-0.7273026422824049|0.2011032044143728|-0.2659624343205563|0.599877112897344|-0.1455959379673004|0.9795562028884888|0.1388232707977295|0|0|0|-1|-1|3
2021-04-08 20:24:01.881 +0100|20291.7781615|0.67822265625|1.559234619140625|-0.724945068359375|20291.7582015|-3.056385553360594|-2.3728718856623|-1.390273537368374|0.6578715443611145|0.44460129737854|1.35212767124176|0.2455643713474274|0.442916214466095|-0.7283302545547485|XArbitraryZVertical|-0.7215170466315342|0.2096226980442219|-0.2624118584784624|0.6054846549439166|-0.1248226016759872|0.9837499856948853|0.1290570497512817|0|0|0|-1|-1|3
2021-04-08 20:24:01.901 +0100|20291.7981215|1.458114624023438|1.835647583007812|-0.765838623046875|20291.7781615|3.130284959812824|-2.456185571514574|-1.423167120904042|0.803918182849884|0.7972681522369385|2.016280889511108|0.6283866763114929|0.5303171277046204|-0.8033125400543213|XArbitraryZVertical|-0.7120380339557594|0.2234714249099695|-0.2579625166756577|0.6136105389412428|-0.09310940653085709|0.9891225695610046|0.1138752773404121|0|0|0|-1|-1|3
2021-04-08 20:24:01.921 +0100|20291.8180815|2.225433349609375|1.978729248046875|-0.6395721435546875|20291.7981215|2.893363141541778|-2.671338455230822|-1.461113431519131|0.5515986084938049|1.116205334663391|2.509974956512451|1.289924621582031|0.7587863206863403|-0.8731558322906494|XArbitraryZVertical|-0.6994935630291982|0.2439262987486668|-0.2525142788801105|0.6224511263350405|-0.04959982633590698|0.9939908385276794|0.09758257120847702|0|0|0|-1|-1|3
2021-04-08 20:24:01.942 +0100|20291.8380415|2.560760498046875|1.555038452148438|-0.3061676025390625|20291.8180815|2.424858739011543|-3.116686209589181|-1.47830755594475|-0.02403459884226322|0.8288247585296631|2.53993034362793|2.045832395553589|1.014497637748718|-0.7561343908309937|XArbitraryZVertical|-0.6890931216804973|0.2670516600058591|-0.2448846289721199|0.6275873616414983|-0.002300133462995291|0.9957259893417358|0.09233184158802032|0|0|0|-1|-1|3
2021-04-08 20:24:01.961 +0100|20291.8580015|2.587203979492188|1.31573486328125|-0.1588897705078125|20291.8380415|1.911208389923726|2.662989377932942|-1.466042324610675|-0.09724576771259308|0.006332290824502707|2.623740911483765|2.487319946289062|0.7206307053565979|-0.5329691171646118|XArbitraryZVertical|-0.6811423148930766|0.2871452907491314|-0.2313022210627579|0.6325283344724509|0.04815560579299927|0.9945183396339417|0.09281454235315323|0|0|0|-1|-1|3
2021-04-08 20:24:01.981 +0100|20291.8779615|2.182723999023438|1.537643432617188|0.1290740966796875|20291.8580015|1.573383882196064|2.325368394772073|-1.428336934881293|-0.3124002814292908|-0.2495149821043015|2.916459321975708|2.484982490539551|0.3129258155822754|-0.2946704626083374|XArbitraryZVertical|-0.6746432117361847|0.30574970377271|-0.2122268277127884|0.6374430337873137|0.1034412607550621|0.9898698329925537|0.09725268930196762|0|0|0|-1|-1|3
2021-04-08 20:24:02.001 +0100|20291.8979215|1.353302001953125|1.849105834960938|0.3797454833984375|20291.8779615|1.400637321801536|2.146002141531108|-1.377801904103462|-0.6771445274353027|-0.5917167663574219|2.690376281738281|2.171919584274292|0.4986531138420105|-0.04887367784976959|XArbitraryZVertical|-0.6692062977701952|0.3230060198475068|-0.1895347687900456|0.6417995245147738|0.1609344929456711|0.9814342856407166|0.1043399125337601|0|0|0|-1|-1|3
2021-04-08 20:24:02.021 +0100|20291.9178815|0.3814239501953125|2.366561889648438|0.6492919921875|20291.8979215|1.333450771025818|2.06733072746592|-1.328627188340654|-0.4863036274909973|-0.7307709455490112|2.372353553771973|1.387110471725464|0.7612206339836121|0.1747915744781494|XArbitraryZVertical|-0.6662395060376635|0.3365194743614261|-0.1671301608119917|0.6441639715802239|0.2108500152826309|0.9708200693130493|0.1142408698797226|0|0|0|-1|-1|3
2021-04-08 20:24:02.041 +0100|20291.9378415|-0.4910736083984375|2.2557373046875|0.6165924072265625|20291.9178815|1.277388639796667|2.0007323930679|-1.285599771101686|-0.1248036250472069|-0.5370902419090271|2.09207558631897|0.3566380441188812|1.300769925117493|0.5294144153594971|XArbitraryZVertical|-0.6615034285844444|0.3479189930828323|-0.1474051135082498|0.647794294522434|0.2557418942451477|0.9596063494682312|0.1172688230872154|0|0|0|-1|-1|3
2021-04-08 20:24:02.061 +0100|20291.9578025|-1.56396484375|1.920150756835938|0.9824066162109375|20291.9378415|1.251306214149885|1.963213973837856|-1.247752922830463|-0.9594203233718872|-1.045598745346069|1.71596372127533|-0.5786032676696777|1.426879405975342|0.5449955463409424|XArbitraryZVertical|-0.6583000954627769|0.3568501340040875|-0.1295667140136017|0.6500089228095419|0.2933239936828613|0.9482736587524414|0.1214020699262619|0|0|0|-1|-1|3
2021-04-08 20:24:02.081 +0100|20291.9777625|-2.011032104492188|1.3165283203125|1.153549194335938|20291.9578025|1.298883941287807|1.982328481756648|-1.213423332542183|-1.845747113227844|-0.9068363308906555|0.5975093841552734|-1.58048152923584|1.007028818130493|0.864540696144104|XArbitraryZVertical|-0.6643800456269694|0.3585589231135691|-0.1078128613223743|0.6468470105435884|0.3206081092357635|0.9368190169334412|0.1399306952953339|0|0|0|-1|-1|3
2021-04-08 20:24:02.101 +0100|20291.9977225|-2.0279541015625|1.566970825195312|0.8753662109375|20291.9777625|1.368079418627798|2.044271298344954|-1.191605830817771|-0.8865841031074524|0.4591360986232758|0.9006881713867188|-2.279764652252197|0.4615539312362671|1.026751756668091|XArbitraryZVertical|-0.6731082645602035|0.3623815657911046|-0.09829530060433335|0.6371365708568698|0.3294463455677032|0.9289646148681641|0.168790265917778|0|0|0|-1|-1|3
2021-04-08 20:24:02.121 +0100|20292.0176825|-1.391387939453125|0.93084716796875|0.1246795654296875|20291.9977225|1.334447836021256|2.029901380822886|-1.163851788541225|0.3760336935520172|1.292003870010376|1.57975971698761|-2.441185235977173|0.5887154340744019|0.8313910961151123|XArbitraryZVertical|-0.666953789770506|0.3779847239274495|-0.09398346162012443|0.6351908204402956|0.3548195958137512|0.9183344841003418|0.1753996163606644|0|0|0|-1|-1|3
2021-04-08 20:24:02.141 +0100|20292.0376425|-1.13665771484375|0.57379150390625|0.0536651611328125|20292.0176825|1.302404430693776|2.022130060657159|-1.146228491305995|0.04780768230557442|0.6113372445106506|0.6992207765579224|-1.910414218902588|0.2369616627693176|0.07355140149593353|XArbitraryZVertical|-0.6605655091147402|0.3917748893569197|-0.09505536492903761|0.6333484087351051|0.3706794083118439|0.9112168550491333|0.1796687096357346|0|0|0|-1|-1|3
2021-04-08 20:24:02.161 +0100|20292.0576025|-0.963653564453125|0.7952880859375|0.0645294189453125|20292.0376425|1.277867991069336|2.003850032312403|-1.134621899300521|0.5498794913291931|-0.09725823253393173|0.8962005376815796|-1.559487104415894|-0.3342306017875671|-0.1424378305673599|XArbitraryZVertical|-0.6560834155778497|0.3977427431422171|-0.0925104983300496|0.6346630036011472|0.3834759891033173|0.9063745141029358|0.1772894710302353|0|0|0|-1|-1|3
2021-04-08 20:24:02.181 +0100|20292.0775625|-0.6611175537109375|0.5268402099609375|0.0372314453125|20292.0576025|1.224863485254008|1.95351586481105|-1.123637843321463|0.9935564398765564|-0.1310780346393585|0.8856183886528015|-1.425644040107727|-0.1340091228485107|-0.09311972558498383|XArbitraryZVertical|-0.6471340511510389|0.4024392255182764|-0.08893076684530521|0.6413670922576657|0.4011223018169403|0.9016794562339783|0.1614796221256256|0|0|0|-1|-1|3
2021-04-08 20:24:02.201 +0100|20292.0975225|-0.353118896484375|0.3081207275390625|-0.0431060791015625|20292.0775625|1.168808556325248|1.901067348732923|-1.117300372756775|1.156479954719543|-0.01973728649318218|0.5959004163742065|-1.148244619369507|-0.287104070186615|-0.08028054237365723|XArbitraryZVertical|-0.6376403458654381|0.4055297590875759|-0.08780465605868225|0.6490384326964351|0.4144332110881805|0.898921012878418|0.1420791894197464|0|0|0|-1|-1|3
2021-04-08 20:24:02.221 +0100|20292.1174825|-0.035888671875|0.2233428955078125|-0.135284423828125|20292.0975225|1.107652173680947|1.848892340929866|-1.114338180215094|1.294616460800171|0.3553988933563232|0.4723992347717285|-0.8560738563537598|-0.5464988946914673|-0.132858544588089|XArbitraryZVertical|-0.6272236645143009|0.408768843554462|-0.09016753899099353|0.6567863732927887|0.4238371849060059|0.8976192474365234|0.1210029870271683|0|0|0|-1|-1|3
2021-04-08 20:24:02.241 +0100|20292.1374425|0.0213623046875|0.3757781982421875|-0.114349365234375|20292.1174825|1.046844720517942|1.802378697912105|-1.11395486094943|1.279524922370911|0.2998530864715576|0.2595173418521881|-0.5269822478294373|-0.6745949983596802|-0.2053390592336655|XArbitraryZVertical|-0.6168537799411401|0.4124481360593629|-0.09562948895493832|0.6635007099491942|0.4293404519557953|0.8974502682685852|0.1012440994381905|0|0|0|-1|-1|3
2021-04-08 20:24:02.261 +0100|20292.1574025|0.072967529296875|0.4818267822265625|-0.021240234375|20292.1374425|0.9911261257020154|1.754916534395737|-1.115611734550157|1.178978800773621|0.07382813841104507|0.0682389885187149|-0.4052973985671997|-0.5686200261116028|-0.2087681293487549|XArbitraryZVertical|-0.6078968860419773|0.413165020723849|-0.1002925271046856|0.6705949497203236|0.4321977198123932|0.8981798887252808|0.08048791438341141|0|0|0|-1|-1|3
2021-04-08 20:24:02.281 +0100|20292.1773625|0.2244720458984375|0.46734619140625|-0.0165557861328125|20292.1574025|0.9381693692504457|1.712251283920674|-1.11980293135275|1.152616500854492|0.4383598268032074|-0.07546465843915939|-0.3875012397766113|-0.4266253709793091|-0.1063553094863892|XArbitraryZVertical|-0.5997859525362238|0.4134989584143744|-0.1067818193912835|0.6766632493845969|0.4315066337585449|0.9000145792961121|0.06144915521144867|0|0|0|-1|-1|3
2021-04-08 20:24:02.301 +0100|20292.1973225|0.337677001953125|0.5036773681640625|-0.001861572265625|20292.1773625|0.8876898074805635|1.678638071241863|-1.124718281371242|1.079005718231201|0.7289498448371887|-0.1626237034797668|-0.2462320625782013|-0.4331666827201843|-0.06230485811829567|XArbitraryZVertical|-0.5919944736664018|0.4156448110742372|-0.1156796334545596|0.6807350785412049|0.4289245903491974|0.9021461009979248|0.0464361310005188|0|0|0|-1|-1|3
2021-04-08 20:24:02.321 +0100|20292.2172825|0.35296630859375|0.5926361083984375|0.067596435546875|20292.1973225|0.8420731015621191|1.651306352920308|-1.131149885952808|0.9294068813323975|0.6323041915893555|-0.2917199730873108|-0.1000842154026031|-0.4219306111335754|-0.04587174206972122|XArbitraryZVertical|-0.5852649110350594|0.4178274788526488|-0.1255037372802652|0.6834720193484073|0.424240916967392|0.9049022197723389|0.03422963619232178|0|0|0|-1|-1|3
2021-04-08 20:24:02.341 +0100|20292.2372435|0.380126953125|0.6793365478515625|0.114349365234375|20292.2172825|0.8041040010718142|1.628769253521386|-1.139259134180054|0.7600553035736084|0.5918977856636047|-0.390626072883606|-0.0686890184879303|-0.3362409472465515|0.02750837430357933|XArbitraryZVertical|-0.580290085366942|0.4187848204962379|-0.1348162261367404|0.6853519534587417|0.4175649583339691|0.9083238840103149|0.02423461899161339|0|0|0|-1|-1|3
2021-04-08 20:24:02.361 +0100|20292.2572035|0.39288330078125|0.7908477783203125|0.103973388671875|20292.2372435|0.7705349150033235|1.610218989697534|-1.148520676094402|0.659699559211731|0.6048223972320557|-0.4678395390510559|-0.03763276338577271|-0.2551910281181335|0.09270381927490234|XArbitraryZVertical|-0.5763334793354067|0.4194234962328269|-0.1442315495301667|0.6863825227271304|0.4095189869403839|0.9121586680412292|0.01615269668400288|0|0|0|-1|-1|3
2021-04-08 20:24:02.381 +0100|20292.2771635|0.347991943359375|0.8739013671875|0.140716552734375|20292.2572035|0.7406987079154677|1.593896023643092|-1.159002400753997|0.6012076735496521|0.4703617990016937|-0.5418252348899841|-0.003206640481948853|-0.152365505695343|0.09036481380462646|XArbitraryZVertical|-0.5733760122908866|0.419359533331286|-0.1534490400390716|0.6868997126616913|0.4001478850841522|0.9164042472839355|0.009244939312338829|0|0|0|-1|-1|3
2021-04-08 20:24:02.400 +0100|20292.2971235|0.3541412353515625|0.848419189453125|0.1446990966796875|20292.2771635|0.707025633993449|1.571985548345153|-1.169827781685763|0.7522491216659546|0.4715122282505035|-0.5131897926330566|-0.03055459260940552|-0.06460386514663696|0.1273895502090454|XArbitraryZVertical|-0.5702764298550083|0.4183501837423892|-0.1625080000312167|0.6880109788782055|0.3903100788593292|0.9206833839416504|0.0004641653795260936|0|0|0|-1|-1|3
2021-04-08 20:24:02.420 +0100|20292.3170835|0.3728790283203125|0.7586822509765625|0.12384033203125|20292.2971235|0.6652297919895266|1.544227390351903|-1.180238314985051|0.8260560035705566|0.5710847973823547|-0.570414662361145|-0.03702002763748169|-0.05677628517150879|0.1633733510971069|XArbitraryZVertical|-0.56608674513506|0.417718718294574|-0.1725724700201673|0.6894025261792753|0.3805707097053528|0.9246967434883118|-0.01011373847723007|0|0|0|-1|-1|3
2021-04-08 20:24:02.440 +0100|20292.3370435|0.334197998046875|0.7701568603515625|0.0828399658203125|20292.3170835|0.6232430850672787|1.514363467539122|-1.192298105317734|0.6860468983650208|0.3441417515277863|-0.7078287601470947|0.007816463708877563|-0.1553859710693359|0.1508626937866211|XArbitraryZVertical|-0.5626725536660022|0.4159067678198464|-0.1826858622624488|0.6906859508885584|0.3689372837543488|0.9292206168174744|-0.02084231562912464|0|0|0|-1|-1|3
2021-04-08 20:24:02.460 +0100|20292.3570035|0.3125457763671875|0.8259124755859375|0.06195068359375|20292.3370435|0.5878397894677104|1.486544398225675|-1.206573276724243|0.5341356992721558|0.1909734010696411|-0.7941935658454895|-0.009334206581115723|-0.1777780652046204|0.1300444602966309|XArbitraryZVertical|-0.5612417325864602|0.4123338497336071|-0.191816814427104|0.6915163598700684|0.3549599945545197|0.9344007968902588|-0.02997702732682228|0|0|0|-1|-1|3
2021-04-08 20:24:02.480 +0100|20292.3769635|0.2871551513671875|0.7936553955078125|0.048919677734375|20292.3570035|0.5589353069705671|1.462382241427594|-1.222767470461833|0.3326727747917175|0.08877938985824585|-0.9213637709617615|-0.02253156900405884|-0.1122722625732422|0.1090151071548462|XArbitraryZVertical|-0.5615276839741534|0.4077202018792947|-0.2002845447781657|0.6916192205977377|0.3390436172485352|0.9400467872619629|-0.03690179437398911|0|0|0|-1|-1|3
2021-04-08 20:24:02.500 +0100|20292.3969235|0.215423583984375|0.822357177734375|0.070892333984375|20292.3769635|0.5353736814551038|1.440290741557093|-1.241109419362315|0.2364114373922348|-0.08508385717868805|-0.9917199611663818|-0.0233420729637146|-0.1473151445388794|0.08566462993621826|XArbitraryZVertical|-0.5634558972075409|0.40181083695382|-0.2080709291901384|0.6912106591435785|0.3209942877292633|0.9461437463760376|-0.04213100671768188|0|0|0|-1|-1|3
2021-04-08 20:24:02.520 +0100|20292.4168835|0.1685791015625|0.86376953125|0.0842742919921875|20292.3969235|0.5124951444351212|1.415169721543754|-1.260643191834647|0.1984275579452515|-0.251358687877655|-1.05843198299408|-0.0670052170753479|-0.1349035501480103|0.1142623424530029|XArbitraryZVertical|-0.5663698835825017|0.3944260296950438|-0.2150081376028912|0.6909594366962751|0.3015165030956268|0.9522868394851685|-0.04730652272701263|0|0|0|-1|-1|3
2021-04-08 20:24:02.540 +0100|20292.436842875|0.1508941650390625|0.8498687744140625|0.0733642578125|20292.4168835|0.4821099277579509|1.380617675046913|-1.280143316582167|0.3358738124370575|-0.3166972696781158|-1.007296085357666|-0.1036476492881775|-0.116915762424469|0.1289567947387695|XArbitraryZVertical|-0.5691210704132081|0.3860241317949542|-0.2216852634308972|0.691333759816437|0.2814115285873413|0.9580569267272949|-0.05417315289378166|0|0|0|-1|-1|3
2021-04-08 20:24:02.560 +0100|20292.456802875|0.136383056640625|0.71539306640625|0.0650482177734375|20292.436842875|0.4422785503705338|1.335737183760306|-1.298637810045757|0.3609541654586792|-0.3548453152179718|-1.057850003242493|-0.1119912266731262|-0.08361482620239258|0.1383055448532104|XArbitraryZVertical|-0.5713685293795929|0.377140310153333|-0.228177335404529|0.692270508941316|0.2614195346832275|0.963192880153656|-0.06260637938976288|0|0|0|-1|-1|3
2021-04-08 20:24:02.580 +0100|20292.476762875|0.0257110595703125|0.7042694091796875|0.106109619140625|20292.456802875|0.3956465229716599|1.281224592221825|-1.31786377464867|0.3048225045204163|-0.6229738593101501|-1.117075085639954|-0.08902418613433838|-0.2292450666427612|0.1390519738197327|XArbitraryZVertical|-0.5741782124429179|0.3668675106743423|-0.2342289686530254|0.6934438793681083|0.2398257255554199|0.9681827425956726|-0.071455217897892|0|0|0|-1|-1|3
2021-04-08 20:24:02.600 +0100|20292.496722875|-0.001129150390625|0.7026214599609375|0.0659027099609375|20292.476762875|0.3460828011790424|1.218685524336284|-1.33821050264979|0.15265953540802|-0.7484290599822998|-1.204887628555298|-0.1618196070194244|-0.2753040790557861|0.1741436719894409|XArbitraryZVertical|-0.5783467845858785|0.3546384610032682|-0.2389574654205935|0.6947273128587041|0.2163534909486771|0.9730736017227173|-0.07949312031269073|0|0|0|-1|-1|3
2021-04-08 20:24:02.620 +0100|20292.516682875|-0.012054443359375|0.745147705078125|0.0417938232421875|20292.496722875|0.2951640946030954|1.1554786343174|-1.36088710996538|0.01551883481442928|-0.6638346314430237|-1.300820589065552|-0.2008211016654968|-0.2757027149200439|0.1558516025543213|XArbitraryZVertical|-0.5837213364591048|0.3423921923239542|-0.244108855208179|0.6945847723012426|0.1906577050685883|0.9780498147010803|-0.08407397568225861|0|0|0|-1|-1|3
2021-04-08 20:24:02.640 +0100|20292.536643875|-0.1157379150390625|0.7703094482421875|0.072235107421875|20292.516682875|0.2421639491743805|1.088172075489558|-1.385164754840917|-0.1143132820725441|-0.8808199167251587|-1.346542954444885|-0.1586659550666809|-0.2611398696899414|0.1332972645759583|XArbitraryZVertical|-0.5904418672082071|0.3294675973482429|-0.2485701890055136|0.6935722877448863|0.1634867042303085|0.9828198552131653|-0.08565900474786758|0|0|0|-1|-1|3
2021-04-08 20:24:02.660 +0100|20292.556603875|-0.1959381103515625|0.7445831298828125|0.0779571533203125|20292.536643875|0.1802886113662097|1.00831158598297|-1.411811132024688|-0.3110185563564301|-0.9811358451843262|-1.485726356506348|-0.2233740389347076|-0.2089762687683105|0.1428401470184326|XArbitraryZVertical|-0.5987988733600572|0.3150005521356141|-0.2521194063523483|0.6918457802865918|0.1339259743690491|0.9873884320259094|-0.08442912250757217|0|0|0|-1|-1|3
2021-04-08 20:24:02.680 +0100|20292.576563875|-0.164398193359375|0.8773193359375|0.0504150390625|20292.556603875|0.1062039915711988|0.9161903191259724|-1.440443430780323|-0.4185567796230316|-0.8320466279983521|-1.439319133758545|-0.286206841468811|-0.2612149119377136|0.1609436869621277|XArbitraryZVertical|-0.608358820184826|0.3005479383320979|-0.2554862911423995|0.6886925122550024|0.103115551173687|0.99151611328125|-0.07914096862077713|0|0|0|-1|-1|3
2021-04-08 20:24:02.700 +0100|20292.596523875|-0.07403564453125|0.9242401123046875|-0.0292510986328125|20292.576563875|0.01336381833903629|0.8100402684167007|-1.468075342789593|-0.555010199546814|-0.579419732093811|-1.387024641036987|-0.2561120688915253|-0.1455618143081665|0.1372581124305725|XArbitraryZVertical|-0.6176175099763567|0.2884426509573277|-0.2593890494872056|0.6841541029238003|0.07427200675010681|0.9947288632392883|-0.07069889456033707|0|0|0|-1|-1|3
2021-04-08 20:24:02.720 +0100|20292.616483875|-0.0832061767578125|1.033721923828125|-0.071868896484375|20292.596523875|-0.1302699662230704|0.6555649648640121|-1.493887136247208|-0.4873895943164825|-0.6278740763664246|-1.266669750213623|-0.1377061903476715|-0.08839815855026245|0.04152894392609596|XArbitraryZVertical|-0.6264865881543811|0.2775985459508016|-0.2634818697691628|0.6789926504026239|0.04683902859687805|0.9970439672470093|-0.06090720370411873|0|0|0|-1|-1|3
2021-04-08 20:24:02.740 +0100|20292.636443875|-0.045318603515625|1.106170654296875|-0.090545654296875|20292.616483875|-0.3569479492214793|0.4163817839282137|-1.514496676018609|-0.4822143614292145|-0.6125400066375732|-1.089992880821228|-0.09685701131820679|0.008328914642333984|-0.003818508237600327|XArbitraryZVertical|-0.6347490183751154|0.2671363998163813|-0.2659536684078321|0.674537303285742|0.02275927364826202|0.9984155893325806|-0.05146365612745285|0|0|0|-1|-1|3
2021-04-08 20:24:02.760 +0100|20292.656403875|0.0462493896484375|1.047714233398438|-0.1046142578125|20292.636443875|-0.7196792225662054|0.0440417949370269|-1.528781521887309|-0.5507409572601318|-0.4166364371776581|-0.9851869344711304|-0.06547963619232178|0.1001105308532715|-0.03821933269500732|XArbitraryZVertical|-0.6420164441789624|0.258519424232323|-0.2683659530912292|0.6700466104574762|0.001849418040364981|0.9991174936294556|-0.04196518659591675|0|0|0|-1|-1|3
2021-04-08 20:24:02.780 +0100|20292.676363875|0.0527801513671875|1.078720092773438|-0.0822601318359375|20292.656403875|-1.337919975243798|-0.5821906488808768|-1.53725839674459|-0.8322219848632812|-0.4573284685611725|-1.009464263916016|0.04622474312782288|0.06603789329528809|-0.07303255796432495|XArbitraryZVertical|-0.6503310273422904|0.2511258740360984|-0.2705549015605661|0.6639318652899908|-0.01843955367803574|0.9994376301765442|-0.02801069989800453|0|0|0|-1|-1|3
2021-04-08 20:24:02.800 +0100|20292.696323875|0.072052001953125|1.182785034179688|-0.0821533203125|20292.676363875|-2.097074792690739|-1.350944654409556|-1.531435089851084|-1.104439258575439|-0.5063489079475403|-0.9694522023200989|0.09501984715461731|0.0514034628868103|-0.09683907032012939|XArbitraryZVertical|-0.6604645687194204|0.2439156486326775|-0.2714254564681527|0.6562165898343399|-0.03841080516576767|0.9992254376411438|-0.00858341995626688|0|0|0|-1|-1|3
2021-04-08 20:24:02.820 +0100|20292.716283875|0.1628570556640625|1.294265747070312|-0.1167449951171875|20292.696323875|-2.576115758622751|-1.837720789315902|-1.511382669542023|-1.238574385643005|-0.3167182505130768|-0.9211297035217285|0.1123779714107513|0.1648657321929932|-0.0953134298324585|XArbitraryZVertical|-0.6716469408593954|0.2381636612080965|-0.271955406725422|0.6466907568954651|-0.0572795569896698|0.9982355237007141|0.01566308550536633|0|0|0|-1|-1|3
2021-04-08 20:24:02.840 +0100|20292.736243875|0.1614990234375|1.4256591796875|-0.0956268310546875|20292.716283875|-2.801428051979196|-2.068030192096488|-1.486014564282262|-1.171949863433838|-0.2810468077659607|-0.8159054517745972|0.2190339267253876|0.2667296528816223|-0.1490656137466431|XArbitraryZVertical|-0.6822889643938786|0.2338338213262435|-0.27275746139893|0.6367158088324325|-0.07442743331193924|0.9964081645011902|0.04039297252893448|0|0|0|-1|-1|3
2021-04-08 20:24:02.860 +0100|20292.756203875|0.156280517578125|1.508544921875|-0.0768890380859375|20292.736243875|-2.908731252100762|-2.18144554509442|-1.461781999075828|-1.002716898918152|-0.3438263237476349|-0.6983161568641663|0.2604621946811676|0.4042516350746155|-0.1751786470413208|XArbitraryZVertical|-0.6917565980979022|0.2294904440614218|-0.2727724415776885|0.6280145974948251|-0.08913757652044296|0.9940637946128845|0.06238611042499542|0|0|0|-1|-1|3
2021-04-08 20:24:02.880 +0100|20292.776163875|0.2750396728515625|1.467010498046875|-0.095947265625|20292.756203875|-2.967713385027886|-2.244909158061938|-1.441132585238878|-0.8285707831382751|-0.1503279954195023|-0.5527523159980774|0.2457622885704041|0.4952719807624817|-0.1638401746749878|XArbitraryZVertical|-0.6994429068434735|0.2261305029544705|-0.2728656869206259|0.6206360159577424|-0.1010184660553932|0.9916054010391235|0.080710768699646|0|0|0|-1|-1|3
2021-04-08 20:24:02.900 +0100|20292.796124875|0.3315277099609375|1.435501098632812|-0.116302490234375|20292.776163875|-3.008650959164755|-2.28801177162627|-1.422931203976128|-0.7806754112243652|-0.1711919456720352|-0.4551820755004883|0.3498616814613342|0.4913656115531921|-0.2027478218078613|XArbitraryZVertical|-0.7058963749040448|0.2238947289430937|-0.2733576158095228|0.6138869873200065|-0.1110321804881096|0.9890878796577454|0.09683708101511002|0|0|0|-1|-1|3
2021-04-08 20:24:02.919 +0100|20292.816084875|0.334259033203125|1.519973754882812|-0.143310546875|20292.796124875|-3.049410200123558|-2.33435768813793|-1.407212612063928|-0.7007849216461182|-0.4273748397827148|-0.271223783493042|0.4457826018333435|0.4515060186386108|-0.2285959720611572|XArbitraryZVertical|-0.7122060152859532|0.2215171291683983|-0.2717439014067717|0.6081513759399454|-0.1176433861255646|0.9866499900817871|0.1126144900918007|0|0|0|-1|-1|3
2021-04-08 20:24:02.939 +0100|20292.836044875|0.3435211181640625|1.621353149414062|-0.211578369140625|20292.816084875|-3.085474890198832|-2.379559060158212|-1.397130370165494|-0.3921521902084351|-0.5137684941291809|-0.0007178895175457001|0.4528678059577942|0.5084959268569946|-0.2375843673944473|XArbitraryZVertical|-0.7172801717974672|0.2191162184197741|-0.2679002422236907|0.604753476067983|-0.1192964762449265|0.9849579334259033|0.1250055283308029|0|0|0|-1|-1|3
2021-04-08 20:24:02.960 +0100|20292.856004875|0.2910308837890625|1.57977294921875|-0.2032623291015625|20292.836044875|-3.112552520081225|-2.417690036311787|-1.397018524908686|0.07321229577064514|-0.6356431841850281|0.3505147099494934|0.4640190005302429|0.6096811294555664|-0.316281795501709|XArbitraryZVertical|-0.7194145808571231|0.2172907277456592|-0.2624096600612728|0.6052839692036717|-0.114517480134964|0.9849386215209961|0.129545196890831|0|0|0|-1|-1|3
2021-04-08 20:24:02.980 +0100|20292.875964875|0.3374481201171875|1.386611938476562|-0.1138916015625|20292.856004875|-3.139405448026072|-2.456948529712335|-1.408485681686831|0.4908736646175385|-0.5958248376846313|0.7266435623168945|0.4052338302135468|0.6233881711959839|-0.3388048410415649|XArbitraryZVertical|-0.7181206136192735|0.2165501968523224|-0.2551520136331553|0.6101691458560998|-0.1021953448653221|0.9868565201759338|0.1251824051141739|0|0|0|-1|-1|3
2021-04-08 20:24:02.999 +0100|20292.895924875|0.4947357177734375|1.20166015625|0.0978546142578125|20292.875964875|3.100812185792127|-2.510628300490246|-1.42947858612895|0.7341715693473816|-0.5683765411376953|1.046462297439575|0.3984121978282928|0.4463701248168945|-0.2681179046630859|XArbitraryZVertical|-0.7136943460376409|0.2179573559522354|-0.2469949625918496|0.6181655507307178|-0.08309035748243332|0.9900312423706055|0.1137300580739975|0|0|0|-1|-1|3
2021-04-08 20:24:03.019 +0100|20292.915884875|0.9038238525390625|1.135971069335938|0.3278350830078125|20292.895924875|3.017981741205812|-2.602520949733664|-1.453651488487956|0.7059760689735413|-0.3502907454967499|1.16941249370575|0.5003043413162231|0.257036566734314|-0.04959680885076523|XArbitraryZVertical|-0.7080018117261457|0.2210987070256586|-0.2381726037666879|0.6269949188338036|-0.05999773740768433|0.9931463599205017|0.1003024056553841|0|0|0|-1|-1|3
2021-04-08 20:24:03.039 +0100|20292.935844875|1.454299926757812|1.294754028320312|0.4698944091796875|20292.915884875|2.856719503797318|-2.766669754379766|-1.476132095383021|0.5464551448822021|-0.09675616770982742|1.393807053565979|0.8160015344619751|0.1396855115890503|0.192909836769104|XArbitraryZVertical|-0.7016502275298973|0.2273028704282767|-0.2303146691328819|0.6348036963095668|-0.03461527451872826|0.995522677898407|0.08795927464962006|0|0|0|-1|-1|3
2021-04-08 20:24:03.059 +0100|20292.955804875|2.023696899414062|1.488922119140625|0.3936614990234375|20292.935844875|2.534626139262099|-3.091554654308334|-1.49319593192913|0.5081546902656555|-0.3363863229751587|1.649320363998413|1.322174787521362|0.2565341591835022|0.3760508298873901|XArbitraryZVertical|-0.6951640949377779|0.2354988609141836|-0.2204194969433104|0.6424191968362948|-0.003877462120726705|0.9969906210899353|0.07742566615343094|0|0|0|-1|-1|3
2021-04-08 20:24:03.079 +0100|20292.975764875|2|1.70147705078125|0.113525390625|20292.955804875|2.045034648193664|2.68979739607038|-1.49713711877106|0.7365245819091797|-1.260526895523071|1.864933133125305|1.856387853622437|0.4512438774108887|0.3563814163208008|XArbitraryZVertical|-0.6888410116648948|0.2420820079385474|-0.2056748296377597|0.6516075699716676|0.03213042393326759|0.9972884058952332|0.0662112757563591|0|0|0|-1|-1|3
2021-04-08 20:24:03.099 +0100|20292.995724875|1.660629272460938|1.869674682617188|-0.1879425048828125|20292.975764875|1.494507563929172|2.102379137959308|-1.486296411039286|1.53821337223053|-2.409887075424194|2.02034854888916|2.005826950073242|0.662686824798584|0.1321443319320679|XArbitraryZVertical|-0.6808356741956669|0.2405292892103786|-0.1823361139371319|0.6673546118243466|0.07275480031967163|0.9964320063591003|0.04278310760855675|0|0|0|-1|-1|3
2021-04-08 20:24:03.119 +0100|20293.015684875|1.373580932617188|1.795883178710938|-0.4591827392578125|20292.995724875|0.9987821135479352|1.563628099350249|-1.453746554435992|2.353469848632812|-2.022303819656372|2.280471801757812|1.609124898910522|0.8569709062576294|-0.09263753890991211|XArbitraryZVertical|-0.6661198793578432|0.2363593545394662|-0.1570837342649052|0.6897415175396896|0.1167805269360542|0.9931575059890747|-0.0008371237199753523|0|0|0|-1|-1|3
2021-04-08 20:24:03.139 +0100|20293.035644875|0.66314697265625|1.98260498046875|-0.3746185302734375|20293.015684875|0.6790914068568801|1.212049617951151|-1.398252690936707|3.083373546600342|-1.551532030105591|2.205938816070557|1.30875289440155|0.8228324055671692|-0.3652256727218628|XArbitraryZVertical|-0.6439518873765417|0.234916652201597|-0.1361121884747167|0.7152717613346934|0.1607590913772583|0.9851512312889099|-0.06028026714920998|0|0|0|-1|-1|3
2021-04-08 20:24:03.159 +0100|20293.055605875|-0.3242950439453125|2.545928955078125|-0.378997802734375|20293.035644875|0.4850614648801088|0.9919605701073951|-1.333902964573803|3.324565410614014|-1.481049180030823|1.675804257392883|0.6864031553268433|0.9127094745635986|-0.2488279193639755|XArbitraryZVertical|-0.6179314447265055|0.2323117906931179|-0.1198102269533603|0.7415103191677697|0.1964541673660278|0.9720717668533325|-0.1283839195966721|0|0|0|-1|-1|3
2021-04-08 20:24:03.179 +0100|20293.075565875|-0.9466705322265625|1.968765258789062|-0.6372833251953125|20293.055605875|0.336485918924167|0.824872501007171|-1.268763884327205|3.766279220581055|-0.7457754611968994|0.966242253780365|-0.2937924265861511|1.485909938812256|-0.1543736457824707|XArbitraryZVertical|-0.5893770419747926|0.2273727971185882|-0.1106550939203245|0.7672626414905011|0.2184741646051407|0.9547339081764221|-0.2018726319074631|0|0|0|-1|-1|3
2021-04-08 20:24:03.199 +0100|20293.095525875|-1.198471069335938|0.8566436767578125|-0.744232177734375|20293.075565875|0.2041637696950493|0.6932767691916449|-1.211872292017913|2.940210819244385|0.01445589028298855|-0.2407494783401489|-1.081171631813049|1.312077283859253|-0.3034893274307251|XArbitraryZVertical|-0.5613247583974809|0.2232146250051895|-0.1137038865229865|0.7887720634563884|0.2244813144207001|0.9362753033638|-0.2701794803142548|0|0|0|-1|-1|3
2021-04-08 20:24:03.219 +0100|20293.115485875|-1.733200073242188|0.6767425537109375|-0.0210418701171875|20293.095525875|0.1212087737207095|0.6195906141452981|-1.192843703561735|0.4974365234375|-0.1070739477872849|-0.557690441608429|-1.321132779121399|0.110190212726593|-0.4272973537445068|XArbitraryZVertical|-0.5492418097415488|0.2193657916514939|-0.1231981417785634|0.7968905237219078|0.2142899036407471|0.9294220805168152|-0.3004241585731506|0|0|0|-1|-1|3
2021-04-08 20:24:03.239 +0100|20293.135445875|-1.500762939453125|1.085540771484375|0.2095184326171875|20293.115485875|0.1069939269096171|0.6062689964114131|-1.208857969150577|-0.9499562382698059|0.5203964114189148|-0.6390570998191833|-1.865061640739441|-0.2437139749526978|0.01954424381256104|XArbitraryZVertical|-0.5547392031184019|0.2162713539541005|-0.1274083415899975|0.7932580557082585|0.2017611861228943|0.935212254524231|-0.2909822463989258|0|0|0|-1|-1|3
2021-04-08 20:24:03.259 +0100|20293.155405875|-1.039215087890625|0.828857421875|0.1829681396484375|20293.135445875|0.1169100737889536|0.6405985775942806|-1.223938325106243|-0.4792715907096863|1.620931386947632|-0.3177571892738342|-1.847235679626465|0.08131390810012817|0.4908699095249176|XArbitraryZVertical|-0.559387642479976|0.2254156439004908|-0.1351793514942916|0.7861296091358997|0.2031765133142471|0.9404454827308655|-0.2725464999675751|0|0|0|-1|-1|3
2021-04-08 20:24:03.279 +0100|20293.175365875|-1.218917846679688|0.6869964599609375|0.25152587890625|20293.155405875|0.1104296568036782|0.6579323168832762|-1.236458173612526|-0.4173557162284851|0.5767151117324829|-0.5649542808532715|-1.272691965103149|-0.03828573226928711|0.4550057947635651|XArbitraryZVertical|-0.5622062410752047|0.2325955776503373|-0.1444001421855425|0.780366673761288|0.2006543576717377|0.9446277022361755|-0.2596468925476074|0|0|0|-1|-1|3
2021-04-08 20:24:03.299 +0100|20293.195325875|-1.071029663085938|0.759918212890625|0.08233642578125|20293.175365875|0.09728222385717641|0.6527474112621535|-1.245981652840868|-0.04610526189208031|0.4272963106632233|-0.3087186813354492|-1.371262550354004|-0.2573103904724121|0.504731297492981|XArbitraryZVertical|-0.5646726902994039|0.2331998153069234|-0.1494409943825282|0.7774509701639711|0.1938323527574539|0.947709858417511|-0.2535251975059509|0|0|0|-1|-1|3
2021-04-08 20:24:03.319 +0100|20293.215285875|-0.8569488525390625|0.788116455078125|-0.0469818115234375|20293.195325875|0.08413987915871764|0.6512559919142815|-1.243597671738629|0.5481838583946228|0.5901739001274109|0.1380817145109177|-1.325042486190796|-0.2222451567649841|0.3975172936916351|XArbitraryZVertical|-0.5623357752561389|0.2365869372391942|-0.1537892771310186|0.7772734342588313|0.1948230564594269|0.946946382522583|-0.2556101977825165|0|0|0|-1|-1|3
2021-04-08 20:24:03.339 +0100|20293.235245875|-0.6687469482421875|0.5578765869140625|-0.0417022705078125|20293.215285875|0.06787769027882398|0.6462429861625077|-1.229097992855983|0.9089269042015076|0.4225762188434601|0.2735860347747803|-1.111303567886353|-0.1217823028564453|0.2440661489963531|XArbitraryZVertical|-0.5552389687601659|0.2407290883108953|-0.1566887870005659|0.780517835403006|0.2017872482538223|0.9421869516372681|-0.2675184011459351|0|0|0|-1|-1|3
2021-04-08 20:24:03.359 +0100|20293.255205875|-0.4437103271484375|0.2045440673828125|-0.0916290283203125|20293.235245875|0.0471575835144896|0.6342282508518866|-1.208753450773928|1.072496175765991|0.3776174485683441|0.3531631231307983|-0.9201420545578003|-0.30918288230896|0.244978666305542|XArbitraryZVertical|-0.5458152366742217|0.243787164962889|-0.1587125749034309|0.7857888381365358|0.2098749876022339|0.9351752400398254|-0.2853070795536041|0|0|0|-1|-1|3
2021-04-08 20:24:03.378 +0100|20293.275165875|-0.20074462890625|-0.0128326416015625|-0.1630096435546875|20293.255205875|0.02878050708838862|0.6276905273641743|-1.189432028591331|0.8435845375061035|0.6543152332305908|0.2298001050949097|-0.7322804927825928|-0.6331438422203064|0.230687141418457|XArbitraryZVertical|-0.5365305246388345|0.2480188542787202|-0.161611762605111|0.7902553144665958|0.2185771465301514|0.9281577467918396|-0.3012432754039764|0|0|0|-1|-1|3
