loggingTime(txt)|accelerometerTimestamp_sinceReboot(s)|accelerometerAccelerationX(G)|accelerometerAccelerationY(G)|accelerometerAccelerationZ(G)|motionTimestamp_sinceReboot(s)|motionYaw(rad)|motionRoll(rad)|motionPitch(rad)|motionRotationRateX(rad/s)|motionRotationRateY(rad/s)|motionRotationRateZ(rad/s)|motionUserAccelerationX(G)|motionUserAccelerationY(G)|motionUserAccelerationZ(G)|motionAttitudeReferenceFrame(txt)|motionQuaternionX(R)|motionQuaternionY(R)|motionQuaternionZ(R)|motionQuaternionW(R)|motionGravityX(G)|motionGravityY(G)|motionGravityZ(G)|motionMagneticFieldX(µT)|motionMagneticFieldY(µT)|motionMagneticFieldZ(µT)|motionHeading(°)|motionMagneticFieldCalibrationAccuracy(Z)|label
2021-04-08 19:29:48.183 +0100|17753.903686875|0.096221923828125|-0.35540771484375|-0.9875946044921875|17753.883726875|1.656221867125723|0.03116055457097406|0.3722874295191042|0.03387660905718803|-0.01406406238675117|0.1719374805688858|-0.0318736732006073|0.107506662607193|0.01237475872039795|XArbitraryZVertical|0.113863680271977|0.1466706690242207|0.725791668927986|0.6623816193321307|0.02902128919959068|-0.3637471199035645|-0.9310455322265625|0|0|0|-1|-1|3
2021-04-08 19:29:48.192 +0100|17753.923646875|0.020263671875|-0.535614013671875|-0.965057373046875|17753.903686875|1.656510865103726|0.03156319677325466|0.3772561671028737|0.2168226391077042|-0.115284688770771|0.1616928279399872|0.02754699997603893|0.2573484480381012|-0.007795989513397217|XArbitraryZVertical|0.115351948808714|0.1486136305175489|0.7255953811263413|0.661905800462592|0.0293387658894062|-0.3683709800243378|-0.9292158484458923|0|0|0|-1|-1|3
2021-04-08 19:29:48.193 +0100|17753.943606875|0.068328857421875|-0.3420257568359375|-0.9486236572265625|17753.923646875|1.660117837604378|0.02903515754939161|0.3776873715221313|-0.2698535919189453|0.02898204885423183|0.1369011104106903|0.01194120943546295|-0.1865256428718567|-0.04513037204742432|XArbitraryZVertical|0.1161456536765402|0.1481421440629281|0.7266141220223507|0.6607542788439066|0.02698496729135513|-0.3687718212604523|-0.9291281700134277|0|0|0|-1|-1|3
2021-04-08 19:29:48.196 +0100|17753.963566875|0.07513427734375|-0.3869171142578125|-0.93145751953125|17753.943606875|1.664176795713346|0.02737040872357015|0.3711397410276896|-0.2872334122657776|-0.04563924670219421|0.1631443500518799|0.02891016006469727|-0.06574282050132751|-0.02761733531951904|XArbitraryZVertical|0.1142788356934098|0.1454564279254966|0.7282777305888841|0.6598442013239646|0.02550369873642921|-0.3626778125762939|-0.931565523147583|0|0|0|-1|-1|3
2021-04-08 19:29:48.216 +0100|17753.983526875|0.0498504638671875|-0.44573974609375|-0.910491943359375|17753.963566875|1.667640903149592|0.02417817367791128|0.3676934427140252|-0.1475101560354233|-0.1939402371644974|0.2778251171112061|0.05733615159988403|0.0199868381023407|-0.002828598022460938|XArbitraryZVertical|0.1140497262865728|0.1433511284871789|0.7294571728420486|0.6590414224591085|0.02255988121032715|-0.359464019536972|-0.9328862428665161|0|0|0|-1|-1|3
2021-04-08 19:29:48.236 +0100|17754.003486875|0.0908355712890625|-0.3892822265625|-0.911773681640625|17753.983526875|1.674357217398974|0.01959704487895877|0.3650284506064828|-0.1842107772827148|-0.147398829460144|0.3416553437709808|0.02422256767749786|-0.07025459408760071|0.03827369213104248|XArbitraryZVertical|0.1143643305516541|0.1412574781174763|0.7315758430960506|0.6570875407575926|0.01830469444394112|-0.3569758832454681|-0.9339342713356018|0|0|0|-1|-1|3
2021-04-08 19:29:48.256 +0100|17754.023446875|0.0309295654296875|-0.3799896240234375|-0.894195556640625|17754.003486875|1.68294459656765|0.01405079667586564|0.3606200590729271|-0.296567291021347|-0.2284028232097626|0.458422064781189|0.0460585355758667|-0.05798804759979248|0.03305888175964355|XArbitraryZVertical|0.1143461337289836|0.1383185831665885|0.7343584992976734|0.6546072771956026|0.01314659230411053|-0.3528544902801514|-0.9355858564376831|0|0|0|-1|-1|3
2021-04-08 19:29:48.276 +0100|17754.043406875|-0.0095367431640625|-0.3731536865234375|-0.8692626953125|17754.023446875|1.691174700597232|0.006749823492078224|0.3538840808989409|-0.4369223117828369|-0.1886653751134872|0.4216872453689575|0.03589057922363281|-0.03796204924583435|0.03238791227340698|XArbitraryZVertical|0.1142658790383736|0.1339294312648906|0.7370661804809131|0.6524874439565563|0.006331514567136765|-0.3465438187122345|-0.938012421131134|0|0|0|-1|-1|3
2021-04-08 19:29:48.296 +0100|17754.063366875|0.0057373046875|-0.308990478515625|-0.872039794921875|17754.043406875|1.700460025664522|0.0006693127533593823|0.3438478993059206|-0.5457193851470947|-0.1211622357368469|0.4258728325366974|0.01482804119586945|-0.05926495790481567|0.0498320460319519|XArbitraryZVertical|0.1126314255912956|0.1287712454890043|0.7403918958832548|0.6500400106843635|0.0006301341345533729|-0.3371122479438782|-0.9414642453193665|0|0|0|-1|-1|3
2021-04-08 19:29:48.316 +0100|17754.083326875|-0.0070037841796875|-0.2409210205078125|-0.8838043212890625|17754.063366875|1.709288391009111|-0.003413937461851821|0.3346446801266829|-0.427112489938736|-0.112943135201931|0.4502213895320892|0.005041375756263733|-0.00696951150894165|0.08334589004516602|XArbitraryZVertical|0.1106025879155291|0.1245242134414963|0.7436147915555557|0.647532259557202|-0.003224550047889352|-0.3284335732460022|-0.9445215463638306|0|0|0|-1|-1|3
2021-04-08 19:29:48.336 +0100|17754.103286875|-0.0364227294921875|-0.293548583984375|-0.8813018798828125|17754.083326875|1.718101254392943|-0.007063691289937831|0.3301488654731104|-0.2364587783813477|-0.1046900004148483|0.4491752088069916|0.002212360501289368|0.06525781750679016|0.08178883790969849|XArbitraryZVertical|0.1099678222852579|0.1221549334921319|0.7465454987254042|0.6447132597830715|-0.006682154722511768|-0.324183851480484|-0.9459704756736755|0|0|0|-1|-1|3
2021-04-08 19:29:48.356 +0100|17754.123246875|-0.070587158203125|-0.372894287109375|-0.8734588623046875|17754.103286875|1.727008862250721|-0.01066406361067091|0.3280951500416938|-0.1616654992103577|-0.1142478659749031|0.4348513185977936|-0.007054819725453854|0.06175795197486877|0.05733698606491089|XArbitraryZVertical|0.1101140534116281|0.1207181311772382|0.7493426876375616|0.6417068065986951|-0.01009502820670605|-0.3222403824329376|-0.9466040730476379|0|0|0|-1|-1|3
2021-04-08 19:29:48.376 +0100|17754.143206875|-0.050079345703125|-0.4111785888671875|-0.83489990234375|17754.123246875|1.735950319198889|-0.01471471655241339|0.3251733415313292|-0.3336833715438843|-0.03942587599158287|0.460538923740387|-0.04338313639163971|-0.02114856243133545|0.06738096475601196|XArbitraryZVertical|0.1101661256096812|0.1188151069345088|0.7521687261625206|0.6387400493783234|-0.01394309382885695|-0.3194730579853058|-0.947492778301239|0|0|0|-1|-1|3
2021-04-08 19:29:48.396 +0100|17754.163166875|-0.00103759765625|-0.2206268310546875|-0.845794677734375|17754.143206875|1.746299231861872|-0.0172589142283833|0.316270117636449|-0.6426191926002502|0.09532921761274338|0.5508039593696594|-0.05598457157611847|-0.09060242772102356|0.0975993275642395|XArbitraryZVertical|0.1076924985680372|0.1152043240515848|0.7558928808030545|0.6354183870643032|-0.01640209369361401|-0.3110238313674927|-0.9502605795860291|0|0|0|-1|-1|3
2021-04-08 19:29:48.416 +0100|17754.183126875|0.004058837890625|-0.1255035400390625|-0.8723602294921875|17754.163166875|1.757972718536305|-0.01794993008776111|0.3035809078652331|-0.6503688097000122|0.1103041246533394|0.5676594972610474|-0.003485381603240967|-0.06867516040802002|0.08950954675674438|XArbitraryZVertical|0.1032886949934658|0.1107801319247606|0.760341699359073|0.631616892194056|-0.01712819933891296|-0.2989392876625061|-0.9541184306144714|0|0|0|-1|-1|3
2021-04-08 19:29:48.436 +0100|17754.203086875|-0.0344696044921875|-0.299285888671875|-0.8394775390625|17754.183126875|1.768945655803205|-0.02020573198508001|0.2926023920765837|-0.4596174359321594|-0.008072695694863796|0.5135180950164795|0.02631990611553192|0.1570213437080383|0.08344531059265137|XArbitraryZVertical|0.1001073589500108|0.1064331064218803|0.7643445604726494|0.6280349900607205|-0.01934560015797615|-0.2884449660778046|-0.9573010206222534|0|0|0|-1|-1|3
2021-04-08 19:29:48.463 +0100|17754.223046875|-0.0366363525390625|-0.277618408203125|-0.8525390625|17754.203086875|1.779076877615392|-0.02338889117689315|0.283328741539014|-0.5290775895118713|0.02415443025529385|0.4988367855548859|0.003885433077812195|0.05990326404571533|0.09831047058105469|XArbitraryZVertical|0.09790468839968722|0.1023761357396757|0.7679072461855697|0.6247017675643667|-0.02245433256030083|-0.2795532047748566|-0.9598675966262817|0|0|0|-1|-1|3
2021-04-08 19:29:48.476 +0100|17754.243006875|-0.03143310546875|-0.17840576171875|-0.9036712646484375|17754.223046875|1.790698884896504|-0.02527013663636614|0.2707110340298002|-0.7322503328323364|0.1087756752967834|0.601279079914093|-0.01073167286813259|-0.07108402252197266|0.114213228225708|XArbitraryZVertical|0.09413589966560398|0.09747694399533413|0.7721616330112409|0.6208084854563493|-0.02434723265469074|-0.2674166560173035|-0.9632733464241028|0|0|0|-1|-1|3
2021-04-08 19:29:48.496 +0100|17754.262966875|-0.086883544921875|-0.1949310302734375|-0.9212799072265625|17754.243006875|1.802132626442454|-0.02645948304030414|0.2559661818660738|-0.6718375086784363|0.0358697846531868|0.5623567700386047|-0.001427844166755676|0.04169368743896484|0.1021512150764465|XArbitraryZVertical|0.08951181942032217|0.09190964214913526|0.7764610820345293|0.6169671771361795|-0.02559442259371281|-0.2531802356243134|-0.9670805335044861|0|0|0|-1|-1|3
2021-04-08 19:29:48.516 +0100|17754.282926875|-0.145172119140625|-0.2980194091796875|-0.9330291748046875|17754.262966875|1.812763002113099|-0.0282659425169517|0.242004495312428|-0.7272350192070007|0.03885273635387421|0.5171037316322327|-0.0314745232462883|0.06757612526416779|0.06847888231277466|XArbitraryZVertical|0.08546529277089901|0.08637020892131096|0.7803914043648218|0.6133721030262413|-0.02743860706686974|-0.2396491914987564|-0.9704717397689819|0|0|0|-1|-1|3
2021-04-08 19:29:48.536 +0100|17754.302886875|-0.071807861328125|-0.32489013671875|-0.8791351318359375|17754.282926875|1.822531467175673|-0.02906283995226371|0.2255680795139418|-0.9559276700019836|0.1709809899330139|0.4721472859382629|-0.08932159841060638|-0.03093254566192627|0.03004163503646851|XArbitraryZVertical|0.08036479138445443|0.08008553318009451|0.784174032303929|0.6100811935758165|-0.028322609141469|-0.2236600816249847|-0.9742556214332581|0|0|0|-1|-1|3
2021-04-08 19:29:48.556 +0100|17754.322846875|0.06494140625|-0.2711944580078125|-0.8802642822265625|17754.302886875|1.832041291086758|-0.02548292426278424|0.2010817121957154|-1.556809067726135|0.3749670386314392|0.5515950918197632|-0.1027024537324905|-0.1324542164802551|0.08751934766769409|XArbitraryZVertical|0.07117446437626979|0.07188676911443057|0.7883361643778012|0.6068713366321278|-0.0249667689204216|-0.1997293680906296|-0.9795329570770264|0|0|0|-1|-1|3
2021-04-08 19:29:48.576 +0100|17754.342806875|0.139495849609375|-0.19525146484375|-0.8721466064453125|17754.322846875|1.843871311347347|-0.02091121432982836|0.1612031327746141|-2.347811937332153|0.277738630771637|0.6749265789985657|0.02672791481018066|-0.1368724405765533|0.1242854595184326|XArbitraryZVertical|0.05695400132076399|0.05785063548699441|0.7936339315881078|0.6029550194363674|-0.02063859440386295|-0.1605058610439301|-0.9868190884590149|0|0|0|-1|-1|3
2021-04-08 19:29:48.596 +0100|17754.362766875|0.2411651611328125|-0.147918701171875|-0.895111083984375|17754.342806875|1.856167174550886|-0.01691795808928186|0.1089803306828042|-2.880867958068848|0.2726611793041229|0.6317624449729919|0.1178310513496399|-0.127761498093605|0.1339093446731567|XArbitraryZVertical|0.03940344655207709|0.03853228488134464|0.7989799760756425|0.5988269229163496|-0.01681679114699364|-0.1087647378444672|-0.9939252734184265|0|0|0|-1|-1|3
2021-04-08 19:29:48.616 +0100|17754.382726875|0.2527313232421875|-0.085540771484375|-0.7949676513671875|17754.362766875|1.867909242111878|-0.01493565881113952|0.03762553223971933|-4.479756355285645|0.002106918022036552|0.6854388117790222|0.2115503698587418|-0.1191518902778625|0.09491443634033203|XArbitraryZVertical|0.0171890635192226|0.01068374448167798|0.8037296778959979|0.5946504939059537|-0.01492453273385763|-0.03761665523052216|-0.999180793762207|0|0|0|-1|-1|3
2021-04-08 19:29:48.635 +0100|17754.402686875|0.2172088623046875|0.3199462890625|-0.7068634033203125|17754.382726875|1.881278279773092|-0.01564466770881895|-0.06840784469639145|-6.052801609039307|-0.1089528650045395|0.7791517972946167|0.2678515613079071|-0.2285562753677368|0.1189226508140564|XArbitraryZVertical|-0.01383468609661007|-0.03223504016282326|0.8075952939565871|0.5886931461998718|-0.01560743991285563|0.06835450232028961|-0.9975389838218689|0|0|0|-1|-1|3
2021-04-08 19:29:48.656 +0100|17754.422646875|0.14691162109375|0.6738128662109375|-0.5429229736328125|17754.402686875|1.892957584087002|-0.02003588456738876|-0.1990631647290471|-6.769657611846924|-0.4022994935512543|0.6487927436828613|0.2616443932056427|-0.1021392643451691|0.229231595993042|XArbitraryZVertical|-0.04999381585557816|-0.08644568307684145|0.8078880550410596|0.5808139694892321|-0.01963890716433525|0.1977510899305344|-0.9800555109977722|0|0|0|-1|-1|3
2021-04-08 19:29:48.675 +0100|17754.442606875|0.0643157958984375|0.96612548828125|-0.4432830810546875|17754.422646875|1.906109513351933|-0.02512843811414896|-0.3363024902876837|-6.62100076675415|-0.4020572602748871|0.9231966137886047|0.2204051613807678|0.2172272205352783|0.3425022959709167|XArbitraryZVertical|-0.08682901346333798|-0.1435934741675451|0.8048455088552442|0.5692673819166936|-0.02371827885508537|0.3299989700317383|-0.9436832666397095|0|0|0|-1|-1|3
2021-04-08 19:29:48.696 +0100|17754.462566875|0.0468292236328125|0.989837646484375|-0.43182373046875|17754.442606875|1.924093801998912|-0.02192906741560644|-0.4617817915948184|-5.863747119903564|-0.06867170333862305|1.029920339584351|0.09211099147796631|0.390439510345459|0.4399362206459045|XArbitraryZVertical|-0.1220992062829742|-0.1938282208098625|0.7999805465760108|0.5545751372286731|-0.01963064447045326|0.4455439746379852|-0.8950448036193848|0|0|0|-1|-1|3
2021-04-08 19:29:48.715 +0100|17754.482526875|0.1002197265625|0.6731719970703125|-0.357421875|17754.462566875|1.946513207239683|-0.01204562540243336|-0.5714751989784993|-5.186766147613525|0.06082860752940178|1.1419358253479|0.06878726184368134|0.4939016103744507|0.3751159906387329|XArbitraryZVertical|-0.1538001016631183|-0.2362710958012345|0.7941427452019704|0.5383854676022721|-0.01013137865811586|0.5408734083175659|-0.8410429954528809|0|0|0|-1|-1|3
2021-04-08 19:29:48.736 +0100|17754.502486875|0.238555908203125|0.7539215087890625|-0.2242584228515625|17754.482526875|1.977103396939105|0.007632008656649451|-0.6798409039028267|-5.663658142089844|0.03810731694102287|1.303692102432251|0.04881450533866882|0.2148061990737915|0.4019025564193726|XArbitraryZVertical|-0.1863468802280581|-0.2764955318708768|0.7867341887062003|0.5194944265895489|0.005935147870332003|0.6286693215370178|-0.7776501178741455|0|0|0|-1|-1|3
2021-04-08 19:29:48.755 +0100|17754.522446875|0.21588134765625|1.333404541015625|-0.1029815673828125|17754.502486875|2.009184881233813|0.0280073750668954|-0.8047431200696|-6.879396915435791|-0.2367918491363525|0.9154630303382874|0.1522933840751648|-0.09073907136917114|0.3683939576148987|XArbitraryZVertical|-0.220921214893407|-0.3235452779060209|0.7735240290538387|0.4981696281730928|0.01941487565636635|0.7206525802612305|-0.6930245161056519|0|0|0|-1|-1|3
2021-04-08 19:29:48.775 +0100|17754.542406875|0.068328857421875|1.726425170898438|-0.1542205810546875|17754.522446875|2.042950333212984|0.04367005556222667|-0.9410928942089036|-6.56377649307251|-0.8037227392196655|0.9176706075668335|0.1965970695018768|0.2361246943473816|0.4543870091438293|XArbitraryZVertical|-0.2532510657942682|-0.3764200255246696|0.7548394827209836|0.4736975113111782|0.02570934779942036|0.8082022070884705|-0.5883437395095825|0|0|0|-1|-1|3
2021-04-08 19:29:48.795 +0100|17754.562366875|-0.0219268798828125|1.32891845703125|-0.3343505859375|17754.542406875|2.099195877697478|0.07274028272482302|-1.054245289628666|-4.915223598480225|-1.037557363510132|1.391976714134216|0.1244010925292969|0.6950932741165161|0.3844850659370422|XArbitraryZVertical|-0.2775657988262796|-0.4203191391366006|0.7399010225669691|0.4459097901341579|0.03589359670877457|0.8695277571678162|-0.4925780892372131|0|0|0|-1|-1|3
2021-04-08 19:29:48.815 +0100|17754.582326875|0.058441162109375|0.955108642578125|-0.070343017578125|17754.562366875|2.182990862255172|0.1293081806238587|-1.139669285508048|-4.373081207275391|-0.6792634725570679|1.575733661651611|-0.05368730798363686|0.768994927406311|0.05698445439338684|XArbitraryZVertical|-0.2965423859293562|-0.4526141060006946|0.7294774968319458|0.4184085370199012|0.0538867823779583|0.9084953665733337|-0.4144061803817749|0|0|0|-1|-1|3
2021-04-08 19:29:48.835 +0100|17754.602287875|0.1494903564453125|1.45166015625|-0.0458221435546875|17754.582326875|2.295675702635621|0.2228442246952061|-1.225478477515254|-4.825889587402344|-0.5235142707824707|0.9839724898338318|-0.08002648502588272|0.05860483646392822|0.1171438992023468|XArbitraryZVertical|-0.3175434947489155|-0.4838421014933034|0.7151120379737379|0.3920176150744868|0.07480909675359726|0.9409679174423218|-0.3301258981227875|0|0|0|-1|-1|3
2021-04-08 19:29:48.855 +0100|17754.622247875|-0.1309967041015625|1.399795532226562|-0.187408447265625|17754.602287875|2.439466150206648|0.343236995604145|-1.309137551651717|-4.184346199035645|-1.308115243911743|1.073880553245544|0.04514672607183456|0.2542068362236023|0.2501559257507324|XArbitraryZVertical|-0.3335105420674456|-0.5166947644392237|0.6982258567727605|0.3664395723098454|0.08705654740333557|0.9659622311592102|-0.2435944825410843|0|0|0|-1|-1|3
2021-04-08 19:29:48.875 +0100|17754.642207875|-0.177734375|1.195022583007812|-0.0087738037109375|17754.622247875|2.647524594931656|0.5146993833318598|-1.364264602741199|-2.76087474822998|-1.563241004943848|0.8852934241294861|-0.06919435411691666|0.512981653213501|0.0519881397485733|XArbitraryZVertical|-0.3406535491929994|-0.5428681350313089|0.6886413305405752|0.3391497876884584|0.1009490042924881|0.9787480235099792|-0.178498700261116|0|0|0|-1|-1|3
2021-04-08 19:29:48.895 +0100|17754.662167875|-0.048919677734375|1.113906860351562|-0.0353851318359375|17754.642207875|2.860962410856057|0.7002327394333603|-1.392087217425394|-2.04171085357666|-1.022642135620117|0.8464773893356323|-0.3001551032066345|0.2894856929779053|0.04494427144527435|XArbitraryZVertical|-0.3448645227238646|-0.5595554287745609|0.6829877376443385|0.3185816071755422|0.114548347890377|0.9840739965438843|-0.1359323710203171|0|0|0|-1|-1|3
2021-04-08 19:29:48.915 +0100|17754.682127875|-0.0919189453125|1.039535522460938|-0.0337982177734375|17754.662167875|3.092352236227462|0.9092982974876168|-1.408504095449223|-1.893704652786255|-1.027228832244873|0.7356613874435425|-0.2428700029850006|0.1664454936981201|0.06634616851806641|XArbitraryZVertical|-0.3488907209812109|-0.5732761963701281|0.6774718300706973|0.3011007967345707|0.1274994313716888|0.9868595004081726|-0.09925933182239532|0|0|0|-1|-1|3
2021-04-08 19:29:48.935 +0100|17754.702087875|-0.2489013671875|1.041168212890625|0.0383758544921875|17754.682127875|-2.957509738340109|1.116357348175708|-1.415472832312603|-1.46074104309082|-1.215639352798462|0.6531997323036194|-0.1793578416109085|0.1031791567802429|0.002553649246692657|XArbitraryZVertical|-0.350053470084367|-0.5860964605936345|0.6734285155772167|0.2836329533237322|0.1389994323253632|0.9879615306854248|-0.06790701299905777|0|0|0|-1|-1|3
2021-04-08 19:29:48.965 +0100|17754.722047875|-0.2314300537109375|1.040069580078125|0.028289794921875|17754.702087875|-2.795188417223952|1.253528327073356|-1.413439745780313|-0.7923721075057983|-1.007877111434937|0.5052458643913269|-0.330969512462616|0.05395036935806274|0.0635828971862793|XArbitraryZVertical|-0.3487414239636323|-0.5949244166569176|0.6723685865864221|0.2690073321571508|0.148887500166893|0.9876449704170227|-0.04888871684670448|0|0|0|-1|-1|3
2021-04-08 19:29:48.978 +0100|17754.742007875|-0.08636474609375|1.054306030273438|0.0497283935546875|17754.722047875|-2.690948395549077|1.339969597240352|-1.409746242291306|-0.8357357978820801|-0.6361215114593506|0.2410974651575089|-0.4233134984970093|0.04820352792739868|0.08672010898590088|XArbitraryZVertical|-0.3475664698524722|-0.600711466360397|0.6718415471007916|0.2587902103513142|0.1561027020215988|0.9870594143867493|-0.03668656572699547|0|0|0|-1|-1|3
2021-04-08 19:29:48.995 +0100|17754.76196841667|-0.0655364990234375|1.228317260742188|-0.0543975830078125|17754.742007875|-2.558256071102316|1.457726768132458|-1.409441659970668|-1.208639621734619|-0.7802768349647522|0.2051866948604584|-0.3064345717430115|0.04372060298919678|0.06385725736618042|XArbitraryZVertical|-0.3469887411121051|-0.6087162395535155|0.6683137965067678|0.2498404297687897|0.1596308648586273|0.9870105385780334|-0.01812670566141605|0|0|0|-1|-1|3
2021-04-08 19:29:49.015 +0100|17754.78192841667|-0.151153564453125|1.218704223632812|-0.1702728271484375|17754.76196841667|-2.427734803866334|1.569121839702091|-1.40660659282815|-0.7492822408676147|-0.9511758685112|0.2554663121700287|-0.2320416122674942|0.1582701206207275|-0.006455481052398682|XArbitraryZVertical|-0.3449841879238176|-0.6171296936270284|0.6654013191971255|0.2395374931438341|0.1634544730186462|0.9865511059761047|-0.0002737026661634445|0|0|0|-1|-1|3
2021-04-08 19:29:49.035 +0100|17754.80188841667|-0.2358856201171875|1.000717163085938|-0.084930419921875|17754.78192841667|-2.401072099101792|1.572839502905944|-1.399947312101947|0.297194629907608|-1.27479350566864|0.3387593030929565|-0.2444813847541809|0.2780479192733765|-0.2005122900009155|XArbitraryZVertical|-0.3400370895309788|-0.6201197206602012|0.6686719349332131|0.2295741717709458|0.1700195819139481|0.9854407906532288|0.0003473804099485278|0|0|0|-1|-1|3
2021-04-08 19:29:49.055 +0100|17754.82184841667|-0.0321044921875|0.84716796875|-0.2657928466796875|17754.80188841667|-2.478225796190871|1.475593781984443|-1.392602970132677|0.960770845413208|-0.7721573114395142|0.3300372958183289|-0.4147912859916687|0.1065021157264709|-0.0690423846244812|XArbitraryZVertical|-0.3334042286936127|-0.6167794614488|0.677253627147911|0.2230524719724091|0.1764500737190247|0.9841655492782593|-0.01684943214058876|0|0|0|-1|-1|3
2021-04-08 19:29:49.075 +0100|17754.84180841667|0.0334014892578125|0.8769683837890625|-0.2593536376953125|17754.82184841667|-2.564817733258744|1.375684285565415|-1.38449152708668|0.7051724791526794|-0.8183571100234985|0.1982947885990143|-0.3235134482383728|-0.05236721038818359|-0.1462174654006958|XArbitraryZVertical|-0.3282989790137961|-0.6117711965670257|0.6854572997780738|0.2193265054623501|0.1817145794630051|0.9826954007148743|-0.03591156750917435|0|0|0|-1|-1|3
2021-04-08 19:29:49.095 +0100|17754.86176841667|0.0127105712890625|1.00262451171875|-0.238677978515625|17754.84180841667|-2.611463167085815|1.310562103889957|-1.381185225899793|0.05623099952936172|-1.040033936500549|-0.008612407371401787|-0.1594713628292084|-0.1612464189529419|-0.2576406002044678|XArbitraryZVertical|-0.3210366238446298|-0.6104810883874746|0.6915485647493005|0.2144972827383527|0.1821317672729492|0.9820775985717773|-0.04849665239453316|0|0|0|-1|-1|3
2021-04-08 19:29:49.115 +0100|17754.88172841667|0.0896148681640625|1.097457885742188|-0.2012481689453125|17754.86176841667|-2.584500781824711|1.318624642181972|-1.383907406693362|-0.587446391582489|-0.7393271923065186|-0.1219276115298271|-0.1668650209903717|-0.04682660102844238|-0.2219969630241394|XArbitraryZVertical|-0.3148353342449977|-0.6145721700513865|0.692628130165783|0.2084376763021349|0.1799276322126389|0.9825870394706726|-0.04635952040553093|0|0|0|-1|-1|3
2021-04-08 19:29:49.135 +0100|17754.90168841667|0.1301116943359375|1.158050537109375|-0.26666259765625|17754.88172841667|-2.509315413122243|1.380025942229138|-1.390120593392622|-0.8464800715446472|-0.5507344603538513|-0.1784590631723404|-0.1285818964242935|0.04789352416992188|-0.1981661319732666|XArbitraryZVertical|-0.3110897317635566|-0.6214392685814573|0.6897111628783974|0.20330997428787|0.1764345169067383|0.9837225079536438|-0.03407282754778862|0|0|0|-1|-1|3
2021-04-08 19:29:49.155 +0100|17754.92164841667|0.0625152587890625|1.217864990234375|-0.34893798828125|17754.90168841667|-2.421606693540093|1.453295409933199|-1.395214091823519|-0.7224832773208618|-0.770124614238739|-0.1148016899824142|-0.04045070707798004|0.1390779614448547|-0.1977075338363647|XArbitraryZVertical|-0.3073898975641307|-0.6287069112632232|0.6864225504078857|0.1976444218569793|0.1734778881072998|0.984624981880188|-0.02047814056277275|0|0|0|-1|-1|3
2021-04-08 19:29:49.175 +0100|17754.94160841667|0.0385284423828125|1.172378540039062|-0.45465087890625|17754.92164841667|-2.353134575913883|1.505509505832485|-1.398337078317924|-0.4697509109973907|-0.7308608293533325|-0.07145138084888458|-0.07245433330535889|0.2078273892402649|-0.2807815074920654|XArbitraryZVertical|-0.3027077451611214|-0.6346417741972644|0.6847292503713087|0.191686791616469|0.1712408065795898|0.9851657152175903|-0.01119567919522524|0|0|0|-1|-1|3
2021-04-08 19:29:49.195 +0100|17754.96156841667|0.07305908203125|1.114852905273438|-0.510650634765625|17754.94160841667|-2.313380364549126|1.532046872395856|-1.400586147228236|-0.2905790507793427|-0.5233418941497803|-0.1437410265207291|-0.129986047744751|0.2261664867401123|-0.4203789830207825|XArbitraryZVertical|-0.2984332108801085|-0.6384798724999208|0.6842572783605532|0.1872783971469788|0.1692632138729095|0.9855492115020752|-0.006562142167240381|0|0|0|-1|-1|3
2021-04-08 19:29:49.214 +0100|17754.98152841667|0.08599853515625|1.226547241210938|-0.4676055908203125|17754.96156841667|-2.280772887192983|1.555848586184881|-1.404957887939666|-0.22309710085392|-0.2840800285339355|-0.2789871692657471|-0.1056280732154846|0.1336385011672974|-0.51829993724823|XArbitraryZVertical|-0.294746270464204|-0.6417872632253659|0.6833196602316075|0.1852247080885321|0.1650621294975281|0.9862803220748901|-0.002467489568516612|0|0|0|-1|-1|3
2021-04-08 19:29:49.237 +0100|17755.00148841667|0.101531982421875|1.161849975585938|-0.4240570068359375|17754.98152841667|-2.283921200799977|1.549480969015293|-1.411783635272683|0.3039980530738831|-0.04122058302164078|-0.3933621942996979|-0.07375851273536682|0.1774718165397644|-0.5142797231674194|XArbitraryZVertical|-0.2914015335934064|-0.642960099380035|0.6832859514281474|0.1865688395513085|0.1583085060119629|0.9873840808868408|-0.003374913707375526|0|0|0|-1|-1|3
2021-04-08 19:29:49.255 +0100|17755.02144841667|0.0811920166015625|0.898101806640625|-0.3833770751953125|17755.00148841667|-2.341812794514272|1.492051502703454|-1.418383887119441|0.5019569396972656|0.004704565741121769|-0.2817081212997437|-0.0528109073638916|0.2556260824203491|-0.4178057909011841|XArbitraryZVertical|-0.2882477418157827|-0.6410473849364133|0.685429463313757|0.1901526787829693|0.1513532400131226|0.9884076714515686|-0.01194297894835472|0|0|0|-1|-1|3
2021-04-08 19:29:49.274 +0100|17755.04140841667|0.123199462890625|0.751556396484375|-0.3386077880859375|17755.02144841667|-2.399152748567665|1.437444387403195|-1.422891328317897|0.1702562570571899|0.2221236974000931|-0.2276856452226639|-0.06744486093521118|0.0358051061630249|-0.3889455199241638|XArbitraryZVertical|-0.2864671570136036|-0.6388581912249451|0.687188764843102|0.1938261255346851|0.1460592150688171|0.9890819787979126|-0.01959355920553207|0|0|0|-1|-1|3
2021-04-08 19:29:49.294 +0100|17755.06136841667|0.1324462890625|1.046356201171875|-0.183258056640625|17755.04140841667|-2.372749876657261|1.470729176849279|-1.426507428460335|-0.4984414577484131|0.4790127873420715|-0.1046474203467369|-0.04149189591407776|-0.1910396814346313|-0.3409364819526672|XArbitraryZVertical|-0.2883321041787192|-0.6400642697313969|0.6844974298018244|0.1965853052268944|0.143070712685585|0.9896084070205688|-0.01436465699225664|0|0|0|-1|-1|3
2021-04-08 19:29:49.314 +0100|17755.08132841667|0.2295989990234375|1.235885620117188|-0.1184844970703125|17755.06136841667|-2.31208185618561|1.541937872571042|-1.430063569210123|-0.1915546059608459|0.6279696822166443|-0.2290258258581161|-0.008099853992462158|-0.144974946975708|-0.2446253299713135|XArbitraryZVertical|-0.2920522834894396|-0.64240311191626|0.6797523081400841|0.199901677788634|0.1402115076780319|0.9901134967803955|-0.004047411028295755|0|0|0|-1|-1|3
2021-04-08 19:29:49.334 +0100|17755.10128841667|0.2655487060546875|1.053375244140625|-0.1142120361328125|17755.08132841667|-2.323096327425735|1.542849594788817|-1.434521286818077|0.3425726294517517|0.4694724082946777|-0.2030440270900726|0.04109463095664978|0.2242979407310486|-0.1242557764053345|XArbitraryZVertical|-0.294479615078187|-0.6413919682525018|0.678010229280726|0.2054272700966403|0.1358015835285187|0.9907289147377014|-0.003796198638156056|0|0|0|-1|-1|3
2021-04-08 19:29:49.354 +0100|17755.12124841667|0.3268585205078125|0.955047607421875|-0.122711181640625|17755.10128841667|-2.395843097705273|1.479332916949709|-1.43734426968357|0.4818277955055237|0.468363493680954|-0.08003101497888565|0.1160949319601059|0.1713671684265137|-0.1148003339767456|XArbitraryZVertical|-0.2953025007377271|-0.6377459685372797|0.6794612260603315|0.210735036729973|0.1325023621320724|0.9911084771156311|-0.0121530257165432|0|0|0|-1|-1|3
2021-04-08 19:29:49.374 +0100|17755.14120841667|0.3670501708984375|0.9204254150390625|-0.11480712890625|17755.12124841667|-2.445176912312976|1.440781660881491|-1.436977093748252|0.04276156425476074|0.5488303899765015|0.04035469144582748|0.1534114181995392|-0.02552914619445801|-0.1179409623146057|XArbitraryZVertical|-0.2980031337244177|-0.634464487663163|0.6799786767401121|0.2151234335602618|0.1322951912879944|0.9910595417022705|-0.01729789189994335|0|0|0|-1|-1|3
2021-04-08 19:29:49.394 +0100|17755.16116841667|0.309906005859375|0.976776123046875|-0.0421905517578125|17755.14120841667|-2.420960424896496|1.474062539270899|-1.435905730963005|-0.247793972492218|0.3774964511394501|0.04699093475937843|0.2360654324293137|-0.07004815340042114|-0.1263546347618103|XArbitraryZVertical|-0.3019431237481547|-0.6342995796215097|0.6777573083406551|0.2171165497263297|0.1338544487953186|0.9909160733222961|-0.01298878621309996|0|0|0|-1|-1|3
2021-04-08 19:29:49.414 +0100|17755.18112841667|0.3313751220703125|1.066207885742188|0.0612335205078125|17755.16116841667|-2.402334182859944|1.499306962485411|-1.436898811042119|0.1188705638051033|0.3659497499465942|-0.1081513315439224|0.2050239443778992|-0.02165830135345459|-0.08389413356781006|XArbitraryZVertical|-0.3042725584891884|-0.6345474025754951|0.6758283020532436|0.2191438590756868|0.1331576853990555|0.9910491108894348|-0.009535607881844044|0|0|0|-1|-1|3
2021-04-08 19:29:49.434 +0100|17755.20108841667|0.402801513671875|0.9400787353515625|0.07647705078125|17755.18112841667|-2.466172274186564|1.444795530930432|-1.43904464579252|0.6820051670074463|0.489622563123703|-0.1416572779417038|0.1715360134840012|0.01618915796279907|0.04673659801483154|XArbitraryZVertical|-0.3053885131001607|-0.6312553410906998|0.676758289276859|0.2241713744602848|0.1303296536207199|0.9913333058357239|-0.01650910079479218|0|0|0|-1|-1|3
2021-04-08 19:29:49.454 +0100|17755.22104841667|0.3660736083984375|0.7994842529296875|0.02392578125|17755.20108841667|-2.577708520995964|1.343834377894355|-1.438033438458332|0.6194918155670166|0.4743235111236572|-0.04553944244980812|0.2495467215776443|0.0432390570640564|0.1025251150131226|XArbitraryZVertical|-0.3064830298506642|-0.6254397368075966|0.6797120467678586|0.2299672150532941|0.1289791464805603|0.9911999702453613|-0.02978657558560371|0|0|0|-1|-1|3
2021-04-08 19:29:49.474 +0100|17755.24100841667|0.3239593505859375|0.803436279296875|-0.0243072509765625|17755.22104841667|-2.641252190918337|1.289704565122658|-1.437149085424015|0.1562379598617554|0.4302214980125427|-0.1084504127502441|0.2720352113246918|-0.1593412160873413|0.07576727867126465|XArbitraryZVertical|-0.3081252115080738|-0.6217529236441077|0.6808209562325096|0.2344463342715289|0.1280208081007004|0.991082489490509|-0.03696431219577789|0|0|0|-1|-1|3
2021-04-08 19:29:49.494 +0100|17755.26096841667|0.30078125|0.9251251220703125|-0.0269927978515625|17755.24100841667|-2.638427248375257|1.301769434622602|-1.440810691526804|-0.3459191620349884|0.5135084390640259|-0.2232172042131424|0.2102933526039124|-0.1973742842674255|0.02868449687957764|XArbitraryZVertical|-0.3103692999937193|-0.6216467536044218|0.678563861055831|0.2382801924963346|0.1249585673213005|0.9915637373924255|-0.03445242345333099|0|0|0|-1|-1|3
2021-04-08 19:29:49.514 +0100|17755.28092841667|0.25482177734375|1.05975341796875|-0.0210418701171875|17755.26096841667|-2.568239527243608|1.381784340670059|-1.44688139152614|-0.5514281988143921|0.479930579662323|-0.3315151631832123|0.1962305158376694|-0.1598587036132812|0.008681060746312141|XArbitraryZVertical|-0.3138715862600234|-0.624398294307742|0.6733509560181399|0.2412674371986306|0.1213975101709366|0.9923323392868042|-0.0232227947562933|0|0|0|-1|-1|3
2021-04-08 19:29:49.534 +0100|17755.30088841667|0.2245941162109375|1.06982421875|-0.0749969482421875|17755.28092841667|-2.487368445863771|1.472379998017041|-1.451155528359894|-0.3107340037822723|0.4783014357089996|-0.3540790677070618|0.1621663570404053|0.02091187238693237|-0.02043789625167847|XArbitraryZVertical|-0.3177039944584399|-0.6270568579981269|0.6681469829764447|0.2438107163682418|0.1187795698642731|0.9928515553474426|-0.01172773726284504|0|0|0|-1|-1|3
2021-04-08 19:29:49.554 +0100|17755.32084841667|0.1239166259765625|0.9901580810546875|-0.0392608642578125|17755.30088841667|-2.443718400818651|1.524799957218151|-1.450677295899089|-0.07027870416641235|0.300357848405838|-0.1617585420608521|0.120072990655899|0.07736551761627197|-0.01646286249160767|XArbitraryZVertical|-0.3216321700614292|-0.6275331172251977|0.665177273600756|0.2455488879099783|0.1197047010064125|0.992794394493103|-0.005509867798537016|0|0|0|-1|-1|3
2021-04-08 19:29:49.574 +0100|17755.34080941667|0.1785430908203125|0.9706878662109375|0.0661773681640625|17755.32084841667|-2.447024783549277|1.528806150612545|-1.454744394553888|0.01731853745877743|0.4930529296398163|-0.2179520428180695|0.04052998870611191|0.05497473478317261|-0.1066505908966064|XArbitraryZVertical|-0.3227477082403595|-0.6272189048373575|0.6635642038276686|0.2492248564958708|0.115690566599369|0.9932735562324524|-0.004860724322497845|0|0|0|-1|-1|3
2021-04-08 19:29:49.594 +0100|17755.36076941667|0.2211456298828125|0.8920745849609375|0.06158447265625|17755.34080941667|-2.45591561056481|1.530426767259726|-1.456774264695533|0.1162618324160576|0.4822536408901215|0.007581653539091349|0.02898719161748886|-0.04041206836700439|0.02155953645706177|XArbitraryZVertical|-0.3254452025875288|-0.6259309023554233|0.6619035770518862|0.2533371464464189|0.1136835888028145|0.9935065507888794|-0.004591851029545069|0|0|0|-1|-1|3
2021-04-08 19:29:49.614 +0100|17755.38072941667|0.1579437255859375|0.827301025390625|0.155426025390625|17755.36076941667|-2.495768449892247|1.496691236151147|-1.452648106470432|0.2404776215553284|0.1828444749116898|0.2800013720989227|0.06933942437171936|0.01530271768569946|0.09216213226318359|XArbitraryZVertical|-0.3279707695343342|-0.6229539371487706|0.6629501392100685|0.2546779026598481|0.117551326751709|0.9930286407470703|-0.008727133274078369|0|0|0|-1|-1|3
2021-04-08 19:29:49.634 +0100|17755.40068941667|0.1226654052734375|0.927703857421875|0.1949310302734375|17755.38072941667|-2.520107253480424|1.474441253625741|-1.447873756065759|0.0814802274107933|0.06096299365162849|0.06659819185733795|0.0667835995554924|-0.215034544467926|0.08894455432891846|XArbitraryZVertical|-0.3295843078301298|-0.6208672087941162|0.664242121298929|0.2543237365264737|0.122045025229454|0.9924545288085938|-0.01179618574678898|0|0|0|-1|-1|3
2021-04-08 19:29:49.654 +0100|17755.42064941667|0.0661468505859375|0.873565673828125|0.188812255859375|17755.40068941667|-2.533446391090034|1.461193659227044|-1.443096066598826|0.06995052844285965|-0.02624791674315929|0.3356074690818787|0.03442114591598511|-0.1192530393600464|0.1976462602615356|XArbitraryZVertical|-0.3307274935213843|-0.619398154134701|0.6654923051656005|0.2531509908041238|0.126590684056282|0.9918574094772339|-0.01393050327897072|0|0|0|-1|-1|3
2021-04-08 19:29:49.674 +0100|17755.44060941667|0.0113067626953125|0.901824951171875|0.18463134765625|17755.44060941667|-2.514164622081399|1.478720370383129|-1.425927914326716|-0.1504187136888504|-0.006695681251585484|0.4675830602645874|-0.1110502630472183|-0.1397172808647156|0.1891615390777588|XArbitraryZVertical|-0.3356729052764119|-0.6169983251150417|0.6676505824657599|0.2467377107551065|0.1437509059906006|0.9895249009132385|-0.01327353529632092|0|0|0|-1|-1|3
2021-04-08 19:29:49.694 +0100|17755.46056941667|0.0264739990234375|1.052993774414062|0.155670166015625||||||||||||||||||||||||3
2021-04-08 19:29:49.713 +0100|17755.48052941667|-0.040313720703125|1.062820434570312|0.166839599609375|17755.46056941667|-2.492892754578468|1.499481579709691|-1.416003166827596|-0.03737175464630127|-0.08007237315177917|0.5531095862388611|-0.1319325715303421|-0.001578092575073242|0.1978142857551575|XArbitraryZVertical|-0.3389991284282728|-0.6161061063295524|0.6682131147114659|0.2428665256173968|0.1537842303514481|0.9880434274673462|-0.01098571345210075|0|0|0|-1|-1|3
2021-04-08 19:29:49.733 +0100|17755.50048941667|-0.0952301025390625|1.219772338867188|0.0891265869140625|17755.48052941667|-2.481385923958938|1.508916633158695|-1.404608580155756|0.353784441947937|-0.1279209107160568|0.5179011821746826|-0.1651831567287445|0.08099234104156494|0.1565463542938232|XArbitraryZVertical|-0.342021108640046|-0.6147410969985075|0.6695917988497146|0.2382475399882632|0.1651079505681992|0.9862225651741028|-0.01022989023476839|0|0|0|-1|-1|3
2021-04-08 19:29:49.753 +0100|17755.52044941667|-0.1879730224609375|1.268707275390625|-0.0157928466796875|17755.50048941667|-2.539960972752614|1.449510200756823|-1.395331468987613|1.351789832115173|-0.1320787966251373|0.4297620952129364|-0.2421614527702332|0.1389963626861572|0.152620792388916|XArbitraryZVertical|-0.3427260275710791|-0.6099004356335695|0.6741635637821164|0.2367783323269562|0.1732843816280365|0.9846454858779907|-0.02112065814435482|0|0|0|-1|-1|3
2021-04-08 19:29:49.773 +0100|17755.54040941667|-0.268035888671875|0.8658294677734375|0.035125732421875|17755.52044941667|-2.745214917233924|1.244259297364645|-1.378440911668272|2.643252849578857|-0.1529351770877838|0.4045462310314178|-0.3152399659156799|0.326396107673645|0.04455184936523438|XArbitraryZVertical|-0.3391897039818501|-0.5952223592779435|0.6878410961111932|0.2398655802051465|0.1810705214738846|0.9815566539764404|-0.06132137402892113|0|0|0|-1|-1|3
2021-04-08 19:29:49.793 +0100|17755.56036941667|-0.34002685546875|0.767059326171875|0.052398681640625|17755.54040941667|-2.972060612101775|1.021031175701121|-1.348060915125911|2.722722768783569|0.0887904167175293|0.3334620296955109|-0.430535227060318|0.1503744125366211|0.09655684232711792|XArbitraryZVertical|-0.3342949225599803|-0.5749247892125238|0.7050624228312756|0.2461615633263259|0.188348799943924|0.9752968549728394|-0.1154167801141739|0|0|0|-1|-1|3
2021-04-08 19:29:49.813 +0100|17755.58032941667|-0.5070037841796875|1.194381713867188|0.1175537109375|17755.56036941667|3.127462351823105|0.8457112270040608|-1.309229797441785|3.196475982666016|0.2001107037067413|0.1120895072817802|-0.4811708331108093|-0.3065012097358704|0.1695164293050766|XArbitraryZVertical|-0.3294507795785683|-0.5529123953856727|0.7216281457984414|0.2549573189264648|0.1935437917709351|0.9659860730171204|-0.1715001314878464|0|0|0|-1|-1|3
2021-04-08 19:29:49.833 +0100|17755.60028941667|-0.5122833251953125|1.111297607421875|0.0106658935546875|17755.58032941667|2.958174057146631|0.6902692187889874|-1.257808663140326|3.737144470214844|0.7135137915611267|0.03648706898093224|-0.6149083971977234|0.1077709197998047|0.2832689583301544|XArbitraryZVertical|-0.3231393230163984|-0.5261870341551936|0.739560979095587|0.2678768872279184|0.1960557848215103|0.9514179229736328|-0.2374163717031479|0|0|0|-1|-1|3
2021-04-08 19:29:49.853 +0100|17755.62024941667|-0.33367919921875|1.256546020507812|-0.156494140625|17755.60028941667|2.817191024954139|0.582491084704825|-1.196259192047702|4.200229644775391|1.735289096832275|-0.2977381348609924|-0.7585933208465576|0.2352011203765869|0.4404005408287048|XArbitraryZVertical|-0.3212850016626594|-0.4939833198024274|0.7550869214165805|0.2874027230307416|0.2012519091367722|0.930677056312561|-0.3055128455162048|0|0|0|-1|-1|3
2021-04-08 19:29:49.873 +0100|17755.64020941667|-0.44793701171875|1.008026123046875|-0.3326568603515625|17755.62024941667|2.681357519431698|0.4951665305250311|-1.127405417590422|4.201884746551514|1.858726859092712|-0.7409452199935913|-0.6159011125564575|0.2856777906417847|0.2689415216445923|XArbitraryZVertical|-0.3198436246020637|-0.4571230035397588|0.7680386809744486|0.3144127779467192|0.2038539201021194|0.9033021330833435|-0.37747722864151|0|0|0|-1|-1|3
2021-04-08 19:29:49.893 +0100|17755.66016941667|-0.4258880615234375|0.8631591796875|-0.7352142333984375|17755.64020941667|2.567353725977274|0.4296687040243525|-1.060455708024685|3.788299798965454|1.868887662887573|-1.015491008758545|-0.5458440780639648|0.2460740804672241|0.1226631999015808|XArbitraryZVertical|-0.3163104220697434|-0.4217944881083381|0.7778245538097679|0.3420910924250027|0.2034837454557419|0.8725782036781311|-0.4440742433071136|0|0|0|-1|-1|3
2021-04-08 19:29:49.913 +0100|17755.68012941667|-0.23291015625|1.086456298828125|-1.273223876953125|17755.66016941667|2.475048402193345|0.3939661576877667|-1.007782298001345|2.893641233444214|2.415493965148926|-1.202266454696655|-0.6944237351417542|0.01505208015441895|-0.02402612566947937|XArbitraryZVertical|-0.3168556009349898|-0.3913790574378449|0.7806096919824815|0.3702343952790823|0.2048771232366562|0.8456502556800842|-0.4928499162197113|0|0|0|-1|-1|3
2021-04-08 19:29:49.933 +0100|17755.70008941667|-0.3564300537109375|1.002365112304688|-2.04827880859375|17755.68012941667|2.396839836370073|0.3723215447358886|-0.969620404324405|2.318071603775024|1.730628609657288|-1.427909255027771|-0.4949567019939423|0.1319633722305298|-0.4745741486549377|XArbitraryZVertical|-0.3191652564281268|-0.3670198228414244|0.7785040597042616|0.3966882663576023|0.2057579755783081|0.8246710896492004|-0.5268599987030029|0|0|0|-1|-1|3
2021-04-08 19:29:49.953 +0100|17755.72004941667|-0.246673583984375|0.7148895263671875|-2.5780029296875|17755.70008941667|2.323732468110141|0.3359622570339942|-0.940168397602981|1.787158608436584|0.6749306917190552|-1.475043892860413|-0.4629487991333008|0.3015649318695068|-1.096068739891052|XArbitraryZVertical|-0.3143415724517759|-0.3504939010716065|0.7763935251970211|0.4189948770749864|0.1943952292203903|0.8076574206352234|-0.5566868185997009|0|0|0|-1|-1|3
2021-04-08 19:29:49.973 +0100|17755.74000941667|0.0995941162109375|1.012222290039062|-2.69830322265625|17755.72004941667|2.264483742322953|0.2925178762884166|-0.9213871127101877|1.183630704879761|-0.4831182658672333|-1.34390652179718|-0.5365446209907532|0.01433455944061279|-1.78690779209137|XArbitraryZVertical|-0.3049526851699363|-0.3427677407782891|0.7748062026590713|0.4349593639491779|0.1743783801794052|0.7964411973953247|-0.5790282487869263|0|0|0|-1|-1|3
2021-04-08 19:29:49.993 +0100|17755.75997079167|0.480255126953125|1.216033935546875|-2.122940063476562|17755.74000941667|2.213359038938222|0.2230773400623309|-0.9048387559621899|1.328855514526367|-2.373385906219482|-1.273828983306885|-0.2098902761936188|0.002462327480316162|-2.103031873703003|XArbitraryZVertical|-0.2839829824683024|-0.3436593805841268|0.7774737434136466|0.4436062581266201|0.1366797238588333|0.7863255739212036|-0.602503776550293|0|0|0|-1|-1|3
2021-04-08 19:29:50.013 +0100|17755.77993079167|0.768951416015625|1.092605590820312|-1.343917846679688|17755.75997079167|2.167966488042622|0.1232199739236112|-0.8787767584073413|1.75249969959259|-4.009878158569336|-1.074406266212463|0.2357830405235291|0.4389644265174866|-1.871703386306763|XArbitraryZVertical|-0.2478720732005884|-0.3491871904557568|0.7861049077738961|0.4457206120999955|0.07842704653739929|0.7699589133262634|-0.6332554817199707|0|0|0|-1|-1|3
2021-04-08 19:29:50.033 +0100|17755.79989079167|1.163772583007812|0.900054931640625|-0.8018341064453125|17755.77993079167|2.136491157369202|0.01031458678487288|-0.8477799842061323|1.216577053070068|-4.68601655960083|-0.7279541492462158|0.6323519945144653|0.427814245223999|-1.047049760818481|XArbitraryZVertical|-0.2022292084549833|-0.358184667895271|0.7977632625508537|0.4408864695070481|0.006824519019573927|0.7498133778572083|-0.6616141796112061|0|0|0|-1|-1|3
2021-04-08 19:29:50.053 +0100|17755.81985079167|1.49847412109375|1.070175170898438|-0.336700439453125|17755.79989079167|2.113688227564547|-0.1029688127519178|-0.8440440485685362|-1.837977647781372|-4.898313999176025|-0.6917293071746826|1.002959370613098|0.3510067462921143|-0.6787034273147583|XArbitraryZVertical|-0.1602233151123164|-0.3792955202129218|0.803716199066681|0.4295391338156441|-0.06829638779163361|0.7473362684249878|-0.6609268188476562|0|0|0|-1|-1|3
2021-04-08 19:29:50.073 +0100|17755.83981079167|0.9899444580078125|1.097381591796875|0.074920654296875|17755.81985079167|2.0688143512162|-0.2414090376734163|-0.90705329092946|-4.408911228179932|-5.700387477874756|-1.231530666351318|1.575859069824219|-0.2835260629653931|-0.01934897899627686|XArbitraryZVertical|-0.1292374156100085|-0.4291797513554631|0.7940034095593852|0.4106837489504656|-0.1472844034433365|0.7876917719841003|-0.5982048511505127|0|0|0|-1|-1|3
2021-04-08 19:29:50.093 +0100|17755.85977079167|0.7394256591796875|1.014205932617188|0.407623291015625|17755.83981079167|1.971420690288807|-0.435654294637181|-0.9885845969361198|-4.871640205383301|-5.42598295211792|-1.384651064872742|1.562631011009216|0.6300226449966431|0.3630131483078003|XArbitraryZVertical|-0.09721348585679522|-0.4912166397537719|0.7731577980867375|0.3892082065523741|-0.232048362493515|0.8352485299110413|-0.4985114932060242|0|0|0|-1|-1|3
2021-04-08 19:29:50.113 +0100|17755.87973079167|0.7269287109375|1.29779052734375|0.5240631103515625|17755.85977079167|1.84122540426034|-0.641547541920646|-1.053842737162611|-3.696049451828003|-4.045411586761475|-1.092370867729187|1.108192324638367|0.05765819549560547|0.6270447373390198|XArbitraryZVertical|-0.07195022718138439|-0.5448303617356882|0.7488920564148287|0.370329554799231|-0.2957676649093628|0.8693288564682007|-0.3959660828113556|0|0|0|-1|-1|3
2021-04-08 19:29:50.133 +0100|17755.89969079167|0.501007080078125|0.6950836181640625|0.5447540283203125|17755.87973079167|1.742022864648251|-0.800435709115764|-1.075236488665054|-1.173272848129272|-3.228801012039185|-0.9970318675041199|1.040469169616699|0.3065006732940674|0.9112301468849182|XArbitraryZVertical|-0.04774596035574401|-0.5763194516661626|0.7336435781631934|0.3568521974924692|-0.3412646949291229|0.879702627658844|-0.3311524391174316|0|0|0|-1|-1|3
2021-04-08 19:29:50.153 +0100|17755.91965079167|0.4988861083984375|0.5810394287109375|0.369110107421875|17755.89969079167|1.70342631022359|-0.8852594242363544|-1.072863131121262|-0.370736688375473|-1.810563802719116|-0.4982068538665771|0.9760633111000061|0.1499474048614502|0.8536543846130371|XArbitraryZVertical|-0.02719471362850708|-0.5899791887173003|0.7285879707076918|0.3469072355400059|-0.3697086274623871|0.8785715699195862|-0.302370011806488|0|0|0|-1|-1|3
2021-04-08 19:29:50.173 +0100|17755.93961079167|0.313873291015625|0.43756103515625|0.2622528076171875|17755.91965079167|1.679855214560905|-0.9323894870219941|-1.071735187410399|-0.511883020401001|-0.9699268937110901|-0.2460764497518539|0.8889023661613464|-0.2947189807891846|0.7477306723594666|XArbitraryZVertical|-0.01668083408438397|-0.5975938376844695|0.7250985632540599|0.3418121215413007|-0.3843391239643097|0.8780322670936584|-0.2852067053318024|0|0|0|-1|-1|3
2021-04-08 19:29:50.193 +0100|17755.95957079167|0.2664642333984375|0.76812744140625|0.346954345703125|17755.93961079167|1.652110174435101|-0.969285522903776|-1.079920499350664|-1.005766153335571|-0.1804519146680832|0.125790148973465|0.8046607375144958|-0.3667070269584656|0.5490310192108154|XArbitraryZVertical|-0.01450386813394518|-0.6053181422514744|0.720370837826558|0.3382979811177006|-0.3886594772338867|0.881920337677002|-0.2667591571807861|0|0|0|-1|-1|3
2021-04-08 19:29:50.213 +0100|17755.97953079167|0.273956298828125|0.93798828125|0.2052459716796875|17755.95957079167|1.625845093286671|-0.987627432817248|-1.09080755300123|-0.5012508034706116|0.5561085939407349|0.0756661668419838|0.6246925592422485|-0.3867707252502441|0.6069899797439575|XArbitraryZVertical|-0.01967501626304773|-0.6103041136569249|0.715762814178296|0.3388593631151633|-0.385449230670929|0.8870000839233398|-0.2542835772037506|0|0|0|-1|-1|3
2021-04-08 19:29:50.233 +0100|17755.99949079167|0.162261962890625|0.6534881591796875|0.049957275390625|17755.97953079167|1.628403237020667|-0.9735790629697737|-1.093581809703395|0.4213288724422455|0.628911018371582|0.2401813417673111|0.686413586139679|0.09214556217193604|0.5373100638389587|XArbitraryZVertical|-0.02488871811486968|-0.6084705374200552|0.7159628936982283|0.3413816770076379|-0.3798025846481323|0.8882777690887451|-0.2582883238792419|0|0|0|-1|-1|3
2021-04-08 19:29:50.252 +0100|17756.01945079167|0.0689239501953125|0.60662841796875|-0.1125946044921875|17755.99949079167|1.65408874615743|-0.9364504070818527|-1.091489332882398|0.5806373357772827|0.7596919536590576|0.2618992328643799|0.5732173323631287|-0.1219945549964905|0.4259580969810486|XArbitraryZVertical|-0.02971976952488626|-0.6020481093118516|0.7199307621833059|0.3440271821006664|-0.3714494705200195|0.8873147368431091|-0.2733096182346344|0|0|0|-1|-1|3
2021-04-08 19:29:50.272 +0100|17756.03941079167|-0.050262451171875|0.63037109375|-0.118927001953125|17756.01945079167|1.678493937225588|-0.9011732529138636|-1.090102645066201|0.4186494648456573|0.5833199024200439|0.3060234785079956|0.4913891553878784|-0.2647716403007507|0.2334451377391815|XArbitraryZVertical|-0.03466561811700849|-0.596067413464491|0.7236363612178364|0.3461971065796284|-0.3625430166721344|0.8866744041442871|-0.2870038747787476|0|0|0|-1|-1|3
2021-04-08 19:29:50.292 +0100|17756.05937079167|-0.124664306640625|0.530181884765625|-0.113739013671875|17756.03941079167|1.701234682363991|-0.8703885178348931|-1.089635624650158|0.3581663370132446|0.5032851099967957|0.3628453612327576|0.3556095957756042|-0.2719103097915649|0.1622918248176575|XArbitraryZVertical|-0.03892286295556051|-0.5910483059616289|0.7270374782824442|0.3472226277311555|-0.3538539409637451|0.8864583373069763|-0.2982938289642334|0|0|0|-1|-1|3
2021-04-08 19:29:50.313 +0100|17756.07933179167|-0.148529052734375|0.6465301513671875|-0.132476806640625|17756.07933179167|1.725462044629476|-0.832044096062339|-1.101054412134365|-0.464991569519043|0.2488258183002472|0.3837901651859283|0.1940595507621765|-0.3245003819465637|0.1843501329421997|XArbitraryZVertical|-0.04958457950461297|-0.5874858806674828|0.7296623869064834|0.3464024726209829|-0.3346531093120575|0.8916851282119751|-0.3048034310340881|0|0|0|-1|-1|3
2021-04-08 19:29:50.332 +0100|17756.09929179167|-0.2193145751953125|0.6215057373046875|-0.1969146728515625||||||||||||||||||||||||3
2021-04-08 19:29:50.352 +0100|17756.11925179167|-0.2836456298828125|0.6372222900390625|-0.1733856201171875|17756.09929179167|1.717739355901575|-0.8365498591826144|-1.115659899809776|-0.7894364595413208|0.03903499990701675|0.4550915956497192|0.1470146775245667|-0.2471692562103271|0.1350947618484497|XArbitraryZVertical|-0.05510061524998385|-0.5913516468999993|0.7274234054464682|0.3436895170793919|-0.3263197839260101|0.898201048374176|-0.294534295797348|0|0|0|-1|-1|3
2021-04-08 19:29:50.372 +0100|17756.13921179167|-0.2923583984375|0.759307861328125|-0.1061859130859375|17756.11925179167|1.697389362681747|-0.8539411056881235|-1.135439007802568|-1.112370014190674|0.04954687133431435|0.4278879463672638|0.058643639087677|-0.2918510437011719|0.09893998503684998|XArbitraryZVertical|-0.06148955741454703|-0.5980599168559295|0.723078219258465|0.3401488711919807|-0.3179352879524231|0.9067193865776062|-0.2770867347717285|0|0|0|-1|-1|3
2021-04-08 19:29:50.392 +0100|17756.15917179167|-0.297882080078125|0.84173583984375|-0.059783935546875|17756.13921179167|1.666283499244923|-0.8809939293986123|-1.156287586893096|-1.084704160690308|0.02551674470305443|0.3330367207527161|0.01590961217880249|-0.2173464298248291|0.1366838812828064|XArbitraryZVertical|-0.06818142797081131|-0.6059722073640763|0.7173216634862628|0.3370441110442558|-0.3106626868247986|0.915314257144928|-0.2562979459762573|0|0|0|-1|-1|3
2021-04-08 19:29:50.412 +0100|17756.17913179167|-0.3283538818359375|0.7675933837890625|-0.097900390625|17756.15917179167|1.63729145394599|-0.9083442878814356|-1.17432034186636|-0.9612511396408081|-0.08715243637561798|0.4333321452140808|0.0083179771900177|-0.09778130054473877|0.1539116054773331|XArbitraryZVertical|-0.07342122962918345|-0.6130675876886041|0.7123475918703512|0.3336442937136329|-0.3044901192188263|0.9224275946617126|-0.2375149130821228|0|0|0|-1|-1|3
2021-04-08 19:29:50.432 +0100|17756.19909179167|-0.365966796875|0.831939697265625|-0.178955078125|17756.17913179167|1.615523162023717|-0.9312436059372894|-1.194276241720919|-0.9216197729110718|-0.1723855882883072|0.6317183375358582|-0.01026338338851929|-0.1265894770622253|0.1525235772132874|XArbitraryZVertical|-0.07889019672348124|-0.6197191551022448|0.7085169961152236|0.3282199526326151|-0.2950182855129242|0.9299497604370117|-0.2194490134716034|0|0|0|-1|-1|3
2021-04-08 19:29:50.452 +0100|17756.21905179167|-0.3570098876953125|1.057296752929688|-0.2363739013671875|17756.19909179167|1.596806172095131|-0.9526056005428685|-1.216620507612696|-0.8490816950798035|-0.213460847735405|0.7676340937614441|-0.06307041645050049|-0.1773275136947632|0.07435405254364014|XArbitraryZVertical|-0.08493475872021704|-0.6263265062962731|0.7051921159267458|0.321256102855236|-0.2826317846775055|0.9379326701164246|-0.2010023891925812|0|0|0|-1|-1|3
2021-04-08 19:29:50.472 +0100|17756.23901179167|-0.3264312744140625|1.044586181640625|-0.2663116455078125|17756.21905179167|1.597846336677193|-0.9553084922876367|-1.235142289668526|-0.0937308669090271|-0.1868104934692383|0.7575963735580444|-0.1072472035884857|0.005542874336242676|-0.00692412257194519|XArbitraryZVertical|-0.09010277407441043|-0.6299162347357735|0.7045111170878293|0.3142472614359268|-0.2689420878887177|0.9441950917243958|-0.1901740580797195|0|0|0|-1|-1|3
2021-04-08 19:29:50.492 +0100|17756.25897179167|-0.420379638671875|0.7169952392578125|-0.2592010498046875|17756.23901179167|1.637577767798269|-0.9232072322873119|-1.24449025513793|0.5046821236610413|-0.4209518134593964|0.8114739060401917|-0.08115723729133606|0.1732814311981201|-0.06025716662406921|XArbitraryZVertical|-0.09217743895347959|-0.6283437809982563|0.7086597650816547|0.3073906494586912|-0.2556491196155548|0.9472329020500183|-0.193374827504158|0|0|0|-1|-1|3
2021-04-08 19:29:50.512 +0100|17756.27893179167|-0.430328369140625|0.571929931640625|-0.241119384765625|17756.25897179167|1.698316924181552|-0.8749004452521414|-1.25146877634958|0.4435878396034241|-0.4200542867183685|0.9643092155456543|-0.126374751329422|-0.08357119560241699|-0.07763397693634033|XArbitraryZVertical|-0.09270926162314176|-0.6251234657776784|0.7150992832247404|0.29876221649517|-0.240933895111084|0.9494467377662659|-0.201251283288002|0|0|0|-1|-1|3
2021-04-08 19:29:50.532 +0100|17756.29889179167|-0.3985748291015625|0.649749755859375|-0.1844329833984375|17756.27893179167|1.751919015819985|-0.8295180705963391|-1.265614185659919|-0.08278859406709671|-0.1787391901016235|1.147772073745728|-0.2143315672874451|-0.3290209770202637|-0.03854015469551086|XArbitraryZVertical|-0.09694433528602425|-0.6238264263894228|0.719488686063168|0.2894451188496762|-0.2216263264417648|0.9537922143936157|-0.202884778380394|0|0|0|-1|-1|3
2021-04-08 19:29:50.552 +0100|17756.31885179167|-0.31195068359375|0.7186431884765625|-0.1801300048828125|17756.29889179167|1.798474130355876|-0.7875694506051604|-1.285304948875733|-0.2681163251399994|-0.05670803785324097|1.237664937973022|-0.2159524261951447|-0.380131721496582|-0.01300691068172455|XArbitraryZVertical|-0.103912826924765|-0.6243777212387527|0.7217937704933359|0.2799437024052942|-0.1995739638805389|0.9595233798027039|-0.198709174990654|0|0|0|-1|-1|3
2021-04-08 19:29:50.572 +0100|17756.33881179167|-0.274017333984375|0.7242889404296875|-0.2043914794921875|17756.31885179167|1.854650251591019|-0.7333677412707106|-1.307429644949091|-0.269416481256485|0.0313543900847435|1.410440921783447|-0.1872039139270782|-0.2617834806442261|0.03082497417926788|XArbitraryZVertical|-0.1129239248175733|-0.6249354333213926|0.7236727954237947|0.2701883177902005|-0.1742605566978455|0.9655190110206604|-0.1934077888727188|0|0|0|-1|-1|3
2021-04-08 19:29:50.592 +0100|17756.35877179167|-0.2684478759765625|0.804718017578125|-0.25213623046875|17756.33881179167|1.930400397025544|-0.6592915243366753|-1.332839140422622|-0.511326014995575|0.0702323317527771|1.68337094783783|-0.1405662298202515|-0.2419783473014832|0.008827060461044312|XArbitraryZVertical|-0.1237535031975428|-0.6257205718611712|0.7253689221855|0.2588412234185319|-0.1443906724452972|0.9718215465545654|-0.1863176673650742|0|0|0|-1|-1|3
2021-04-08 19:29:50.612 +0100|17756.37873279167|-0.1781768798828125|0.95159912109375|-0.2116546630859375|17756.35877179167|2.026103901360099|-0.5630840663731407|-1.363101133428724|-0.703895628452301|0.2390088886022568|1.772626519203186|-0.1650278568267822|-0.2415549159049988|-0.06139378249645233|XArbitraryZVertical|-0.1372450835981931|-0.6276772319003844|0.7256046529806656|0.2463393751451121|-0.1100718900561333|0.9785087704658508|-0.1743701547384262|0|0|0|-1|-1|3
2021-04-08 19:29:50.632 +0100|17756.39869279167|-0.0875396728515625|1.074859619140625|-0.22454833984375|17756.37873279167|2.161658710860968|-0.4230425505604473|-1.390888240833523|-0.4244412481784821|0.426464855670929|1.815232396125793|-0.1618588268756866|-0.1055184006690979|-0.06292496621608734|XArbitraryZVertical|-0.1525768809201179|-0.6285999062838745|0.7256458472193942|0.2345647663556025|-0.07346121966838837|0.9838601350784302|-0.1631649136543274|0|0|0|-1|-1|3
2021-04-08 19:29:50.652 +0100|17756.41865279167|-0.0636138916015625|0.9553070068359375|-0.23284912109375|17756.39869279167|2.359861889119159|-0.2198843772767357|-1.405476150852353|0.02009581588208675|0.3633207678794861|1.900793552398682|-0.07993325591087341|0.03991001844406128|-0.06568169593811035|XArbitraryZVertical|-0.1673393468027347|-0.6258548561399749|0.7282818804733597|0.2234029638119544|-0.03589523211121559|0.9863657355308533|-0.1606064885854721|0|0|0|-1|-1|3
2021-04-08 19:29:50.672 +0100|17756.43861279167|-0.0152587890625|1.02691650390625|-0.248046875|17756.41865279167|2.596310300579443|0.02236842349548755|-1.407783836614691|0.1128343939781189|0.5341800451278687|1.924274921417236|-0.08369177579879761|0.03945648670196533|-0.06284664571285248|XArbitraryZVertical|-0.1824726850358148|-0.6209493228325236|0.7321762262163632|0.2122350428471378|0.00362991145811975|0.9867428541183472|-0.1622513085603714|0|0|0|-1|-1|3
2021-04-08 19:29:50.692 +0100|17756.45857279167|0.002838134765625|1.008636474609375|-0.18914794921875|17756.43861279167|2.819118602237167|0.2533026654364497|-1.400838490003345|0.1118033826351166|0.5773676037788391|1.849050879478455|-0.07488755881786346|-0.003749847412109375|-0.07220268249511719|XArbitraryZVertical|-0.1979677136141704|-0.615578284741541|0.7355409450033688|0.2021183941524627|0.04238732904195786|0.9855918884277344|-0.1637443155050278|0|0|0|-1|-1|3
2021-04-08 19:29:50.712 +0100|17756.47853279167|0.1329803466796875|1.038681030273438|-0.11529541015625|17756.45857279167|3.011617041676017|0.4563094624646399|-1.38558791291267|0.1113823354244232|0.8375636339187622|1.848062872886658|-0.09487657248973846|0.05164802074432373|-0.06073307991027832|XArbitraryZVertical|-0.2140733159327807|-0.6095220437805483|0.7385611047848377|0.1928296009744869|0.08114466816186905|0.9828978776931763|-0.1653109937906265|0|0|0|-1|-1|3
2021-04-08 19:29:50.731 +0100|17756.49849279167|0.2103118896484375|1.107421875|-0.1100616455078125|17756.47853279167|-3.11777092634292|0.6267915170700078|-1.365799903216772|0.05709785968065262|1.071653723716736|1.726677656173706|-0.06327787041664124|0.01721519231796265|0.01257143914699554|XArbitraryZVertical|-0.2319882099315975|-0.6031140523487283|0.7402264330707816|0.1857417348294775|0.1194007098674774|0.9790617227554321|-0.1648698151111603|0|0|0|-1|-1|3
2021-04-08 19:29:50.751 +0100|17756.51845279167|0.1679229736328125|1.071762084960938|-0.1782379150390625|17756.49849279167|-3.000475330595639|0.7616299472548143|-1.343622407650688|0.04450488463044167|0.957427978515625|1.616886854171753|0.03454448282718658|0.1195040941238403|0.06300713121891022|XArbitraryZVertical|-0.2494500456848926|-0.5968882045969702|0.7411261567680015|0.1795306680066198|0.1554284244775772|0.9743067622184753|-0.1629982888698578|0|0|0|-1|-1|3
2021-04-08 19:29:50.771 +0100|17756.53841279167|0.063812255859375|1.14776611328125|-0.2109375|17756.51845279167|-2.911851356782782|0.8656610046797669|-1.321496335587665|-0.02107039839029312|0.8488239049911499|1.439579010009766|0.01330040395259857|0.1182099580764771|0.02931196987628937|XArbitraryZVertical|-0.2651255605806222|-0.5913986189346695|0.7415053587192835|0.1735684761850389|0.1878877282142639|0.9690853953361511|-0.1599122285842896|0|0|0|-1|-1|3
2021-04-08 19:29:50.791 +0100|17756.55837279167|0.152862548828125|1.255462646484375|-0.1917877197265625|17756.53841279167|-2.84572767107693|0.9485505576337635|-1.301507494220266|-0.03061601519584656|1.116861939430237|1.189359068870544|-0.1111694723367691|0.1459789872169495|-0.04981200397014618|XArbitraryZVertical|-0.2799558837990094|-0.5865924448440274|0.740856235102278|0.1693106099458484|0.2161814719438553|0.9639603495597839|-0.1550680100917816|0|0|0|-1|-1|3
2021-04-08 19:29:50.811 +0100|17756.57833279167|0.307525634765625|1.354751586914062|-0.174407958984375|17756.55837279167|-2.802367679734898|1.01631950975806|-1.283287636275111|0.1329160630702972|1.436492800712585|0.9866459369659424|-0.1602831482887268|0.2536013722419739|-0.04446022212505341|XArbitraryZVertical|-0.295940970873196|-0.5811805922415954|0.7390001909215033|0.1688988161889341|0.2410794347524643|0.958953320980072|-0.1492961198091507|0|0|0|-1|-1|3
2021-04-08 19:29:50.831 +0100|17756.59829279167|0.3261260986328125|1.286865234375|-0.184356689453125|17756.57833279167|-2.791747722328581|1.05471804017814|-1.264857489342896|0.5176383256912231|1.344982147216797|0.7868722081184387|-0.02073517441749573|0.3436916470527649|-0.04038225114345551|XArbitraryZVertical|-0.3108315209128883|-0.5736457801433734|0.738143717098194|0.1716340552319572|0.261962354183197|0.9535645842552185|-0.1486285626888275|0|0|0|-1|-1|3
2021-04-08 19:29:50.851 +0100|17756.61825379167|0.2390594482421875|1.107803344726562|-0.1923675537109375|17756.59829279167|-2.802471489340579|1.068631315115419|-1.245894848090422|0.6810291409492493|1.080246210098267|0.7042157649993896|0.05855843424797058|0.4187726378440857|-0.02294383943080902|XArbitraryZVertical|-0.3229331377106306|-0.5647043630306187|0.7390751547395142|0.174903468182037|0.2798062264919281|0.9476822018623352|-0.1536463350057602|0|0|0|-1|-1|3
2021-04-08 19:29:50.871 +0100|17756.63821379167|0.26544189453125|1.094100952148438|-0.1927032470703125|17756.61825379167|-2.815306684129158|1.077981084744467|-1.229059086623398|0.5050381422042847|1.125232338905334|0.5683979392051697|-0.01829841732978821|0.2500103116035461|-0.02083222568035126|XArbitraryZVertical|-0.3334252681397045|-0.5563743989684811|0.73996582247829|0.1781175992061479|0.2952464520931244|0.9421738982200623|-0.1585502326488495|0|0|0|-1|-1|3
2021-04-08 19:29:50.891 +0100|17756.65817379167|0.346038818359375|1.14019775390625|-0.2126007080078125|17756.63821379167|-2.818756973305633|1.098624614371704|-1.21630152473954|0.2695311605930328|1.265609264373779|0.5328578948974609|-0.07260870933532715|0.1612683534622192|-0.02445119619369507|XArbitraryZVertical|-0.3446039200386153|-0.5498272839539513|0.7388102151677117|0.1819276216508752|0.3091362416744232|0.9378219842910767|-0.157876193523407|0|0|0|-1|-1|3
2021-04-08 19:29:50.911 +0100|17756.67813379167|0.3481597900390625|1.190261840820312|-0.2204132080078125|17756.65817379167|-2.819473059324054|1.122985944667076|-1.205448263259401|0.3068983256816864|1.195517063140869|0.4300909042358398|-0.01780015230178833|0.177679181098938|-0.03808245062828064|XArbitraryZVertical|-0.3560022610899748|-0.5439795746956412|0.7366896160482006|0.1861101318614312|0.3220461308956146|0.9339994788169861|-0.1546972244977951|0|0|0|-1|-1|3
2021-04-08 19:29:50.931 +0100|17756.69809379167|0.3428802490234375|1.206329345703125|-0.1976470947265625|17756.67813379167|-2.828946935705969|1.136579560421117|-1.195389465304293|0.4430453181266785|1.091139912605286|0.328066885471344|0.02375942468643188|0.2521820068359375|-0.05900679528713226|XArbitraryZVertical|-0.3656225730833978|-0.5377686001408221|0.7353629590323377|0.1906998019684908|0.3326258659362793|0.9303585290908813|-0.1542501300573349|0|0|0|-1|-1|3
2021-04-08 19:29:50.951 +0100|17756.71805379167|0.3829345703125|1.10797119140625|-0.28741455078125|17756.69809379167|-2.849012697619197|1.140228996751305|-1.18565942990145|0.5875819325447083|1.154684782028198|0.258229672908783|-0.001094609498977661|0.2575026154518127|-0.0634390115737915|XArbitraryZVertical|-0.3742879788221253|-0.5305707330332521|0.734689772014144|0.1965561782048791|0.3413971960544586|0.9267470240592957|-0.1568064093589783|0|0|0|-1|-1|3
2021-04-08 19:29:50.971 +0100|17756.73801379167|0.4337310791015625|1.184921264648438|-0.4116668701171875|17756.71805379167|-2.873008538520361|1.140831666038495|-1.175393276502763|0.7306134104728699|1.118181467056274|0.2503402233123779|0.01956945657730103|0.2481025457382202|-0.06685888767242432|XArbitraryZVertical|-0.3828566906569058|-0.5226295941203518|0.7342385619983863|0.202911158204103|0.3501215279102325|0.9228413701057434|-0.1605581194162369|0|0|0|-1|-1|3
2021-04-08 19:29:50.991 +0100|17756.75797379167|0.58709716796875|1.190155029296875|-0.6170196533203125|17756.73801379167|-2.906653828234158|1.132868383778743|-1.164906753625408|0.9334471225738525|1.181330561637878|0.1653452813625336|0.03239306807518005|0.2331647872924805|-0.1618181616067886|XArbitraryZVertical|-0.3906569735256017|-0.5134872279487667|0.7344265172529142|0.2105610077760108|0.3575769066810608|0.9187515377998352|-0.1674359887838364|0|0|0|-1|-1|3
2021-04-08 19:29:51.011 +0100|17756.777934125|0.6912078857421875|1.227615356445312|-0.9476165771484375|17756.75797379167|-2.955127788624329|1.111821380083943|-1.153130940242183|1.363540768623352|1.113357901573181|0.05382930859923363|0.1438293755054474|0.2692347168922424|-0.3335089087486267|XArbitraryZVertical|-0.3973751759380902|-0.5022353727450928|0.735793190933011|0.220139165324639|0.363648533821106|0.9140384197235107|-0.1797052025794983|0|0|0|-1|-1|3
2021-04-08 19:29:51.031 +0100|17756.797894125|0.79949951171875|1.272674560546875|-1.318496704101562|17756.777934125|-3.031353424402684|1.061822778943666|-1.136919056287321|2.375000476837158|0.7896603941917419|-0.120964340865612|0.2906255424022675|0.2932949066162109|-0.5223692655563354|XArbitraryZVertical|-0.4004679145054659|-0.487032641856637|0.7406388546063035|0.2321184765948677|0.367105633020401|0.9073426127433777|-0.2048493176698685|0|0|0|-1|-1|3
2021-04-08 19:29:51.051 +0100|17756.817854125|0.9203948974609375|0.838958740234375|-1.544525146484375|17756.797894125|3.136327425067894|0.9713757034079082|-1.111570321273175|3.178820610046387|0.5229173302650452|-0.3435983955860138|0.3491252958774567|0.4289366006851196|-0.8364487886428833|XArbitraryZVertical|-0.3977814512967628|-0.465548779500513|0.7505960537369073|0.2482741319417712|0.3659789264202118|0.8963958621025085|-0.2500685155391693|0|0|0|-1|-1|3
2021-04-08 19:29:51.071 +0100|17756.837814125|0.8782501220703125|0.9427490234375|-1.652587890625|17756.817854125|3.011346064668048|0.8656519554727382|-1.083585981559402|3.006066560745239|0.03123849257826805|-0.9537554383277893|0.5103690624237061|0.2195982933044434|-1.154921889305115|XArbitraryZVertical|-0.3890704260258219|-0.4437407302988769|0.7620517542447848|0.2664498374195993|0.3565143048763275|0.883642315864563|-0.3034367263317108|0|0|0|-1|-1|3
2021-04-08 19:29:51.091 +0100|17756.857775125|0.3805084228515625|0.893768310546875|-1.725814819335938|17756.837814125|2.879515940118683|0.7452785493479647|-1.06688244202046|2.750537872314453|-0.5280453562736511|-2.31124210357666|0.6107712984085083|-0.1216408014297485|-1.244300365447998|XArbitraryZVertical|-0.372685890288086|-0.4285786921434192|0.770902093178957|0.2883326316101029|0.32746222615242|0.8756994009017944|-0.3548510670661926|0|0|0|-1|-1|3
2021-04-08 19:29:51.111 +0100|17756.877735125|-0.278594970703125|0.8123779296875|-2.381912231445312|17756.857775125|2.736403115089322|0.6030088709001779|-1.061553425527812|1.849423885345459|-1.083164215087891|-2.553045272827148|0.4189994931221008|0.2547392845153809|-1.242202997207642|XArbitraryZVertical|-0.3481216740785298|-0.4219525697525786|0.776422558248177|0.3129464275686837|0.276481956243515|0.8731138706207275|-0.4015346467494965|0|0|0|-1|-1|3
2021-04-08 19:29:51.131 +0100|17756.897695125|-0.770843505859375|1.73138427734375|-2.851303100585938|17756.877735125|2.610374449827223|0.4627776893700989|-1.067584113074837|0.9032264351844788|-2.260310411453247|-3.013373851776123|-0.1989772617816925|-0.2527623772621155|-1.561523795127869|XArbitraryZVertical|-0.3205023303894852|-0.4260507256207272|0.7779272482146115|0.3325484127358721|0.2152900099754333|0.8760380148887634|-0.4315180778503418|0|0|0|-1|-1|3
2021-04-08 19:29:51.151 +0100|17756.917655125|-0.619873046875|1.790451049804688|-2.149673461914062|17756.897695125|2.478587093291754|0.2862917059833037|-1.070491389989721|1.372394323348999|-3.585613250732422|-3.015131950378418|-0.7245893478393555|0.4274036884307861|-2.373830795288086|XArbitraryZVertical|-0.2803310884880006|-0.4374129831029733|0.7813122317633513|0.3458840394477581|0.1354638785123825|0.8774363398551941|-0.460168719291687|0|0|0|-1|-1|3
2021-04-08 19:29:51.171 +0100|17756.937615125|-0.9984283447265625|-0.344451904296875|-1.183746337890625|17756.917655125|2.332157821241018|0.07073545057062937|-1.042226455571558|2.699146270751953|-5.353711128234863|-3.543023824691772|-0.718883752822876|1.187923550605774|-2.18838357925415|XArbitraryZVertical|-0.2240981010918754|-0.4452651378665262|0.7897721624636269|0.3574620742560274|0.03564208373427391|0.8635291457176208|-0.5030379891395569|0|0|0|-1|-1|3
2021-04-08 19:29:51.191 +0100|17756.957575125|-1.1217041015625|-2.009750366210938|0.0511322021484375|17756.937615125|2.204655207967381|-0.1574458275125133|-0.9974592376568795|0.7576231956481934|-6.144401550292969|-2.88644003868103|-0.6696005463600159|0.09870165586471558|-0.9665139317512512|XArbitraryZVertical|-0.1536764684600867|-0.4566386682044166|0.7981325968789602|0.36173097749562|-0.08505230396986008|0.8400955200195312|-0.5357293486595154|0|0|0|-1|-1|3
2021-04-08 19:29:51.210 +0100|17756.977535125|-0.3020172119140625|0.1425933837890625|0.524261474609375|17756.957575125|2.098130445805423|-0.3523811034531725|-1.039981885975477|-6.516357421875|-3.876183271408081|-1.167228698730469|-1.043648481369019|-2.304243803024292|-0.3706806898117065|XArbitraryZVertical|-0.1119232606230232|-0.4999084274809373|0.7841237666743852|0.3503065345039061|-0.1747190058231354|0.8623950481414795|-0.4751294851303101|0|0|0|-1|-1|3
2021-04-08 19:29:51.230 +0100|17756.997495125|0.661773681640625|2.04443359375|0.0864410400390625|17756.977535125|1.881911554434883|-0.6170092660966987|-1.178165404818647|-9.328006744384766|-3.396881103515625|-0.7981041669845581|-0.4790546000003815|-2.188218116760254|1.01830780506134|XArbitraryZVertical|-0.1077905256830971|-0.5764945856529128|0.7395574990992863|0.3302879612610845|-0.2213838547468185|0.923905611038208|-0.3120703995227814|0|0|0|-1|-1|3
2021-04-08 19:29:51.250 +0100|17757.017455125|2.4034423828125|4.478240966796875|1.127182006835938|17757.017455125|1.421053110202845|-1.175657567914322|-1.29574563598368|2.84675669670105|-5.020990371704102|0.2694321572780609|1.917065739631653|2.525320768356323|0.760445773601532|XArbitraryZVertical|-0.09226410910402426|-0.662732033548747|0.6864607840749692|0.2846845279514421|-0.2506677210330963|0.9624114036560059|-0.1045471727848053|0|0|0|-1|-1|3
2021-04-08 19:29:51.270 +0100|17757.037415125|0.7918243408203125|1.348419189453125|2.025955200195312||||||||||||||||||||||||3
2021-04-08 19:29:51.290 +0100|17757.057375125|0.847503662109375|0.1441497802734375|1.37750244140625|17757.037415125|1.736080207162754|-0.9673125775217156|-1.269514381710829|5.034383773803711|-3.579308748245239|1.084756970405579|1.903356909751892|2.502043962478638|1.89564037322998|XArbitraryZVertical|-0.05357657749472867|-0.6425932337890612|0.7221783871774381|0.2503236902930115|-0.2443289309740067|0.9549568891525269|-0.1684069782495499|0|0|0|-1|-1|3
2021-04-08 19:29:51.310 +0100|17757.077336125|1.167739868164062|0.1576385498046875|0.75018310546875|17757.057375125|1.973596064273191|-0.7910941128775575|-1.224291559785755|3.480710744857788|-1.561854720115662|0.3614021241664886|0.9585939049720764|-0.7107985019683838|2.056610584259033|XArbitraryZVertical|-0.02928132691474009|-0.6162445104470381|0.7521342455982384|0.2316882743689428|-0.2415062785148621|0.9405654668807983|-0.2387706190347672|0|0|0|-1|-1|3
2021-04-08 19:29:51.330 +0100|17757.097296125|1.165481567382812|0.9429168701171875|0.717071533203125|17757.077336125|2.069383254246731|-0.713187157910651|-1.202885770610508|0.4619282186031342|0.2070381790399551|0.4096961617469788|1.286398410797119|-0.707067608833313|1.263570308685303|XArbitraryZVertical|-0.02339422741290525|-0.6028666617012837|0.7651446713523661|0.2248515704298429|-0.2353110909461975|0.9330809116363525|-0.2720089852809906|0|0|0|-1|-1|3
2021-04-08 19:29:51.350 +0100|17757.117256125|1.037826538085938|1.302017211914062|0.58306884765625|17757.097296125|2.061981072810031|-0.7093506343478279|-1.20536056819945|-0.4907876253128052|0.6756114363670349|-0.3917531371116638|1.412830948829651|-0.5277179479598999|0.9882126450538635|XArbitraryZVertical|-0.02779181174713371|-0.6030332834677101|0.7638750364909558|0.2281964566609912|-0.2327611744403839|0.9339681267738342|-0.2711569368839264|0|0|0|-1|-1|3
2021-04-08 19:29:51.370 +0100|17757.137216125|0.7793121337890625|0.872467041015625|0.4998931884765625|17757.117256125|2.027455101879589|-0.7292005258862888|-1.203337382552006|-0.07746712863445282|0.59246826171875|-0.6361002922058105|1.37859320640564|0.3910062313079834|0.9356619119644165|XArbitraryZVertical|-0.03006915002791978|-0.6042762669366132|0.7604609710116327|0.2358927031666035|-0.2393558919429779|0.9332432150840759|-0.2678920924663544|0|0|0|-1|-1|3
2021-04-08 19:29:51.390 +0100|17757.157176125|0.56207275390625|0.654815673828125|0.2324676513671875|17757.137216125|1.995229298787217|-0.7471924410678078|-1.190756182681398|0.1558070033788681|0.5531258583068848|-1.048396944999695|1.139792442321777|0.1423342823982239|0.8310635089874268|XArbitraryZVertical|-0.02928306369196573|-0.6025571978133107|0.7586326746588393|0.2460566879594578|-0.2520962655544281|0.9286497235298157|-0.2721346616744995|0|0|0|-1|-1|3
2021-04-08 19:29:51.410 +0100|17757.177136125|0.272918701171875|0.5034637451171875|0.0957489013671875|17757.157176125|1.963675128820143|-0.7691795900832845|-1.173311085391448|0.2363702058792114|0.1489012539386749|-0.9053179621696472|0.9516510963439941|-0.1637974381446838|0.6640498042106628|XArbitraryZVertical|-0.02524133814773128|-0.6002502445860465|0.7572738232697951|0.2561230777088341|-0.2692466676235199|0.9220373630523682|-0.2781250476837158|0|0|0|-1|-1|3
2021-04-08 19:29:51.430 +0100|17757.197096125|0.1646575927734375|0.704620361328125|0.022186279296875|17757.177136125|1.940698138424021|-0.7868427400790606|-1.159678642724487|0.04653799161314964|0.2551901936531067|-0.8177858591079712|0.691180944442749|-0.3865689039230347|0.4130041003227234|XArbitraryZVertical|-0.02131655749808793|-0.5987133847389223|0.7561642418765252|0.2632560493780448|-0.2829922139644623|0.9166747331619263|-0.2821757793426514|0|0|0|-1|-1|3
2021-04-08 19:29:51.450 +0100|17757.217056125|-0.0059051513671875|0.6351470947265625|0.0482177734375|17757.197096125|1.909725178263368|-0.8102980982078678|-1.147411947149398|-0.01035315450280905|0.1150857731699944|-0.8980609774589539|0.514607310295105|-0.3245452642440796|0.3225427865982056|XArbitraryZVertical|-0.01795880400086126|-0.5983995645633893|0.7536421084599155|0.2713287149738848|-0.2976569533348083|0.9117037057876587|-0.2831908762454987|0|0|0|-1|-1|3
2021-04-08 19:29:51.470 +0100|17757.237016125|-0.1576080322265625|0.503753662109375|0.0573577880859375|17757.217056125|1.889044154224317|-0.8297225187085182|-1.132737162789814|0.2987206280231476|-0.09164322167634964|-0.7453964352607727|0.3990292549133301|-0.1924417018890381|0.2989454567432404|XArbitraryZVertical|-0.01224578986829668|-0.5972196422019392|0.7524719494201443|0.2774251637214455|-0.3129382729530334|0.9055766463279724|-0.2863574922084808|0|0|0|-1|-1|3
2021-04-08 19:29:51.490 +0100|17757.256976125|-0.281280517578125|0.68756103515625|-0.0209808349609375|17757.237016125|1.873569592937048|-0.8458515607465357|-1.121285447171747|-0.05059751123189926|-0.1213104128837585|-0.5294399857521057|0.229952335357666|-0.3422641158103943|0.3884114027023315|XArbitraryZVertical|-0.007188874696211113|-0.5965590671969051|0.7514846813455142|0.2816674568613977|-0.3252578973770142|0.9006597399711609|-0.2881312072277069|0|0|0|-1|-1|3
2021-04-08 19:29:51.510 +0100|17757.276936125|-0.3565673828125|0.8198394775390625|0.0103912353515625|17757.256976125|1.852171017585987|-0.8676946077760459|-1.118319719776574|-0.4970366954803467|-0.1169624775648117|-0.3290258646011353|0.1164236962795258|-0.3484635353088379|0.2753747701644897|XArbitraryZVertical|-0.004446762493034706|-0.5988639876325464|0.7487854127027376|0.2840119094573312|-0.3335096538066864|0.899367094039917|-0.2826842963695526|0|0|0|-1|-1|3
2021-04-08 19:29:51.530 +0100|17757.296897125|-0.4044036865234375|0.9085693359375|-0.05364990234375|17757.276936125|1.829446139025054|-0.8878385596674164|-1.120579725975473|-0.3540922105312347|0.1326404809951782|-0.1404664814472198|0.007557481527328491|-0.1391831636428833|0.2618231177330017|XArbitraryZVertical|-0.004473389865236621|-0.60221848030801|0.7454071168826878|0.2857994872959903|-0.3375584781169891|0.9003528952598572|-0.2746257781982422|0|0|0|-1|-1|3
2021-04-08 19:29:51.550 +0100|17757.316857125|-0.498199462890625|0.822479248046875|-0.1597900390625|17757.296897125|1.824698953322341|-0.8902466859555715|-1.117994382716116|0.3827701807022095|0.01508892234414816|-0.211684376001358|-0.04150316119194031|-0.01551181077957153|0.2948827147483826|XArbitraryZVertical|-0.00416734870106093|-0.6019507906548337|0.7449344866016918|0.2875945800474626|-0.3400267660617828|0.8992248177528381|-0.2752757668495178|0|0|0|-1|-1|3
2021-04-08 19:29:51.570 +0100|17757.336817125|-0.611846923828125|0.7436370849609375|-0.241302490234375|17757.316857125|1.8335895999887|-0.8835649761931943|-1.109615781519929|0.3853676319122314|-0.1652703583240509|-0.196596160531044|-0.09491115808486938|-0.007801830768585205|0.1886523365974426|XArbitraryZVertical|-0.001277120949276905|-0.5990348152568575|0.7468600357951599|0.2887139502150419|-0.343991756439209|0.8955277800559998|-0.2823113203048706|0|0|0|-1|-1|3
2021-04-08 19:29:51.590 +0100|17757.356777125|-0.6089935302734375|0.826690673828125|-0.118194580078125|17757.336817125|1.837852031876841|-0.8821820656549535|-1.102601531721485|0.1644478440284729|0.02611701935529709|-0.2090967744588852|-0.2118742763996124|-0.1238446831703186|0.03672534227371216|XArbitraryZVertical|0.001744988492973142|-0.5971692503323864|0.7480249057198081|0.2895597196839957|-0.3484429121017456|0.89238440990448|-0.286771684885025|0|0|0|-1|-1|3
2021-04-08 19:29:51.610 +0100|17757.376737125|-0.4554901123046875|1.032882690429688|-0.139068603515625|17757.356777125|1.835034910594243|-0.8807499623066481|-1.099172233964147|-0.025939105078578|0.3997451364994049|-0.1599773317575455|-0.2803770899772644|-0.1330797672271729|0.07902637124061584|XArbitraryZVertical|0.001475585903708712|-0.596145486837464|0.7478823784550576|0.2920283683402382|-0.3503899276256561|0.8908315896987915|-0.2892167568206787|0|0|0|-1|-1|3
2021-04-08 19:29:51.630 +0100|17757.396697125|-0.576934814453125|0.9380035400390625|-0.1770477294921875|17757.376737125|1.828523388091623|-0.8765095403208225|-1.096496624185624|-0.01741332747042179|0.3993497788906097|-0.1709017157554626|-0.1930299401283264|0.05360954999923706|0.2582573294639587|XArbitraryZVertical|-0.00118354368941618|-0.5948837093251269|0.7471300141680194|0.2964943794717941|-0.3509908318519592|0.8896127939224243|-0.2922239303588867|0|0|0|-1|-1|3
2021-04-08 19:29:51.650 +0100|17757.416657125|-0.7481536865234375|0.9420318603515625|-0.12310791015625|17757.396697125|1.824052980344676|-0.8774367149578393|-1.093448424581263|0.03118040971457958|0.05400228872895241|-0.2415512949228287|-0.1119855344295502|0.1323984265327454|0.09467029571533203|XArbitraryZVertical|-0.001179575821125313|-0.5942924319741351|0.7466960762325855|0.2987647290919233|-0.353345662355423|0.888216495513916|-0.2936302423477173|0|0|0|-1|-1|3
2021-04-08 19:29:51.670 +0100|17757.436617125|-0.6245880126953125|0.6946258544921875|-0.1631317138671875|17757.416657125|1.82007382539168|-0.8759232706008214|-1.090134870829239|0.04015372693538666|0.5039796233177185|-0.08723922073841095|-0.3279146254062653|-0.00225907564163208|0.2120319604873657|XArbitraryZVertical|-0.001851460024677581|-0.5932730275998284|0.7463446426242266|0.3016512995807867|-0.3551594913005829|0.886689305305481|-0.2960473597049713|0|0|0|-1|-1|3
2021-04-08 19:29:51.690 +0100|17757.456577125|-0.4578094482421875|0.5450286865234375|-0.2523345947265625|17757.436617125|1.822529558674115|-0.8587558331293811|-1.091773816282343|-0.2382933646440506|0.9268971085548401|0.3047266900539398|-0.3705876171588898|-0.01131647825241089|0.1299008429050446|XArbitraryZVertical|-0.008062640630759487|-0.5910665246423181|0.7465505260048515|0.305348688841413|-0.3489244282245636|0.887445867061615|-0.3011507093906403|0|0|0|-1|-1|3
2021-04-08 19:29:51.709 +0100|17757.476537125|-0.4551239013671875|0.798492431640625|-0.2099151611328125|17757.456577125|1.819357368739343|-0.8459563955605137|-1.100881921653347|-0.4850693345069885|0.5897915959358215|0.1940712779760361|-0.1861083805561066|-0.3622947335243225|0.07463374733924866|XArbitraryZVertical|-0.0167195485544337|-0.5912785874467892|0.7452638838762126|0.3077205274524574|-0.3389761745929718|0.8916070461273193|-0.3002201914787292|0|0|0|-1|-1|3
2021-04-08 19:29:51.730 +0100|17757.496498125|-0.51593017578125|0.8435516357421875|-0.187774658203125|17757.476537125|1.811810173584938|-0.8440934668649758|-1.110566537096642|-0.3315198421478271|0.302050918340683|0.3960027098655701|-0.1014625728130341|-0.2343596220016479|0.08396375179290771|XArbitraryZVertical|-0.02278295733586046|-0.5932376123149337|0.7432953319701529|0.3083217642664006|-0.3319472074508667|0.8959504365921021|-0.2951001524925232|0|0|0|-1|-1|3
2021-04-08 19:29:51.749 +0100|17757.516458125|-0.4276580810546875|0.6976776123046875|-0.206268310546875|17757.496498125|1.827710941341367|-0.8226969850614724|-1.119083701637489|0.2583949863910675|0.4592516720294952|0.6957730650901794|-0.1793141067028046|-0.0369228720664978|0.08245474100112915|XArbitraryZVertical|-0.02877880767600858|-0.5922038244881327|0.7447345648028796|0.3063284352478357|-0.3199526071548462|0.8997008204460144|-0.2969328165054321|0|0|0|-1|-1|3
2021-04-08 19:29:51.769 +0100|17757.536418125|-0.3733978271484375|0.4989013671875|-0.20703125|17757.516458125|1.869987168819155|-0.7750186725269481|-1.126267034871241|0.3660309612751007|0.4386719465255737|1.089341402053833|-0.1730302274227142|-0.1338615417480469|0.102293074131012|XArbitraryZVertical|-0.03640601471117476|-0.5874223640401109|0.7497000323246459|0.3025881156188622|-0.3009068667888641|0.902813196182251|-0.3072191476821899|0|0|0|-1|-1|3
2021-04-08 19:29:51.789 +0100|17757.556378125|-0.334991455078125|0.6170654296875|-0.1809234619140625|17757.536418125|1.918660417616701|-0.7226428030761397|-1.139297967388021|0.1302381455898285|0.3948437869548798|1.303375601768494|-0.1256145536899567|-0.3269342184066772|0.1193175911903381|XArbitraryZVertical|-0.04587551068901482|-0.58399104337067|0.7544410352597494|0.2960892660997091|-0.2766062319278717|0.9083400964736938|-0.3136998116970062|0|0|0|-1|-1|3
2021-04-08 19:29:51.809 +0100|17757.576338125|-0.2714996337890625|0.7296600341796875|-0.2434539794921875|17757.556378125|1.972884018223401|-0.6649420473432437|-1.155558779437332|-0.004989714361727238|0.4709817171096802|1.450552225112915|-0.1043474078178406|-0.405056357383728|0.1002684831619263|XArbitraryZVertical|-0.05676348308567841|-0.5814177587813076|0.7587573865087891|0.288129603311703|-0.2489079087972641|0.9150205254554749|-0.3174625933170319|0|0|0|-1|-1|3
2021-04-08 19:29:51.830 +0100|17757.596298125|-0.2816925048828125|0.6299896240234375|-0.3202667236328125|17757.576338125|2.038033481844172|-0.5954524037027419|-1.173191348509988|0.1069405451416969|0.4830564856529236|1.651153206825256|-0.07850342988967896|-0.2321715950965881|0.09440413117408752|XArbitraryZVertical|-0.06934527267942091|-0.5787106940904978|0.763148341359823|0.2790875476866752|-0.2171804308891296|0.9219909906387329|-0.320570319890976|0|0|0|-1|-1|3
2021-04-08 19:29:51.849 +0100|17757.616258125|-0.3059844970703125|0.5872650146484375|-0.376190185546875|17757.596298125|2.119784841408144|-0.511264137989769|-1.190326204038763|0.008012104779481888|0.426978200674057|1.845874547958374|-0.07800585031509399|-0.2260364294052124|0.04529058933258057|XArbitraryZVertical|-0.08258465504378337|-0.5755383673445921|0.7681611726926553|0.268074622358128|-0.181697815656662|0.928490161895752|-0.3238707184791565|0|0|0|-1|-1|3
2021-04-08 19:29:51.869 +0100|17757.636218125|-0.2086181640625|0.7139129638671875|-0.3686981201171875|17757.616258125|2.205673427124402|-0.4213400364102142|-1.209777740402017|-0.2981606125831604|0.6160099506378174|1.816023588180542|-0.167454794049263|-0.3474788665771484|-0.01319083571434021|XArbitraryZVertical|-0.09731907059276819|-0.573900174575261|0.7715407106927935|0.2566959336596773|-0.1444644331932068|0.9355375170707703|-0.3223351836204529|0|0|0|-1|-1|3
2021-04-08 19:29:51.889 +0100|17757.656178125|-0.1418609619140625|0.841796875|-0.3655242919921875|17757.636218125|2.294152912970345|-0.3237771115187916|-1.228878327523433|-0.3119887113571167|0.7619562745094299|1.694491863250732|-0.1584160476922989|-0.3318533301353455|-0.052366703748703|XArbitraryZVertical|-0.1138766184193553|-0.5727963142543989|0.7733037404338394|0.2468559393340977|-0.1066739112138748|0.9421132802963257|-0.3178730010986328|0|0|0|-1|-1|3
2021-04-08 19:29:51.909 +0100|17757.676139125|-0.1332550048828125|0.7960662841796875|-0.31658935546875|17757.656178125|2.391086633584773|-0.2178259163201226|-1.242283249465503|-0.1218243092298508|0.6806400418281555|1.741191864013672|-0.08179470896720886|-0.1250661611557007|-0.06250584125518799|XArbitraryZVertical|-0.1297869992153382|-0.5706568106622952|0.7753286210227185|0.2374275106589815|-0.06972410529851913|0.946523129940033|-0.3150122761726379|0|0|0|-1|-1|3
2021-04-08 19:29:51.929 +0100|17757.696099125|-0.0891571044921875|0.7988128662109375|-0.2606201171875|17757.676139125|2.495567201427586|-0.1034977341477148|-1.250319485498561|-0.2053550183773041|0.8492431044578552|1.707597255706787|-0.1164402365684509|-0.1287575960159302|-0.03742048144340515|XArbitraryZVertical|-0.1457432054077838|-0.567531566287211|0.777513844209372|0.2283400177374846|-0.03254561498761177|0.9490852952003479|-0.3133336901664734|0|0|0|-1|-1|3
2021-04-08 19:29:51.949 +0100|17757.716059125|-0.02880859375|0.9243927001953125|-0.320709228515625|17757.696099125|2.600975962183505|0.01494068589452071|-1.257361494436711|-0.3132818341255188|0.9954791665077209|1.59095299243927|-0.1153842806816101|-0.1741500496864319|0.005131721496582031|XArbitraryZVertical|-0.1628519436567713|-0.5650950172244665|0.778240500341893|0.220201458220163|0.004606462549418211|0.9512801170349121|-0.3082937300205231|0|0|0|-1|-1|3
2021-04-08 19:29:51.969 +0100|17757.736019125|0.038330078125|0.9862213134765625|-0.36407470703125|17757.716059125|2.703092919704913|0.1325967435575548|-1.260404987429429|-0.2029828876256943|1.07210373878479|1.517712473869324|-0.09857670962810516|-0.07048505544662476|0.02893131971359253|XArbitraryZVertical|-0.1801339899061061|-0.5622956586903257|0.7783439565887401|0.2134390628802221|0.04038068652153015|0.9522141218185425|-0.3027506768703461|0|0|0|-1|-1|3
2021-04-08 19:29:51.989 +0100|17757.755979125|0.1679840087890625|1.09918212890625|-0.399261474609375|17757.736019125|2.796970055684802|0.2447950881768142|-1.258629459703352|-0.1705243736505508|1.243516206741333|1.334962010383606|-0.07461537420749664|-0.01783251762390137|-0.05397874116897583|XArbitraryZVertical|-0.1974061297664886|-0.5586126020427277|0.7781792242496575|0.208374660405455|0.07443327456712723|0.9516702890396118|-0.2979655563831329|0|0|0|-1|-1|3
2021-04-08 19:29:52.009 +0100|17757.77593829167|0.219207763671875|1.027389526367188|-0.394683837890625|17757.755979125|2.87681434704715|0.3465669998849062|-1.253024828102239|-0.04180232435464859|1.285303831100464|1.193432211875916|-0.002827554941177368|0.1007861495018005|-0.09853646159172058|XArbitraryZVertical|-0.2146865129707858|-0.5540510930505662|0.7776189384221287|0.2055388240260031|0.1061305776238441|0.9499340653419495|-0.2938741743564606|0|0|0|-1|-1|3
2021-04-08 19:29:52.029 +0100|17757.79589829167|0.192047119140625|1.016830444335938|-0.4060821533203125|17757.77593829167|2.944005776704304|0.4343704916753475|-1.245484006761147|-0.0555649921298027|1.138421654701233|1.066312551498413|0.07634449005126953|0.1373793482780457|-0.09302496910095215|XArbitraryZVertical|-0.2303561099827559|-0.5495211436770278|0.7769360579225708|0.2033055937758286|0.1345024853944778|0.9475509524345398|-0.2899251580238342|0|0|0|-1|-1|3
2021-04-08 19:29:52.049 +0100|17757.81585829167|0.2136688232421875|1.029525756835938|-0.4423065185546875|17757.79589829167|3.001391167492034|0.5114281919790379|-1.238272428589994|-0.1629666537046432|1.150820732116699|0.9507454037666321|0.04240222275257111|0.06634461879730225|-0.1084502041339874|XArbitraryZVertical|-0.2448069729487061|-0.5456540941249317|0.7756825336108678|0.2016134957378949|0.1597625315189362|0.945221483707428|-0.2846623063087463|0|0|0|-1|-1|3
2021-04-08 19:29:52.069 +0100|17757.83581829167|0.3214263916015625|1.136871337890625|-0.4600677490234375|17757.81585829167|3.054498690579048|0.5864603154897432|-1.232745802424942|-0.2598442733287811|1.339993000030518|0.7987967729568481|0.005151301622390747|0.05920606851577759|-0.1475353240966797|XArbitraryZVertical|-0.2597237496712747|-0.5426118039935113|0.7731362639612863|0.2009390225540877|0.1835399270057678|0.9434030055999756|-0.2762320041656494|0|0|0|-1|-1|3
2021-04-08 19:29:52.089 +0100|17757.85577929167|0.3802642822265625|1.084869384765625|-0.4365234375|17757.83581829167|3.100425722117716|0.6566621956277398|-1.228208229874314|-0.2713411152362823|1.329472780227661|0.7201583385467529|0.06515917181968689|0.150060772895813|-0.1966122686862946|XArbitraryZVertical|-0.2747169036869107|-0.53990568641021|0.7696436790455075|0.2016956602165534|0.2050749957561493|0.9418883919715881|-0.2660649418830872|0|0|0|-1|-1|3
2021-04-08 19:29:52.109 +0100|17757.87573929167|0.3675994873046875|1.00616455078125|-0.3973541259765625|17757.85577929167|3.140594761850633|0.7200366293368969|-1.223664931268358|-0.2022242099046707|1.217809796333313|0.6388453841209412|0.1272454708814621|0.1868597865104675|-0.1842298209667206|XArbitraryZVertical|-0.288652756826297|-0.5374019063561877|0.7660160356911332|0.2027271975754064|0.2243333160877228|0.9403524994850159|-0.2557575404644012|0|0|0|-1|-1|3
2021-04-08 19:29:52.129 +0100|17757.89569929167|0.3054046630859375|1.072189331054688|-0.3896026611328125|17757.87573929167|-3.105539899633975|0.7775738929380767|-1.217838923000407|-0.2356258928775787|1.061283349990845|0.7048749923706055|0.1486816853284836|0.1096341013908386|-0.1640514582395554|XArbitraryZVertical|-0.3013440067429746|-0.5348129268516562|0.7628347591796382|0.2031013323682283|0.2425089329481125|0.9383544921875|-0.2463338524103165|0|0|0|-1|-1|3
2021-04-08 19:29:52.149 +0100|17757.91565929167|0.3365936279296875|1.250503540039062|-0.474700927734375|17757.89569929167|-3.07368199404036|0.8298088301110872|-1.209204727238837|0.07253120839595795|1.189312934875488|0.6636133193969727|0.06823208928108215|0.06078910827636719|-0.1442601680755615|XArbitraryZVertical|-0.3137921200801629|-0.5311649465539875|0.7602690188389188|0.2034443271722407|0.2610078752040863|0.9353349804878235|-0.2387966066598892|0|0|0|-1|-1|3
2021-04-08 19:29:52.169 +0100|17757.93561929167|0.2861328125|1.3499755859375|-0.643829345703125|17757.91565929167|-3.062547908323528|0.8647186984730424|-1.196438763822928|0.553779125213623|1.198137044906616|0.5572003126144409|0.03677180409431458|0.2469152212142944|-0.1790967881679535|XArbitraryZVertical|-0.3257731391709189|-0.5246302445102302|0.7590381092683426|0.2061465833783797|0.2782469987869263|0.9307427406311035|-0.2372699379920959|0|0|0|-1|-1|3
2021-04-08 19:29:52.188 +0100|17757.95557929167|0.145843505859375|1.582687377929688|-0.932830810546875|17757.93561929167|-3.080700605129519|0.8696516481891104|-1.178823269163108|1.194072246551514|0.9709177017211914|0.3252590298652649|0.04176712036132812|0.4014806151390076|-0.2868606448173523|XArbitraryZVertical|-0.3346644125516506|-0.5145704631698174|0.7606921669873856|0.2111035408654141|0.2918978929519653|0.9241571426391602|-0.2464339435100555|0|0|0|-1|-1|3
2021-04-08 19:29:52.209 +0100|17757.97553929167|0.07861328125|1.658645629882812|-1.170608520507812|17757.95557929167|-3.135442206442495|0.8394927094921387|-1.155982925600433|1.911361575126648|1.141621470451355|-0.03092587925493717|-0.08745905756950378|0.5206145644187927|-0.5179413557052612|XArbitraryZVertical|-0.3397945742126445|-0.4999632212483489|0.7655363461243944|0.2202970787374362|0.2999693155288696|0.9151915311813354|-0.2691528499126434|0|0|0|-1|-1|3
2021-04-08 19:29:52.228 +0100|17757.99549929167|0.09375|1.683151245117188|-1.21160888671875|17757.97553929167|3.05382452576997|0.7809493405442678|-1.12749919781103|2.899463176727295|1.543938279151917|-0.585484504699707|-0.2188704013824463|0.7576070427894592|-0.7697629928588867|XArbitraryZVertical|-0.3430961517631836|-0.4795472936748124|0.7719584718946393|0.2374861649108997|0.3019402623176575|0.9033423662185669|-0.3046388328075409|0|0|0|-1|-1|3
2021-04-08 19:29:52.249 +0100|17758.01546029167|0.091461181640625|1.485214233398438|-1.251312255859375|17757.99549929167|2.920921330245756|0.693507840445425|-1.092956000261028|3.451375961303711|1.678904891014099|-1.43726921081543|-0.2139286696910858|0.7697550058364868|-0.8943932056427002|XArbitraryZVertical|-0.3424031331385292|-0.4538071358062501|0.7791764984479638|0.2640139912383467|0.2939620912075043|0.8879901170730591|-0.3536383509635925|0|0|0|-1|-1|3
2021-04-08 19:29:52.268 +0100|17758.03542029167|-0.1242218017578125|1.529434204101562|-1.608078002929688|17758.01546029167|2.787737545703112|0.6099633815106941|-1.065663784430877|2.341954946517944|1.676048874855042|-1.929089188575745|-0.1581899225711823|0.7449761033058167|-0.8267009258270264|XArbitraryZVertical|-0.3398919891193682|-0.4314450694628225|0.7819490553869952|0.2947615994726821|0.2772095501422882|0.8751103281974792|-0.3966571688652039|0|0|0|-1|-1|3
2021-04-08 19:29:52.288 +0100|17758.05538029167|-0.57464599609375|1.259262084960938|-2.359771728515625|17758.03542029167|2.670414791803217|0.5360988819273599|-1.055216705441927|1.754465579986572|0.9652233123779297|-2.370140314102173|-0.2198540866374969|0.5362274050712585|-0.9660074710845947|XArbitraryZVertical|-0.3358346028160439|-0.4186648402012385|0.7790202869151005|0.3241331934099252|0.2518375813961029|0.8700070977210999|-0.4238697290420532|0|0|0|-1|-1|3
2021-04-08 19:29:52.308 +0100|17758.07534029167|-0.5877227783203125|0.7271270751953125|-2.760696411132812|17758.05538029167|2.544949220205334|0.4353879760514168|-1.047810713309097|1.731778264045715|-0.1421781927347183|-2.775968551635742|-0.5628288984298706|0.6694803833961487|-1.521569609642029|XArbitraryZVertical|-0.3223157553895658|-0.4119182958455831|0.7763372403304704|0.351761885905656|0.2106571346521378|0.8663318157196045|-0.4528717398643494|0|0|0|-1|-1|3
2021-04-08 19:29:52.328 +0100|17758.09530029167|-0.301055908203125|1.032730102539062|-2.297332763671875|17758.07534029167|2.418719534298541|0.3135071581752069|-1.043696358160766|1.043121099472046|-1.272633075714111|-2.944569826126099|-0.8366347551345825|0.04668015241622925|-2.154530763626099|XArbitraryZVertical|-0.3007013765808962|-0.4127025821651744|0.7734285226048269|0.3755845892626294|0.1551325768232346|0.864269495010376|-0.4785105288028717|0|0|0|-1|-1|3
2021-04-08 19:29:52.348 +0100|17758.11526029167|-0.1621551513671875|1.83062744140625|-1.269454956054688|17758.09530029167|2.293380345743043|0.1586428575230139|-1.038022692961144|1.17893922328949|-3.429240465164185|-3.097999095916748|-0.5041748881340027|-0.09554767608642578|-2.126154184341431|XArbitraryZVertical|-0.2661822386765939|-0.422343122207047|0.7727217638679222|0.392013654757267|0.08024107664823532|0.8614016175270081|-0.5015466213226318|0|0|0|-1|-1|3
2021-04-08 19:29:52.368 +0100|17758.13522029167|0.0547943115234375|1.38494873046875|-0.882476806640625|17758.11526029167|2.169044371213252|-0.0350005579050854|-1.010473920044485|2.081259965896606|-5.053628444671631|-3.159477949142456|-0.1943529844284058|0.6199114322662354|-1.290048360824585|XArbitraryZVertical|-0.2126245857039266|-0.4349986895965964|0.7774629197004636|0.4013955061725664|-0.01859757676720619|0.8470838069915771|-0.5311338305473328|0|0|0|-1|-1|3
2021-04-08 19:29:52.388 +0100|17758.15518029167|0.6586456298828125|0.2660675048828125|-0.9313507080078125|17758.13522029167|2.083043804650909|-0.2041896600878184|-0.9587254618676128|1.937534928321838|-4.451312065124512|-1.365064024925232|-0.03911688923835754|1.111654996871948|-0.3082374334335327|XArbitraryZVertical|-0.153600539679758|-0.4416934449807531|0.7856300397595951|0.4050918467347882|-0.116506427526474|0.8184599280357361|-0.5626275539398193|0|0|0|-1|-1|3
2021-04-08 19:29:52.408 +0100|17758.17514129167|1.2264404296875|1.394195556640625|-0.636138916015625|17758.15518029167|2.057528766408625|-0.3094048621864837|-0.9475898370224055|-0.9867205023765564|-4.434066772460938|-1.201690673828125|0.5055656433105469|-0.2940667271614075|-0.4369618892669678|XArbitraryZVertical|-0.1151076854904482|-0.4569314304945258|0.7894597874968999|0.3933412967107431|-0.1777142286300659|0.812011182308197|-0.5559277534484863|0|0|0|-1|-1|3
2021-04-08 19:29:52.428 +0100|17758.19510129167|1.34197998046875|1.171127319335938|0.202667236328125|17758.17514129167|1.985742525383741|-0.4641240360568263|-0.9651671079026337|-2.117096900939941|-4.883965492248535|-1.49643862247467|1.284358978271484|0.1376950144767761|-0.3948120474815369|XArbitraryZVertical|-0.07608381682391065|-0.4895735820288898|0.7803596849182092|0.3815337412228927|-0.2548322081565857|0.8221440315246582|-0.5090579390525818|0|0|0|-1|-1|3
2021-04-08 19:29:52.448 +0100|17758.21506129167|0.9884185791015625|0.9447021484375|0.7621612548828125|17758.19510129167|1.897339763351118|-0.6257709790871476|-0.995602911604116|-2.951684474945068|-4.132863998413086|-1.059783816337585|1.598356485366821|0.4275757074356079|0.3865945339202881|XArbitraryZVertical|-0.04497973161867366|-0.526800439966054|0.7650007578163538|0.3677392910108825|-0.3186313807964325|0.8390871286392212|-0.4409162402153015|0|0|0|-1|-1|3
2021-04-08 19:29:52.468 +0100|17758.23502129167|0.808197021484375|1.517715454101562|0.8393402099609375|17758.21506129167|1.813679772423311|-0.7741783198434991|-1.025005820727612|-1.835423231124878|-3.521136522293091|-0.7188436388969421|1.611983776092529|0.1949046850204468|0.770792543888092|XArbitraryZVertical|-0.02071816221459486|-0.5603532198363187|0.7496615694542391|0.3515433072561477|-0.3629136383533478|0.8547171950340271|-0.3711500465869904|0|0|0|-1|-1|3
2021-04-08 19:29:52.488 +0100|17758.25498129167|0.8086700439453125|1.168426513671875|0.7104644775390625|17758.23502129167|1.766665013620331|-0.8762180861737617|-1.021110795788012|0.2037681043148041|-2.527934312820435|-1.042894124984741|1.208425402641296|0.2855255603790283|1.285734891891479|XArbitraryZVertical|0.00524795425855309|-0.5768728037444516|0.7421649073923754|0.3411475148174561|-0.4013871550559998|0.8526888489723206|-0.3343804478645325|0|0|0|-1|-1|3
2021-04-08 19:29:52.508 +0100|17758.27494129167|0.8025970458984375|0.724517822265625|0.2682647705078125|17758.25498129167|1.766422204500119|-0.9121173921732125|-1.000322900362268|0.768247663974762|-1.215145707130432|-0.7095543146133423|1.241053342819214|0.7238761186599731|1.120042562484741|XArbitraryZVertical|0.02539202332648168|-0.5780019217002421|0.7428599985590263|0.3367909771401967|-0.4270570874214172|0.8416454195976257|-0.3305380344390869|0|0|0|-1|-1|3
2021-04-08 19:29:52.528 +0100|17758.29490129167|0.55419921875|0.6810150146484375|0.163970947265625|17758.27494129167|1.769454662848198|-0.9286312184351488|-0.9824015034896358|0.4259139597415924|-0.7786150574684143|-0.6256789565086365|1.292916297912598|-0.02488654851913452|0.7708679437637329|XArbitraryZVertical|0.03834681847545456|-0.5764705468872325|0.7438400063350433|0.3360258497917381|-0.4444658160209656|0.8318326473236084|-0.3324224650859833|0|0|0|-1|-1|3
2021-04-08 19:29:52.548 +0100|17758.31486129167|0.4326019287109375|0.7329559326171875|0.363067626953125|17758.29490129167|1.765917495790366|-0.9440563320046169|-0.9682588465414499|0.330293208360672|-0.3696787357330322|-0.6155330538749695|1.131647109985352|-0.1149460077285767|0.5169641375541687|XArbitraryZVertical|0.04775465361716889|-0.575779726801731|0.7434112902770702|0.3369525958444723|-0.459023654460907|0.8239001631736755|-0.3323943912982941|0|0|0|-1|-1|3
2021-04-08 19:29:52.568 +0100|17758.33482129167|0.42205810546875|0.646636962890625|0.4880828857421875|17758.31486129167|1.766795912830253|-0.9438703927684065|-0.9526779040767664|0.6503777503967285|0.2802896797657013|-0.637456476688385|0.9347564578056335|-0.1278820037841797|0.6218602657318115|XArbitraryZVertical|0.05310796652499478|-0.5720092131181098|0.7440482464455823|0.3411411548768207|-0.4693015515804291|0.8149702548980713|-0.3399700224399567|0|0|0|-1|-1|3
2021-04-08 19:29:52.588 +0100|17758.35478229167|0.3462982177734375|0.409515380859375|0.4417877197265625|17758.33482129167|1.776363257599856|-0.9259886147740414|-0.934165124538325|0.8665269017219543|0.6689722537994385|-0.4912530779838562|0.9131451845169067|-0.05675774812698364|0.7698969841003418|XArbitraryZVertical|0.05528601101983237|-0.5641682993391667|0.7467380932280513|0.3479079624284042|-0.475125640630722|0.8041030168533325|-0.3573151826858521|0|0|0|-1|-1|3
2021-04-08 19:29:52.608 +0100|17758.37474229167|0.1893157958984375|0.3861541748046875|0.3394012451171875|17758.35478229167|1.788586789821536|-0.9022899684835006|-0.9166813483813467|0.7579860687255859|0.7207798957824707|-0.4331126511096954|0.8685999512672424|-0.2984692454338074|0.8284698724746704|XArbitraryZVertical|0.05558983777731114|-0.5552876779465422|0.7500968853908293|0.3548524379281058|-0.4774858951568604|0.7935867309570312|-0.3771307170391083|0|0|0|-1|-1|3
2021-04-08 19:29:52.628 +0100|17758.39470229167|0.0545806884765625|0.1692047119140625|0.13720703125|17758.37474229167|1.798080535476147|-0.8806546710539543|-0.9034546087219473|0.459507554769516|0.7144877314567566|-0.2190033793449402|0.7502644062042236|-0.3834155201911926|0.7784805297851562|XArbitraryZVertical|0.0544035822698734|-0.5477498588719559|0.7528408979206539|0.3608892944041778|-0.4772686064243317|0.785469651222229|-0.394020676612854|0|0|0|-1|-1|3
2021-04-08 19:29:52.648 +0100|17758.41466229167|-0.000946044921875|0.203765869140625|0.111236572265625|17758.39470229167|1.804783550971607|-0.8618331729410804|-0.898892544476051|0.07246413081884384|0.6835983395576477|0.163285493850708|0.5947682857513428|-0.4954366683959961|0.6326785087585449|XArbitraryZVertical|0.0506223138685483|-0.5429606984426028|0.754718872804487|0.3647339065821315|-0.4724835753440857|0.7826380133628845|-0.4052621126174927|0|0|0|-1|-1|3
2021-04-08 19:29:52.668 +0100|17758.43462229167|-0.0152435302734375|0.480804443359375|0.0905609130859375|17758.41466229167|1.804307564830919|-0.8456333338319406|-0.9076165650427037|-0.6129316091537476|0.8948667645454407|0.4259074330329895|0.4711516201496124|-0.659528911113739|0.5429614782333374|XArbitraryZVertical|0.04154749271114602|-0.5423233428300781|0.7546523344926827|0.3669593028742126|-0.4607290029525757|0.7880386710166931|-0.4083184003829956|0|0|0|-1|-1|3
2021-04-08 19:29:52.688 +0100|17758.45458229167|-0.141204833984375|0.66558837890625|0.0079193115234375|17758.43462229167|1.796545147808541|-0.8367137833432082|-0.9238683073856037|-0.6497130990028381|0.5320186614990234|0.4477514028549194|0.4483404457569122|-0.4529376029968262|0.5409388542175293|XArbitraryZVertical|0.03079207794156336|-0.5451264005491157|0.7526680533748245|0.367940308529187|-0.4475003778934479|0.7979391813278198|-0.4037781059741974|0|0|0|-1|-1|3
2021-04-08 19:29:52.708 +0100|17758.47454229167|-0.2324066162109375|0.624969482421875|0.00860595703125|17758.45458229167|1.795341430558165|-0.8314710420004041|-0.9380006906766203|-0.2777540683746338|0.1955905258655548|0.5697919130325317|0.3791703581809998|-0.1966511607170105|0.4024773836135864|XArbitraryZVertical|0.02388876862253403|-0.5478953483347135|0.7518449946879087|0.3660178617767014|-0.4370002746582031|0.8063772916793823|-0.3984800279140472|0|0|0|-1|-1|3
2021-04-08 19:29:52.727 +0100|17758.49450329167|-0.30084228515625|0.578460693359375|-0.1193389892578125|17758.47454229167|1.80242649725105|-0.8208581123922671|-0.9513155990784631|-0.2981764674186707|0.2559107542037964|0.6720443367958069|0.2114284932613373|-0.1395581960678101|0.4536484479904175|XArbitraryZVertical|0.017510991392639|-0.5493836789665552|0.7525539264446638|0.3626758417604499|-0.4248523116111755|0.8141800761222839|-0.395741879940033|0|0|0|-1|-1|3
2021-04-08 19:29:52.747 +0100|17758.51446329167|-0.5390167236328125|0.529144287109375|-0.1287994384765625|17758.49450329167|1.807942494125903|-0.8165684303539287|-0.9675229458104874|-0.6743890643119812|-0.3250532448291779|0.7526772022247314|0.17550328373909|-0.2291833162307739|0.3066094517707825|XArbitraryZVertical|0.01216220425737012|-0.552824935824703|0.7526584311758604|0.3574101827089967|-0.4134784936904907|0.8234829306602478|-0.3884733319282532|0|0|0|-1|-1|3
2021-04-08 19:29:52.767 +0100|17758.53442329167|-0.7181854248046875|0.688934326171875|-0.09393310546875|17758.51446329167|1.803111711954466|-0.8294653102415995|-0.9934040696070617|-1.133005142211914|-0.495737612247467|0.9502044320106506|-0.007635533809661865|-0.2839487791061401|0.2643263339996338|XArbitraryZVertical|0.007266823011742371|-0.561829264881184|0.7501880088454779|0.3485873665334216|-0.4025961458683014|0.8378888964653015|-0.3685901463031769|0|0|0|-1|-1|3
2021-04-08 19:29:52.787 +0100|17758.55438329167|-0.6644439697265625|0.9677581787109375|-0.1209259033203125|17758.53442329167|1.795690463341683|-0.8422992877793279|-1.02258393586676|-1.200805187225342|-0.1012992560863495|0.9617403745651245|-0.2654628157615662|-0.2797572612762451|0.2258082032203674|XArbitraryZVertical|0.0004678096433387528|-0.5714175776893818|0.7470677744387342|0.3396640385771106|-0.3888789713382721|0.853457510471344|-0.3469634652137756|0|0|0|-1|-1|3
2021-04-08 19:29:52.807 +0100|17758.57434329167|-0.617584228515625|1.065185546875|-0.1989288330078125|17758.55438329167|1.792125709316716|-0.8435616089073028|-1.051475207677863|-0.8097801804542542|0.1319616436958313|1.014118790626526|-0.3411454856395721|-0.04868274927139282|0.2370567917823792|XArbitraryZVertical|-0.009519026862800577|-0.5787405583036276|0.7445696665445031|0.3325430827096783|-0.3707371950149536|0.8681563138961792|-0.3299375176429749|0|0|0|-1|-1|3
2021-04-08 19:29:52.827 +0100|17758.59430329167|-0.8307647705078125|0.8669586181640625|-0.1991729736328125|17758.57434329167|1.798721620343876|-0.8380469655649971|-1.075955168642612|-0.5670909881591797|-0.2658970057964325|1.067099332809448|-0.2654628455638885|0.2006140947341919|0.1792042255401611|XArbitraryZVertical|-0.01763870499662177|-0.5838299368487845|0.7438692817794003|0.3247926089848688|-0.3530055284500122|0.880044162273407|-0.3176629543304443|0|0|0|-1|-1|3
2021-04-08 19:29:52.847 +0100|17758.61426329167|-0.91925048828125|0.7723541259765625|-0.180328369140625|17758.59430329167|1.812064279882578|-0.8353632082947193|-1.10170887830639|-0.75156569480896|-0.511288583278656|1.223306059837341|-0.3714492917060852|0.08482569456100464|0.1139678359031677|XArbitraryZVertical|-0.02308446074466151|-0.5897604628055452|0.7439589457625165|0.3133288408368035|-0.3352301418781281|0.8919811844825745|-0.3032993972301483|0|0|0|-1|-1|3
2021-04-08 19:29:52.867 +0100|17758.63422329167|-0.64788818359375|0.8710174560546875|-0.21795654296875|17758.61426329167|1.82307204862285|-0.8288204152600901|-1.131674241247051|-0.9602320790290833|0.2500040233135223|1.3264000415802|-0.6081032156944275|-0.1125835180282593|0.05648523569107056|XArbitraryZVertical|-0.03192846344115004|-0.5961002409603963|0.74299427774153|0.3026628101054514|-0.3133894205093384|0.9051252603530884|-0.2872901558876038|0|0|0|-1|-1|3
2021-04-08 19:29:52.887 +0100|17758.65418429167|-0.412384033203125|0.945068359375|-0.2563934326171875|17758.63422329167|1.838324783340479|-0.8046159099027|-1.16470286912876|-0.7737143635749817|0.6598142385482788|1.435007333755493|-0.5233728289604187|-0.1327668428421021|0.08628237247467041|XArbitraryZVertical|-0.04692935193281177|-0.6007039150588102|0.7416263773603038|0.294860966890265|-0.2846401929855347|0.9186710119247437|-0.2739048898220062|0|0|0|-1|-1|3
2021-04-08 19:29:52.907 +0100|17758.67414429167|-0.5059814453125|0.8720245361328125|-0.211456298828125|17758.65418429167|1.869595394100614|-0.7663439558891997|-1.195855424381059|-0.5680935978889465|0.142966240644455|1.642985939979553|-0.2408826649188995|0.02369457483291626|0.04356563091278076|XArbitraryZVertical|-0.06153883901779954|-0.6035660519902819|0.7416975508029209|0.2860172669295485|-0.2539741992950439|0.9305292367935181|-0.263841986656189|0|0|0|-1|-1|3
2021-04-08 19:29:52.927 +0100|17758.69410429167|-0.474273681640625|0.820159912109375|-0.2015380859375|17758.67414429167|1.921619493896978|-0.7175159767599565|-1.226680629405451|-0.5197196006774902|0.04477448388934135|1.745677709579468|-0.2163327038288116|-0.03338432312011719|-8.830428123474121e-05|XArbitraryZVertical|-0.07340943506613221|-0.6062332269441483|0.7433588361771623|0.2729655984510282|-0.2218225300312042|0.9413741230964661|-0.2541846632957458|0|0|0|-1|-1|3
2021-04-08 19:29:52.947 +0100|17758.71406429167|-0.3135528564453125|0.88482666015625|-0.244110107421875|17758.69410429167|1.989239627179551|-0.6477781546520386|-1.257909020001459|-0.5847216844558716|0.4971913695335388|1.929760098457336|-0.337044358253479|-0.1411457657814026|0.05357423424720764|XArbitraryZVertical|-0.08804742786266899|-0.607882110149122|0.7448387576903424|0.2606577686485988|-0.1857361197471619|0.9514487981796265|-0.2454539835453033|0|0|0|-1|-1|3
2021-04-08 19:29:52.967 +0100|17758.73402429167|-0.2078094482421875|0.8914947509765625|-0.2900238037109375|17758.71406429167|2.084359436605131|-0.5449018035866544|-1.290852094866993|-0.4725780487060547|0.6649714708328247|2.185956954956055|-0.2510386109352112|-0.084483802318573|0.03897607326507568|XArbitraryZVertical|-0.1065676664174666|-0.6086865897028518|0.745999254516178|0.2482524301794279|-0.1432170569896698|0.9610708355903625|-0.2362879365682602|0|0|0|-1|-1|3
2021-04-08 19:29:52.987 +0100|17758.75398429167|-0.174072265625|0.9910888671875|-0.40557861328125|17758.73402429167|2.223486528498018|-0.3972974423231638|-1.316188045633065|-0.1854613572359085|0.6516080498695374|2.216614723205566|-0.1616846919059753|-0.09619516134262085|-0.03090435266494751|XArbitraryZVertical|-0.1257073707874227|-0.6066902578627641|0.7487859957250963|0.2354662765268519|-0.09745435416698456|0.9677620530128479|-0.2322491705417633|0|0|0|-1|-1|3
2021-04-08 19:29:53.007 +0100|17758.773945|-0.2398529052734375|1.027908325195312|-0.477691650390625|17758.75398429167|2.396513816726068|-0.2181486085680502|-1.331664922830984|-0.08746425062417984|0.4718517959117889|2.230547904968262|-0.1191933155059814|-0.04904347658157349|-0.1129626482725143|XArbitraryZVertical|-0.1437663025041563|-0.6030824927863053|0.7525829607047648|0.2219047819821988|-0.05126163735985756|0.971544086933136|-0.2312455177307129|0|0|0|-1|-1|3
2021-04-08 19:29:53.027 +0100|17758.793906|-0.2043914794921875|0.91864013671875|-0.450653076171875|17758.773945|2.580695565853021|-0.02804863692795816|-1.336568260184317|0.1772900819778442|0.6820547580718994|2.109017610549927|-0.209157720208168|0.059609055519104|-0.1927425861358643|XArbitraryZVertical|-0.1609142425233604|-0.5984194694958822|0.7565529083759417|0.2088746453775711|-0.006509032566100359|0.9726938009262085|-0.2320014834403992|0|0|0|-1|-1|3
2021-04-08 19:29:53.047 +0100|17758.813866|-0.07952880859375|0.848663330078125|-0.47686767578125|17758.793906|2.751667742759883|0.154924393105136|-1.32789952937833|0.3785856366157532|0.9862692356109619|1.973032474517822|-0.2749201357364655|0.005245745182037354|-0.24974624812603|XArbitraryZVertical|-0.1788153879817685|-0.5909378170723272|0.7610887999798099|0.1989007117625878|0.03711287304759026|0.9706453084945679|-0.2376351058483124|0|0|0|-1|-1|3
2021-04-08 19:29:53.067 +0100|17758.833826|0.0322723388671875|0.8743896484375|-0.418914794921875|17758.813866|2.892393204203476|0.3126374240370463|-1.308962781215225|0.6280837059020996|1.129636406898499|1.872134566307068|-0.2244047671556473|-0.1017813086509705|-0.2320585250854492|XArbitraryZVertical|-0.1972868584121769|-0.5813135679320899|0.7658370504852333|0.1914320322829301|0.07961509376764297|0.9659169912338257|-0.2463048696517944|0|0|0|-1|-1|3
2021-04-08 19:29:53.087 +0100|17758.853786|0.0965728759765625|0.9520416259765625|-0.3717041015625|17758.833826|2.99937640091258|0.438197061090753|-1.283763489862585|0.6319701671600342|1.115638852119446|1.758344769477844|-0.1393347531557083|-0.09600532054901123|-0.1958044171333313|XArbitraryZVertical|-0.2151707391488777|-0.5705451369938048|0.7706015397496189|0.1853463001588911|0.1201249435544014|0.959088146686554|-0.2563596069812775|0|0|0|-1|-1|3
2021-04-08 19:29:53.107 +0100|17758.873746|0.1704254150390625|0.9101715087890625|-0.3636932373046875|17758.853786|3.080375474634539|0.538517961086219|-1.257199866502011|0.5340622663497925|1.201052188873291|1.595728039741516|-0.08926934003829956|-0.03939551115036011|-0.1365444958209991|XArbitraryZVertical|-0.2324145815655725|-0.5599750586351339|0.7745553647738325|0.1802101008842229|0.1582095921039581|0.9512302875518799|-0.264822781085968|0|0|0|-1|-1|3
2021-04-08 19:29:53.127 +0100|17758.893706|0.284332275390625|0.9705352783203125|-0.376739501953125|17758.873746|-3.134621515617846|0.6286287106549134|-1.233536903557989|0.249277725815773|1.37202775478363|1.503269195556641|-0.06128093600273132|-0.002030134201049805|-0.1032806634902954|XArbitraryZVertical|-0.2502826188518044|-0.5509408862131708|0.7764058816076621|0.1761160691378844|0.1945827156305313|0.943665087223053|-0.2676455080509186|0|0|0|-1|-1|3
2021-04-08 19:29:53.147 +0100|17758.913666|0.4341583251953125|1.183746337890625|-0.394134521484375|17758.893706|-3.076781206132274|0.7121402567228399|-1.212618211122254|0.144081249833107|1.518639087677002|1.360594749450684|-0.007522523403167725|-0.03242355585098267|-0.1170934438705444|XArbitraryZVertical|-0.2690039931506898|-0.5430954271696934|0.7762431626462808|0.1735826444071525|0.2290811389684677|0.9365370869636536|-0.2653684318065643|0|0|0|-1|-1|3
2021-04-08 19:29:53.166 +0100|17758.933626|0.5294342041015625|1.262115478515625|-0.3685150146484375|17758.913666|-3.030029988684557|0.7858975155914815|-1.191985681156169|0.2609597742557526|1.451577067375183|1.241110682487488|0.09907352924346924|0.1461967825889587|-0.1229239702224731|XArbitraryZVertical|-0.2874932044975927|-0.5354094067143251|0.775310488989567|0.1719833288530981|0.2616299986839294|0.9291051626205444|-0.2613688409328461|0|0|0|-1|-1|3
2021-04-08 19:29:53.186 +0100|17758.953587|0.524810791015625|1.122833251953125|-0.35711669921875|17758.933626|-2.999206297403881|0.8414221819359493|-1.17023834658394|0.3448647558689117|1.26215386390686|1.150488615036011|0.1999934315681458|0.3386775255203247|-0.1166130006313324|XArbitraryZVertical|-0.3037458536478859|-0.5270791358712709|0.7750687620002528|0.1708639229548701|0.2907302379608154|0.9208435416221619|-0.2598520815372467|0|0|0|-1|-1|3
2021-04-08 19:29:53.206 +0100|17758.973547|0.4128570556640625|1.047286987304688|-0.3499603271484375|17758.953587|-2.974753086387226|0.8868343901042453|-1.149293982520822|0.2184156030416489|1.035953402519226|1.057346343994141|0.2287454307079315|0.2804871201515198|-0.1168332993984222|XArbitraryZVertical|-0.3179581359492534|-0.5192722734615456|0.7750022035131625|0.1692062398238675|0.3171083033084869|0.9124752879142761|-0.258517861366272|0|0|0|-1|-1|3
2021-04-08 19:29:53.226 +0100|17758.993507|0.4144439697265625|1.131805419921875|-0.4049072265625|17758.973547|-2.949962825129514|0.9299459556724182|-1.132243612217547|0.01641714014112949|1.099246740341187|0.9081822037696838|0.1317756175994873|0.1595891714096069|-0.1140434741973877|XArbitraryZVertical|-0.3308416731748197|-0.5134252462754562|0.7739331496065046|0.1672303468976241|0.3403781056404114|0.9053671956062317|-0.2538765966892242|0|0|0|-1|-1|3
2021-04-08 19:29:53.247 +0100|17759.013467|0.4922637939453125|1.226776123046875|-0.4212188720703125|17758.993507|-2.925503613272379|0.9756551147569205|-1.118971157468665|-0.03344742208719254|1.241772174835205|0.7602426409721375|0.03260853886604309|0.1820587515830994|-0.1217116713523865|XArbitraryZVertical|-0.3443696893023144|-0.5089425235378587|0.7711271231379119|0.166583983385417|0.361542284488678|0.8996517062187195|-0.2447740435600281|0|0|0|-1|-1|3
2021-04-08 19:29:53.266 +0100|17759.033427|0.498565673828125|1.207672119140625|-0.41552734375|17759.013467|-2.913850353472019|1.010993727289461|-1.106445024064312|0.3204700648784637|1.211191773414612|0.5895909667015076|0.07268023490905762|0.2933416366577148|-0.1820782423019409|XArbitraryZVertical|-0.3571066213074386|-0.503555583555967|0.7685146168437945|0.1682027275460538|0.3794844746589661|0.8941122889518738|-0.237813264131546|0|0|0|-1|-1|3
2021-04-08 19:29:53.286 +0100|17759.053387|0.3753204345703125|1.017822265625|-0.33880615234375|17759.033427|-2.921879026141102|1.025485347853241|-1.09146920058681|0.7451435923576355|0.9254388809204102|0.4996027946472168|0.120109885931015|0.347008228302002|-0.1876719295978546|XArbitraryZVertical|-0.3671961456955543|-0.4955430964460328|0.76825455780149|0.1714328400169493|0.3942955136299133|0.8873054385185242|-0.2392080575227737|0|0|0|-1|-1|3
2021-04-08 19:29:53.306 +0100|17759.073347|0.2771148681640625|0.9150238037109375|-0.3025360107421875|17759.053387|-2.939788987306927|1.026841891891389|-1.075442903590144|0.6352564692497253|0.8556117415428162|0.4201990365982056|0.03943181037902832|0.2380119562149048|-0.1402140259742737|XArbitraryZVertical|-0.3747603335293673|-0.4863682394291081|0.7696773219609226|0.1749218739581955|0.4067361652851105|0.8798007965087891|-0.2460012584924698|0|0|0|-1|-1|3
