loggingTime(txt)|accelerometerTimestamp_sinceReboot(s)|accelerometerAccelerationX(G)|accelerometerAccelerationY(G)|accelerometerAccelerationZ(G)|motionTimestamp_sinceReboot(s)|motionYaw(rad)|motionRoll(rad)|motionPitch(rad)|motionRotationRateX(rad/s)|motionRotationRateY(rad/s)|motionRotationRateZ(rad/s)|motionUserAccelerationX(G)|motionUserAccelerationY(G)|motionUserAccelerationZ(G)|motionAttitudeReferenceFrame(txt)|motionQuaternionX(R)|motionQuaternionY(R)|motionQuaternionZ(R)|motionQuaternionW(R)|motionGravityX(G)|motionGravityY(G)|motionGravityZ(G)|motionMagneticFieldX(µT)|motionMagneticFieldY(µT)|motionMagneticFieldZ(µT)|motionHeading(°)|motionMagneticFieldCalibrationAccuracy(Z)|label
2021-04-22 21:37:03.416 +0100|139809.026589125|0.04119873046875|-0.118743896484375|-0.937225341796875|139809.021600125|0.465053857817436|0.06028762071491683|0.03034243091235624|-0.05379856377840042|-0.151108056306839|0.01189261768013239|0.02084651216864586|-0.004069691523909569|-0.04066735506057739|XArbitraryZVertical|0.007811239743850326|0.03281902747636727|0.2307509045285957|0.972427886834981|0.06022337451577187|-0.03033777512609959|-0.9977238178253174|0|0|0|-1|-1|3
2021-04-22 21:37:03.426 +0100|139809.046549125|0.05059814453125|-0.0417022705078125|-0.96563720703125|139809.041559125|0.4645839664163848|0.05843646572497448|0.02676728346681144|-0.196528434753418|-0.03953545540571213|-0.0563713014125824|-0.04654153436422348|-0.08051935583353043|0.03319847583770752|XArbitraryZVertical|0.006293500217229561|0.03150649620768459|0.2304701393680439|0.9725489481986053|0.05838229134678841|-0.02676408737897873|-0.9979354739189148|0|0|0|-1|-1|3
2021-04-22 21:37:03.427 +0100|139809.066509125|0.0459747314453125|-0.0131378173828125|-0.976409912109375|139809.061519125|0.463658773557595|0.05720850475836321|0.02232251762933838|-0.1022875383496284|-0.07549361884593964|-0.05312357842922211|0.003765221685171127|-0.00264161080121994|0.02637457847595215|XArbitraryZVertical|0.004287241307843101|0.03039677883764122|0.2299607016205951|0.9727157901667541|0.0571630597114563|-0.02232066355645657|-0.9981153011322021|0|0|0|-1|-1|3
2021-04-22 21:37:03.427 +0100|139809.086469125|0.04840087890625|-0.03607177734375|-0.9980621337890625|139809.081479125|0.4624226365092731|0.05588261922771483|0.01968044087714127|-0.07163518667221069|-0.04765830934047699|-0.0767243281006813|-0.01836720108985901|0.001522315666079521|0.01657140254974365|XArbitraryZVertical|0.003172677696809083|0.02944695689824936|0.2293238147322138|0.9728995627856653|0.05584272369742393|-0.01967917010188103|-0.9982455968856812|0|0|0|-1|-1|3
2021-04-22 21:37:03.428 +0100|139809.106429125|0.05841064453125|-0.0252685546875|-1.009979248046875|139809.101439125|0.4609249669722277|0.05504122301674906|0.01839381017207237|-0.05736606940627098|-0.05831899866461754|-0.0749097466468811|0.001026079058647156|-0.01732694730162621|-0.003773748874664307|XArbitraryZVertical|0.002664817162554119|0.02888847720546562|0.2285780154235116|0.9730932918821712|0.05500413104891777|-0.0183927733451128|-0.9983167052268982|0|0|0|-1|-1|3
2021-04-22 21:37:03.445 +0100|139809.126389125|0.0654754638671875|-0.02410888671875|-1.01129150390625|139809.121399125|0.4594548922402369|0.05390836532552647|0.01917108367221904|-0.04181397333741188|-0.04619746282696724|-0.08217271417379379|0.004141487181186676|-0.003961309790611267|-0.01184433698654175|XArbitraryZVertical|0.003193413309625628|0.02842358751496562|0.2278704971438259|0.97327134474015|0.05387235805392265|-0.01916990987956524|-0.9983637928962708|0|0|0|-1|-1|3
2021-04-22 21:37:03.465 +0100|139809.146349125|0.0710296630859375|-0.0230865478515625|-1.007537841796875|139809.141359125|0.4579306880611062|0.05280330713121495|0.01877104424671302|-0.04882286489009857|-0.05950895324349403|-0.07705270498991013|0.01574241742491722|-0.00640595518052578|-0.01225084066390991|XArbitraryZVertical|0.003145833671917876|0.02783795560705805|0.227122194546195|0.9734632263536678|0.05276947468519211|-0.01876994222402573|-0.9984303116798401|0|0|0|-1|-1|3
2021-04-22 21:37:03.485 +0100|139809.166309125|0.0571136474609375|-0.0172576904296875|-1.004989624023438|139809.161319125|0.4565009400428499|0.0513744977120168|0.0177965559899074|-0.03523930907249451|-0.0689333975315094|-0.07022568583488464|0.01674087345600128|-0.004557404667139053|-0.008771240711212158|XArbitraryZVertical|0.002853036637680757|0.02703003090020615|0.2264127243588101|0.9736521864105554|0.05134376883506775|-0.01779561676084995|-0.9985224604606628|0|0|0|-1|-1|3
2021-04-22 21:37:03.505 +0100|139809.186268125|0.04815673828125|-0.01031494140625|-1.006500244140625|139809.181278125|0.4552964522949171|0.0499334355136766|0.01750805982414352|-0.0205680076032877|-0.07178895175457001|-0.05611120164394379|0.004645060747861862|0.001333951950073242|-0.005610942840576172|XArbitraryZVertical|0.002891545282466213|0.02629414114265147|0.2258209430032799|0.9738097327259833|0.04990503937005997|-0.0175071656703949|-0.9986005425453186|0|0|0|-1|-1|3
2021-04-22 21:37:03.524 +0100|139809.206228125|0.045501708984375|0.0023040771484375|-1.015167236328125|139809.201238125|0.4543314411385948|0.04881540683602773|0.01758396936204065|0.02245509438216686|-0.05308157205581665|-0.04095382243394852|-0.003134261816740036|0.01076349057257175|-0.006594657897949219|XArbitraryZVertical|0.00306717499791514|0.02575684188735071|0.2253502179640118|0.9739325869217494|0.04878847673535347|-0.01758306287229061|-0.9986543655395508|0|0|0|-1|-1|3
2021-04-22 21:37:03.544 +0100|139809.226188125|0.049896240234375|-0.01104736328125|-1.02581787109375|139809.221198125|0.4535445801188238|0.04823656803817575|0.01853863476008194|0.05298131331801414|-0.03753616660833359|-0.03622138500213623|-0.002418030053377151|0.02099534310400486|-0.0186229944229126|XArbitraryZVertical|0.003607398438076032|0.02558091594437627|0.2249763795611522|0.9740217628976905|0.04820957779884338|-0.01853757351636887|-0.9986652135848999|0|0|0|-1|-1|3
2021-04-22 21:37:03.564 +0100|139809.246148125|0.0525054931640625|-0.026214599609375|-1.0211181640625|139809.241158125|0.4528683689991899|0.04802645585090104|0.01916827705379722|0.002115151844918728|-0.02934705466032028|-0.03493613749742508|0.003087174147367477|0.0006440375000238419|-0.02680349349975586|XArbitraryZVertical|0.003946346786603484|0.02554794417265841|0.22465335370696|0.9740959174655281|0.04799917712807655|-0.01916710287332535|-0.9986634850502014|0|0|0|-1|-1|3
2021-04-22 21:37:03.584 +0100|139809.266108125|0.0428314208984375|-0.0034332275390625|-1.010787963867188|139809.261118125|0.4522252551745545|0.04772432889847823|0.01888819556294391|-0.02246063202619553|-0.02246896177530289|-0.02824752032756805|0.002351045608520508|-0.006853401660919189|-0.02261805534362793|XArbitraryZVertical|0.003852013143360223|0.02536815779401298|0.2243365565633878|0.9741740055713922|0.04769770428538322|-0.01888707280158997|-0.9986832141876221|0|0|0|-1|-1|3
2021-04-22 21:37:03.604 +0100|139809.286068125|0.041107177734375|0.008056640625|-1.010833740234375|139809.281078125|0.4517448231777351|0.04746053216930005|0.01838510514848088|-0.0026277219876647|-0.006393322721123695|-0.02425437979400158|-0.005106896162033081|0.02032303810119629|-0.01353240013122559|XArbitraryZVertical|0.003642576969784848|0.02518247023908186|0.2240967384611444|0.9742348067872887|0.04743469879031181|-0.01838406920433044|-0.9987051486968994|0|0|0|-1|-1|3
2021-04-22 21:37:03.624 +0100|139809.306027125|0.0426025390625|-0.0144805908203125|-1.01544189453125|139809.301037125|0.4511907525026815|0.04746058789324565|0.01804233539520525|0.01187741756439209|0.007625025231391191|-0.03091103956103325|-0.006617866456508636|0.02248276770114899|-0.01274800300598145|XArbitraryZVertical|0.003482550699149739|0.02514319871517382|0.2238232139448932|0.9742993042063286|0.04743504896759987|-0.01804135739803314|-0.9987114071846008|0|0|0|-1|-1|3
2021-04-22 21:37:03.644 +0100|139809.325987125|0.041473388671875|-0.0196685791015625|-1.008209228515625|139809.320997125|0.4505788503787519|0.04777091504006561|0.01785349207560194|-0.00918410811573267|0.01549248211085796|-0.03271089121699333|-0.004898540675640106|0.0006722528487443924|-0.01317131519317627|XArbitraryZVertical|0.003363550141384451|0.02527225149868326|0.2235236421543476|0.9743651731015737|0.04774513840675354|-0.01785254292190075|-0.9987000226974487|0|0|0|-1|-1|3
2021-04-22 21:37:03.664 +0100|139809.345947125|0.0327606201171875|-0.00860595703125|-0.9981536865234375|139809.340957125|0.4499379565324509|0.04829368059363542|0.0177030085285587|-0.01536515541374683|0.03080459497869015|-0.03375627100467682|-0.0095863938331604|-0.004711974412202835|-0.007807433605194092|XArbitraryZVertical|0.003239978671652885|0.02550911223389434|0.2232106741660225|0.9744310422832556|0.04826734587550163|-0.01770208403468132|-0.9986775517463684|0|0|0|-1|-1|3
2021-04-22 21:37:03.684 +0100|139809.365907125|0.0450592041015625|-0.0003204345703125|-1.001846313476562|139809.360917125|0.449277002335867|0.04899018877560522|0.01701221100789291|-0.004402152728289366|0.03763192519545555|-0.03286802023649216|-0.01533322036266327|0.01237382180988789|0.0008224248886108398|XArbitraryZVertical|0.002834163815631078|0.02577057119751784|0.2228821642470406|0.9745006667293515|0.0489635095000267|-0.01701139099895954|-0.9986556768417358|0|0|0|-1|-1|3
2021-04-22 21:37:03.704 +0100|139809.385867125|0.048675537109375|0.00152587890625|-1.007247924804688|139809.380877125|0.4487146541398803|0.04958137199518983|0.01681399600987132|0.02755258418619633|0.0378778949379921|-0.02599502168595791|-0.002114564180374146|0.01965244300663471|-0.006085038185119629|XArbitraryZVertical|0.0026790139011263|0.02603582178360393|0.2226067618834902|0.9745570580400066|0.04955405369400978|-0.01681320369243622|-0.9986299276351929|0|0|0|-1|-1|3
2021-04-22 21:37:03.724 +0100|139809.405827125|0.0552825927734375|-0.0389862060546875|-1.00408935546875|139809.400837125|0.4480788057701722|0.05027213538912029|0.01713539139372806|0.002107678214088082|0.04736194387078285|-0.03653901070356369|-0.001339249312877655|0.006500281393527985|-0.008047580718994141|XArbitraryZVertical|0.00276714763372167|0.02640724224074688|0.2223014678644193|0.9746164899106556|0.05024358630180359|-0.01713455282151699|-0.9985899925231934|0|0|0|-1|-1|3
2021-04-22 21:37:03.744 +0100|139809.425787125|0.0566864013671875|-0.0382080078125|-0.992340087890625|139809.420797125|0.4473359151590627|0.05090399254944036|0.01656239609978733|-0.05598358809947968|0.02971354871988297|-0.04054777696728706|0.007169317454099655|-0.02843542583286762|-0.0006235837936401367|XArbitraryZVertical|0.002427564374694844|0.02665068323041328|0.2219337382756983|0.9746945193955066|0.05087503418326378|-0.01656163856387138|-0.9985677003860474|0|0|0|-1|-1|3
2021-04-22 21:37:03.764 +0100|139809.445746125|0.047637939453125|-0.0014190673828125|-0.984161376953125|139809.440757125|0.4466210825604163|0.05105101096177887|0.0152361468564944|-0.04925983771681786|0.02118173986673355|-0.03489726036787033|0.004091747105121613|-0.01538772881031036|0.009064018726348877|XArbitraryZVertical|0.001774343998492438|0.0265747955755787|0.2215701812361407|0.9747807740017458|0.05102291703224182|-0.01523555722087622|-0.9985812902450562|0|0|0|-1|-1|3
2021-04-22 21:37:03.784 +0100|139809.465706125|0.0494384765625|0.0182647705078125|-0.9860992431640625|139809.460716125|0.4459545757648005|0.05127972673780944|0.01448609655471893|0.008488062769174576|0.0102687980979681|-0.02891908213496208|-0.001966070383787155|0.01872863620519638|0.0144498348236084|XArbitraryZVertical|0.001392271544143509|0.02660285622613219|0.2212367839670574|0.9748562397437026|0.05125187709927559|-0.01448559015989304|-0.9985806941986084|0|0|0|-1|-1|3
2021-04-22 21:37:03.804 +0100|139809.485666125|0.044647216796875|0.0070037841796875|-0.992889404296875|139809.480676125|0.4454344081506905|0.05146899473918212|0.01502758286578293|0.0711975023150444|0.01186584308743477|-0.02239735797047615|-0.005526851862668991|0.03306400775909424|0.01092261075973511|XArbitraryZVertical|0.001642251842355634|0.02675448024155603|0.2209896938877395|0.9749078622984748|0.05144046619534492|-0.01502701733261347|-0.9985629916191101|0|0|0|-1|-1|3
2021-04-22 21:37:03.824 +0100|139809.505626125|0.042083740234375|-0.0167694091796875|-0.9916229248046875|139809.500636125|0.444916156402388|0.05186386586587804|0.01692108037030564|0.06610456854104996|0.01900822669267654|-0.02468652091920376|-0.00660623237490654|0.01869139447808266|0.004585385322570801|XArbitraryZVertical|0.002528725128162244|0.02715515780912413|0.2207596654568033|0.9749469679224496|0.05183319747447968|-0.01692027226090431|-0.9985123872756958|0|0|0|-1|-1|3
2021-04-22 21:37:03.844 +0100|139809.525586125|0.036163330078125|-0.0238800048828125|-0.970977783203125|139809.520596125|0.4442936117151134|0.05233874123990462|0.01807070166347224|-0.004671098664402962|0.01829354278743267|-0.04319575801491737|-0.0112755112349987|-0.003154153004288673|0.009759128093719482|XArbitraryZVertical|0.003045333905178932|0.02751234289249255|0.2204703455047606|0.9750009160584674|0.05230630561709404|-0.01806971803307533|-0.9984675645828247|0|0|0|-1|-1|3
2021-04-22 21:37:03.864 +0100|139809.545546125|0.0261383056640625|-0.0225830078125|-0.955596923828125|139809.540556125|0.4431152230312095|0.05274703699679906|0.01671641183713915|-0.1038540378212929|0.01632445305585861|-0.08016487210988998|-0.01939010620117188|-0.01122210547327995|0.03094035387039185|XArbitraryZVertical|0.002356279808688087|0.02756102069053425|0.2198803363491436|0.9751346799561071|0.05271521583199501|-0.01671563275158405|-0.9984696507453918|0|0|0|-1|-1|3
2021-04-22 21:37:03.884 +0100|139809.565506125|-0.0276031494140625|-0.0044097900390625|-0.9187774658203125|139809.560516125|0.4408061962325947|0.05297612016544472|0.01233884701840809|-0.2627458870410919|0.02003663405776024|-0.1865885108709335|-0.03312623873353004|-0.0039567481726408|0.05476498603820801|XArbitraryZVertical|0.0002279206480645222|0.02719207836739275|0.2187015699544649|0.9754128764694326|0.05294731259346008|-0.01233853399753571|-0.998521089553833|0|0|0|-1|-1|3
2021-04-22 21:37:03.904 +0100|139809.585465125|-0.0960540771484375|0.0309600830078125|-0.871429443359375|139809.580475125|0.4354406789823553|0.05350494473056384|0.003709272862792301|-0.5591564178466797|0.03858336806297302|-0.4088003635406494|-0.0976533442735672|-8.906982839107513e-05|0.08640694618225098|XArbitraryZVertical|-0.003967745687450428|0.02651821382326593|0.2159751004607871|0.9760307290534004|0.05347905308008194|-0.003709264332428575|-0.9985620975494385|0|0|0|-1|-1|3
2021-04-22 21:37:03.924 +0100|139809.605425125|-0.207916259765625|0.196380615234375|-0.7941741943359375|139809.600435125|0.4256903628642715|0.05408988131603901|-0.01062575168413692|-0.8436498641967773|0.06203137710690498|-0.6486496925354004|-0.1735673993825912|0.05132623761892319|0.146170973777771|XArbitraryZVertical|-0.01090330168252555|0.0253091572441693|0.2110210493835063|0.9770930950142278|0.05406045913696289|0.01062555145472288|-0.9984811544418335|0|0|0|-1|-1|3
2021-04-22 21:37:03.944 +0100|139809.625385125|-0.2557830810546875|0.259765625|-0.7154083251953125|139809.620395125|0.4109096675375211|0.05685405641320779|-0.0303779968644842|-1.050161838531494|0.2656172513961792|-0.9407159090042114|-0.2896769940853119|0.202263280749321|0.2216938138008118|XArbitraryZVertical|-0.02066098354944624|0.02472482639667201|0.2034838585100557|0.9785480658471229|0.05679721385240555|0.03037332557141781|-0.9979236125946045|0|0|0|-1|-1|3
2021-04-22 21:37:03.964 +0100|139809.645345125|-0.231658935546875|0.1168365478515625|-0.679412841796875|139809.640355125|0.3916513495222477|0.06329317103503911|-0.05481195117325822|-1.289034366607666|0.4431777596473694|-1.102670311927795|-0.3137664198875427|0.1881212592124939|0.2966545820236206|XArbitraryZVertical|-0.03301968898638846|0.02569567661676406|0.1935555399989415|0.9801968567101421|0.06315592676401138|0.05478451028466225|-0.9964988827705383|0|0|0|-1|-1|3
2021-04-22 21:37:03.984 +0100|139809.665305125|-0.179107666015625|-0.0332183837890625|-0.703338623046875|139809.660315125|0.3706358720271323|0.0721693758420681|-0.08574482519550836|-1.681487321853638|0.5744333863258362|-1.178608536720276|-0.2961156964302063|-0.02500025928020477|0.318348228931427|XArbitraryZVertical|-0.04873938650279498|0.02753448773007697|0.1824501282719932|0.9816202441307309|0.07184183597564697|0.08563979715108871|-0.9937326312065125|0|0|0|-1|-1|3
2021-04-22 21:37:04.004 +0100|139809.685265125|-0.149810791015625|-0.0167236328125|-0.7582244873046875|139809.680275125|0.3501077668860109|0.0818434737655334|-0.1256181251694921|-2.109255313873291|0.6121012568473816|-1.161300420761108|-0.2462998032569885|-0.1559112966060638|0.2761989235877991|XArbitraryZVertical|-0.06886769135148227|0.02928309537898596|0.171143641555093|0.9824000222931448|0.08110795915126801|0.1252880096435547|-0.988799512386322|0|0|0|-1|-1|3
2021-04-22 21:37:04.024 +0100|139809.705225125|-0.08258056640625|0.0037689208984375|-0.8101348876953125|139809.700235125|0.3309895283460618|0.0914261538403166|-0.1724442594835913|-2.369484663009644|0.6244602203369141|-1.118864059448242|-0.2322178930044174|-0.1803635656833649|0.2103630304336548|XArbitraryZVertical|-0.09235020446207767|0.0307335074069749|0.160075451254468|0.9822946651305173|0.08994472026824951|0.1715908646583557|-0.9810537695884705|0|0|0|-1|-1|3
2021-04-22 21:37:04.044 +0100|139809.725184125|0.0213165283203125|0.015899658203125|-0.925262451171875|139809.720195125|0.314286992054656|0.09929607715347799|-0.2223696271095442|-2.412024259567261|0.4681276082992554|-0.9661087989807129|-0.1519291549921036|-0.2067007124423981|0.1415785551071167|XArbitraryZVertical|-0.1171723236121766|0.03137056650169073|0.1499009397082676|0.9812320391953897|0.09669209271669388|0.2205415219068527|-0.9705730676651001|0|0|0|-1|-1|3
2021-04-22 21:37:04.064 +0100|139809.745144125|0.09393310546875|-0.0262451171875|-1.047988891601562|139809.740154125|0.3016313106919096|0.1035604999581279|-0.2709257694848499|-2.284680604934692|0.274797260761261|-0.7499864101409912|-0.05945910513401031|-0.2621598243713379|0.0007811188697814941|XArbitraryZVertical|-0.1410420272097283|0.03043766430997991|0.1417582311486853|0.9793291273445541|0.09960471838712692|0.2676235437393188|-0.9583613872528076|0|0|0|-1|-1|3
2021-04-22 21:37:04.083 +0100|139809.765104125|0.14044189453125|0.0019989013671875|-1.17840576171875|139809.760114125|0.2932654249627309|0.1049453498231392|-0.3149773380137887|-1.995561361312866|0.108188271522522|-0.5095029473304749|0.01008056104183197|-0.3375953733921051|-0.1322471499443054|XArbitraryZVertical|-0.1625101186000852|0.02835984911890389|0.13596332555442|0.9768829342615148|0.09959933906793594|0.3097949326038361|-0.9455723762512207|0|0|0|-1|-1|3
2021-04-22 21:37:04.103 +0100|139809.78506325|0.15850830078125|0.0792388916015625|-1.249465942382812|139809.78007325|0.2886819226936392|0.1039073808153525|-0.352073599620471|-1.684833168983459|-0.06265563517808914|-0.3240126073360443|0.05081955343484879|-0.3252058625221252|-0.2706720232963562|XArbitraryZVertical|-0.1804282010126446|0.02543946888021856|0.1324262726425434|0.9743007408830376|0.09735825657844543|0.3448449373245239|-0.9335969686508179|0|0|0|-1|-1|3
2021-04-22 21:37:04.123 +0100|139809.80502325|0.1973114013671875|0.2205963134765625|-1.255355834960938|139809.80003325|0.286746904888464|0.1011691915603998|-0.3830118396203014|-1.398490309715271|-0.1283411234617233|-0.1803672015666962|0.06821664422750473|-0.2712519764900208|-0.3411760926246643|XArbitraryZVertical|-0.1952361027100449|0.02196819757689075|0.1305659603982528|0.9717781807482786|0.09367880970239639|0.3737157583236694|-0.9228005409240723|0|0|0|-1|-1|3
2021-04-22 21:37:04.144 +0100|139809.82498325|0.3421173095703125|0.3922119140625|-1.261810302734375|139809.81999325|0.2862497560031119|0.09808888200156612|-0.4083522981476312|-1.095832705497742|-0.1978827565908432|-0.1136539429426193|0.1339820325374603|-0.1326770484447479|-0.3398544192314148|XArbitraryZVertical|-0.2072934464941797|0.01862927970339463|0.1296673292732294|0.9694683324090307|0.08987937122583389|0.397097647190094|-0.9133647680282593|0|0|0|-1|-1|3
2021-04-22 21:37:04.164 +0100|139809.84494325|0.3552398681640625|0.5487518310546875|-1.254531860351562|139809.83995325|0.2866367661959588|0.09123026151413012|-0.4264930716488578|-0.724629819393158|-0.519164502620697|-0.04116341099143028|0.2862127125263214|0.01886138319969177|-0.3498485088348389|XArbitraryZVertical|-0.2156116752558578|0.01391365449921627|0.1298964153777583|0.9677009256314649|0.08294288069009781|0.4136805534362793|-0.9066360592842102|0|0|0|-1|-1|3
2021-04-22 21:37:04.184 +0100|139809.86490225|0.230072021484375|0.656402587890625|-1.267974853515625|139809.85991325|0.2866701166441812|0.07797330978060173|-0.4383744413164246|-0.4972311556339264|-0.7806211709976196|-0.07970086485147476|0.259747326374054|0.156495988368988|-0.3509698510169983|XArbitraryZVertical|-0.2204774491859342|0.006618060914667663|0.1309331137050827|0.9665415312300792|0.07052885740995407|0.4244681894779205|-0.9026917815208435|0|0|0|-1|-1|3
2021-04-22 21:37:04.203 +0100|139809.88486225|0.0859527587890625|0.7475433349609375|-1.252777099609375|139809.87987225|0.2847788634773444|0.06000509232297879|-0.4486951028564623|-0.6035714745521545|-0.9090146422386169|-0.1871541738510132|0.1357402801513672|0.2399779558181763|-0.3739684224128723|XArbitraryZVertical|-0.2242700191281277|-0.002605972384621526|0.1316840426936279|0.9655856921914656|0.05403298512101173|0.4337901771068573|-0.899392306804657|0|0|0|-1|-1|3
2021-04-22 21:37:04.223 +0100|139809.90482225|0.1056365966796875|0.8298492431640625|-1.22528076171875|139809.89983225|0.2791904430749842|0.03954779637556915|-0.4627946303840615|-0.7341768145561218|-0.8961583375930786|-0.3776308000087738|0.03859584406018257|0.3236310482025146|-0.3443551659584045|XArbitraryZVertical|-0.2297403801645593|-0.01284595150403967|0.130916731024206|0.9643211292703047|0.03537847474217415|0.4464505016803741|-0.8941086530685425|0|0|0|-1|-1|3
2021-04-22 21:37:04.243 +0100|139809.92478225|0.1203460693359375|0.850311279296875|-1.138473510742188|139809.91979225|0.2697076304424131|0.01669147198478132|-0.4777061214600393|-0.7666658759117126|-0.9842948317527771|-0.5185713171958923|0.1025633662939072|0.3779652416706085|-0.3201249241828918|XArbitraryZVertical|-0.2355224300452568|-0.02377204016441925|0.1286674387120432|0.9630206529924508|0.01482220459729433|0.4597432911396027|-0.8879281282424927|0|0|0|-1|-1|3
2021-04-22 21:37:04.263 +0100|139809.94474225|-0.0142822265625|0.9211883544921875|-1.026947021484375|139809.93975225|0.2568873953375102|-0.01067098795497958|-0.4930852758440684|-0.7479952573776245|-1.156748294830322|-0.6179231405258179|0.1131438612937927|0.3885936141014099|-0.2353075742721558|XArbitraryZVertical|-0.2413759874150114|-0.03639195782598156|0.1255072366911956|0.9615931166659536|-0.009399645961821079|0.4733458757400513|-0.8808265328407288|0|0|0|-1|-1|3
2021-04-22 21:37:04.283 +0100|139809.96470225|-0.17633056640625|0.8738861083984375|-0.896148681640625|139809.95971225|0.2405260215807871|-0.04179976396307006|-0.5060187730733791|-0.5743771195411682|-1.137686252593994|-0.7961231470108032|-0.03167152777314186|0.4354224503040314|-0.127928614616394|XArbitraryZVertical|-0.2460289218137864|-0.05011188087712617|0.1213218760556199|0.9603331490505697|-0.03655081987380981|0.4846988022327423|-0.8739171624183655|0|0|0|-1|-1|3
2021-04-22 21:37:04.303 +0100|139809.98466225|-0.0306243896484375|0.7339324951171875|-0.760345458984375|139809.97967225|0.2179791289956649|-0.07237313744853253|-0.5167023418879395|-0.6658601760864258|-0.7664779424667358|-1.123679280281067|-0.1168024241924286|0.3625069260597229|0.01498943567276001|XArbitraryZVertical|-0.2499998691647791|-0.06254253995817755|0.1142834487158451|0.9594415342866086|-0.06287012994289398|0.4940156638622284|-0.8671770095825195|0|0|0|-1|-1|3
2021-04-22 21:37:04.323 +0100|139810.00462225|0.211578369140625|0.5561981201171875|-0.59454345703125|139809.99963225|0.1892876192212613|-0.09954154721304073|-0.5294793130363563|-0.8597406148910522|-0.5691149234771729|-1.197164058685303|0.1376033127307892|0.171079695224762|0.1194948554039001|XArbitraryZVertical|-0.2556266804434121|-0.07249879762226324|0.1040565037975029|0.9584212348891663|-0.08576953411102295|0.5050840377807617|-0.8587978482246399|0|0|0|-1|-1|3
2021-04-22 21:37:04.359 +0100|139810.02458125|0.23004150390625|0.442169189453125|-0.482421875|139810.01959125|0.1608789420812354|-0.1233079652228697|-0.5455829925360605|-0.9724846482276917|-0.3399528861045837|-1.020201921463013|0.3372409045696259|0.005757927894592285|0.2899091243743896|XArbitraryZVertical|-0.263271469440263|-0.08075226373822163|0.09378114598456734|0.9567509472385285|-0.1051398068666458|0.5189165472984314|-0.8483344316482544|0|0|0|-1|-1|3
2021-04-22 21:37:04.363 +0100|139810.04454125|0.195892333984375|0.3579559326171875|-0.4362945556640625|139810.03955125|0.1367619402382632|-0.1398947014968621|-0.5619599011192233|-0.9372456669807434|-0.05055279657244682|-0.8007420301437378|0.3408186137676239|-0.1145098209381104|0.3679144382476807|XArbitraryZVertical|-0.2713845430659741|-0.08589332498661117|0.08482272486829689|0.954870707257361|-0.1179948896169662|0.5328457355499268|-0.8379455208778381|0|0|0|-1|-1|3
2021-04-22 21:37:04.383 +0100|139810.06450125|0.1221466064453125|0.3069915771484375|-0.4286651611328125|139810.05951125|0.1169594333514714|-0.1490318131619396|-0.5790498048183782|-0.9869725704193115|0.2106161117553711|-0.6284055113792419|0.3035815358161926|-0.2021657228469849|0.3956533670425415|XArbitraryZVertical|-0.2800479183900101|-0.08786644638586491|0.07707643430125068|0.9528441151042272|-0.1242758631706238|0.5472288727760315|-0.8277053236961365|0|0|0|-1|-1|3
2021-04-22 21:37:04.403 +0100|139810.08446125|0.116119384765625|0.2925872802734375|-0.4311065673828125|139810.07947125|0.09917863093480664|-0.1518549252424699|-0.596694017805882|-0.9649269580841064|0.4635271430015564|-0.5838285088539124|0.2391909062862396|-0.2609456181526184|0.3867252469062805|XArbitraryZVertical|-0.2891395196301599|-0.08694278255828135|0.06951202534186375|0.9507930821429437|-0.1251318454742432|0.56191086769104|-0.8176785707473755|0|0|0|-1|-1|3
2021-04-22 21:37:04.423 +0100|139810.10442125|0.0745086669921875|0.3060760498046875|-0.4542694091796875|139810.09943125|0.08159617905915477|-0.1518767551393253|-0.6135901014987575|-0.9382323026657104|0.5275499224662781|-0.59348464012146|0.2360150516033173|-0.2801511883735657|0.3795560598373413|XArbitraryZVertical|-0.2979341095005796|-0.08454509764321005|0.06166288611750602|0.9488336079704288|-0.123695507645607|0.5758063793182373|-0.8081747889518738|0|0|0|-1|-1|3
2021-04-22 21:37:04.443 +0100|139810.12438125|0.0112457275390625|0.35443115234375|-0.501190185546875|139810.11939125|0.06344425203783564|-0.1519093343715386|-0.6300210739997095|-0.9328809380531311|0.5264458656311035|-0.6217963695526123|0.1780134290456772|-0.2780036926269531|0.3397110104560852|XArbitraryZVertical|-0.3064894806046535|-0.08190983153836859|0.0535674930973385|0.9468291968240503|-0.1222734972834587|0.5891618132591248|-0.7987099289894104|0|0|0|-1|-1|3
2021-04-22 21:37:04.463 +0100|139810.14434125|-0.01470947265625|0.4037322998046875|-0.611785888671875|139810.13935125|0.04490995396672766|-0.1542766174530521|-0.646884335222116|-0.9941796660423279|0.2953128218650818|-0.5741548538208008|0.1236110329627991|-0.2320510149002075|0.2646850347518921|XArbitraryZVertical|-0.315166517399399|-0.08016260980097289|0.04571206700419126|0.9445393340772723|-0.1226196512579918|0.6027031540870667|-0.7884880304336548|0|0|0|-1|-1|3
2021-04-22 21:37:04.483 +0100|139810.16430025|-0.1168365478515625|0.3950042724609375|-0.886444091796875|139810.15931025|0.02958534147218092|-0.1622540055493516|-0.6644865152398646|-0.8854573965072632|-0.1801839172840118|-0.3105708062648773|0.09793581068515778|-0.2170417308807373|0.1068963408470154|XArbitraryZVertical|-0.3239228903269514|-0.08140672205853089|0.04036602489200775|0.9417099999732587|-0.1271720826625824|0.6166549921035767|-0.7768937945365906|0|0|0|-1|-1|3
2021-04-22 21:37:04.503 +0100|139810.18426025|-0.3190460205078125|0.4593505859375|-1.1053466796875|139810.17927025|0.02290442641638543|-0.1744193439780618|-0.6809941828579509|-0.878612756729126|-0.5828866958618164|0.05829331651329994|-0.0259537398815155|-0.2220332026481628|-0.1861647367477417|XArbitraryZVertical|-0.3317244842699751|-0.08590321569496719|0.03983881040671782|0.9386120535136093|-0.1348285675048828|0.6295657753944397|-0.765159010887146|0|0|0|-1|-1|3
2021-04-22 21:37:04.523 +0100|139810.20422025|-0.39117431640625|0.5168304443359375|-1.052978515625|139810.19923025|0.02273773633844644|-0.1873984625478635|-0.7030249833833795|-1.315520286560059|-0.6363329291343689|0.2788166403770447|-0.2173989117145538|-0.1714756488800049|-0.3573535680770874|XArbitraryZVertical|-0.3417870360613399|-0.09173271203684738|0.04283972457419234|0.9343080566742257|-0.1421290934085846|0.6465283632278442|-0.749533474445343|0|0|0|-1|-1|3
2021-04-22 21:37:04.543 +0100|139810.22418025|-0.2421112060546875|0.6492156982421875|-0.9496002197265625|139810.21919025|0.02395613697717597|-0.198853962526798|-0.7321516500588469|-1.491573095321655|-0.6331115961074829|0.3737151026725769|-0.2222948968410492|-0.1294691562652588|-0.3055703639984131|XArbitraryZVertical|-0.3550503987756783|-0.09694563690318225|0.04665799950533397|0.9286355795701083|-0.1469224542379379|0.6684714555740356|-0.7290815114974976|0|0|0|-1|-1|3
2021-04-22 21:37:04.563 +0100|139810.24414025|-0.151763916015625|0.72186279296875|-0.8177032470703125|139810.23915025|0.02474943791715378|-0.212959738316032|-0.7634615498484004|-1.530738353729248|-0.8191380500793457|0.3214458525180817|-0.05427877604961395|-0.01927590370178223|-0.2055088877677917|XArbitraryZVertical|-0.3691685015569315|-0.1032050938670559|0.05100736357010239|0.9222048011734008|-0.1526918411254883|0.6914263963699341|-0.7061266303062439|0|0|0|-1|-1|3
2021-04-22 21:37:04.583 +0100|139810.26410025|-0.209197998046875|0.7722930908203125|-0.746734619140625|139810.25911025|0.02290201207809183|-0.2317186027054972|-0.7940538111149757|-1.434994101524353|-0.9159107208251953|0.2188828140497208|0.006129264831542969|0.031108558177948|-0.1030519008636475|XArbitraryZVertical|-0.3828398674912651|-0.110999332117075|0.05518640960857188|0.9154602669736449|-0.160975843667984|0.7132006883621216|-0.6822255849838257|0|0|0|-1|-1|3
2021-04-22 21:37:04.603 +0100|139810.28406025|-0.2999267578125|0.778564453125|-0.747100830078125|139810.27907025|0.01862896918110482|-0.2531275706252103|-0.8196341134867965|-1.176720261573792|-0.9005281329154968|0.10134606808424|-0.06475460529327393|0.04768431186676025|-0.09240186214447021|XArbitraryZVertical|-0.3941590426270338|-0.1194503463373029|0.05876627449052206|0.9093497599267292|-0.1709177643060684|0.7308961749076843|-0.6607405543327332|0|0|0|-1|-1|3
2021-04-22 21:37:04.623 +0100|139810.30401925|-0.319366455078125|0.725830078125|-0.77752685546875|139810.29902925|0.01062923640480081|-0.2761434485379881|-0.8418635978655127|-1.138321995735168|-0.8196631073951721|-0.03180027008056641|-0.1288524121046066|0.01743596792221069|-0.1086715459823608|XArbitraryZVertical|-0.4040490199145344|-0.1277683632228409|0.06104223378404063|0.9037111091563653|-0.181603267788887|0.7458857297897339|-0.6408392786979675|0|0|0|-1|-1|3
2021-04-22 21:37:04.642 +0100|139810.32397925|-0.27899169921875|0.7345123291015625|-0.7950286865234375|139810.31898925|-0.00143143122029909|-0.3015159293973171|-0.8642376697796642|-1.283174157142639|-0.8117479681968689|-0.1192019283771515|-0.1235020756721497|-0.04812121391296387|-0.1795815825462341|XArbitraryZVertical|-0.4141430533098925|-0.1360859672520694|0.06225530325421885|0.8978255367311525|-0.1927977055311203|0.7606005668640137|-0.6199322938919067|0|0|0|-1|-1|3
2021-04-22 21:37:04.663 +0100|139810.34393925|-0.2258148193359375|0.8287200927734375|-0.729888916015625|139810.33894925|-0.0197208299289376|-0.3328989144617112|-0.8929823921984917|-1.844633817672729|-0.9009079933166504|-0.1112717464566231|-0.0503409206867218|-0.02747988700866699|-0.1944140195846558|XArbitraryZVertical|-0.4272882614326248|-0.1452336247158735|0.062767785945733|0.8901642344227214|-0.2049236744642258|0.7789454460144043|-0.5926638841629028|0|0|0|-1|-1|3
2021-04-22 21:37:04.682 +0100|139810.36389925|-0.2552337646484375|0.8466796875|-0.7303619384765625|139810.35890925|-0.04751025440236074|-0.3731583117466279|-0.9302831668080432|-2.169010400772095|-0.9327234625816345|-0.1837319135665894|-0.00728115439414978|0.05294781923294067|-0.1698676943778992|XArbitraryZVertical|-0.4445781197194233|-0.1552745524504235|0.06232081153760322|0.8799752940358384|-0.217862606048584|0.8017892241477966|-0.5564802289009094|0|0|0|-1|-1|3
2021-04-22 21:37:04.702 +0100|139810.38385925|-0.304534912109375|0.8189544677734375|-0.6502838134765625|139810.37886925|-0.07966472334515694|-0.4174468769856374|-0.9670736689996068|-1.944326400756836|-0.8770349025726318|-0.1180950254201889|-0.04079993069171906|0.004027962684631348|-0.2112176418304443|XArbitraryZVertical|-0.4617677547818972|-0.1651982954234566|0.06176751518375959|0.8692899682636511|-0.2301659435033798|0.8232279419898987|-0.5189601182937622|0|0|0|-1|-1|3
2021-04-22 21:37:04.722 +0100|139810.40381925|-0.311004638671875|0.83294677734375|-0.513397216796875|139810.39882925|-0.1099689825272174|-0.4590424360617541|-0.9978982802213784|-1.480020761489868|-0.7635326981544495|-0.1042920500040054|-0.06869830191135406|-0.01454257965087891|-0.1286545097827911|XArbitraryZVertical|-0.4762292503855537|-0.1738651920257471|0.06170903788998282|0.8597492226803066|-0.2401856333017349|0.8403335809707642|-0.4859531819820404|0|0|0|-1|-1|3
2021-04-22 21:37:04.743 +0100|139810.42377925|-0.2995758056640625|0.8653717041015625|-0.4989166259765625|139810.41878925|-0.1334328590289981|-0.4928270689845712|-1.018168161825627|-0.9778293371200562|-0.6228215098381042|-0.04244741052389145|-0.06112681329250336|-0.009625077247619629|-0.03241264820098877|XArbitraryZVertical|-0.485803851177084|-0.1810108991104892|0.06216565610294643|0.8528571217163534|-0.2483522444963455|0.8511478900909424|-0.4624593555927277|0|0|0|-1|-1|3
2021-04-22 21:37:04.762 +0100|139810.44373925|-0.2629241943359375|0.7340087890625|-0.5019073486328125|139810.43874925|-0.1482621292152724|-0.5162871883722969|-1.033849179173912|-0.752255916595459|-0.4461565017700195|0.1163919493556023|-0.0405028760433197|-0.005101919174194336|-0.05776476860046387|XArbitraryZVertical|-0.4929580703327794|-0.1859318159787799|0.06356518345506997|0.8475737934278222|-0.2525119185447693|0.8592742681503296|-0.4448434114456177|0|0|0|-1|-1|3
2021-04-22 21:37:04.782 +0100|139810.46369825|-0.167388916015625|0.576873779296875|-0.5464935302734375|139810.45870825|-0.1549301326798374|-0.5282839727040133|-1.046365224219324|-0.5739086866378784|-0.1870850771665573|0.2445407807826996|0.000435948371887207|-0.1783067584037781|-0.0796094536781311|XArbitraryZVertical|-0.4983657771369938|-0.1881540840044401|0.06534447990136261|0.843777118562138|-0.2523893117904663|0.8656089305877686|-0.4324591755867004|0|0|0|-1|-1|3
2021-04-22 21:37:04.803 +0100|139810.48365825|-0.0742645263671875|0.381195068359375|-0.565765380859375|139810.47866825|-0.1534784391627953|-0.5294062405429204|-1.056795251034822|-0.3182103335857391|-0.08892340958118439|0.3827592730522156|0.110651507973671|-0.3505659103393555|-0.1417095959186554|XArbitraryZVertical|-0.5024801995493954|-0.1879726803117539|0.06760676801220102|0.8411951784194729|-0.2483012974262238|0.8707842826843262|-0.4243598282337189|0|0|0|-1|-1|3
2021-04-22 21:37:04.822 +0100|139810.50361825|-0.089447021484375|0.3958740234375|-0.5144805908203125|139810.49862825|-0.1456014535865727|-0.5231786486334637|-1.07090845570147|-0.8257526159286499|0.05533454567193985|0.6684529185295105|0.170168325304985|-0.512782871723175|-0.1427872180938721|XArbitraryZVertical|-0.5077461294641502|-0.1859803896365787|0.07117669799504464|0.8381761321162192|-0.2394892573356628|0.8776363134384155|-0.4152103364467621|0|0|0|-1|-1|3
2021-04-22 21:37:04.842 +0100|139810.52357825|-0.0480194091796875|0.71533203125|-0.3017578125|139810.51858825|-0.1460275016344784|-0.5192699914507193|-1.103128730227742|-2.077568769454956|0.3645218312740326|0.9102897644042969|0.1388258934020996|-0.4501929879188538|-0.06285643577575684|XArbitraryZVertical|-0.5210583226587107|-0.1811284817944268|0.07412344783199924|0.8307807426359954|-0.223710834980011|0.892622172832489|-0.3913813829421997|0|0|0|-1|-1|3
2021-04-22 21:37:04.862 +0100|139810.54353825|0.00994873046875|1.020309448242188|-0.3169097900390625|139810.53854825|-0.1604479426495776|-0.522798788659697|-1.157022829588055|-2.367667675018311|0.5415677428245544|1.192002892494202|0.1698557734489441|-0.09183347225189209|0.06119203567504883|XArbitraryZVertical|-0.5438450857262498|-0.1733547568762703|0.07603248345687304|0.817557226872234|-0.2007550895214081|0.915610134601593|-0.3483613133430481|0|0|0|-1|-1|3
2021-04-22 21:37:04.882 +0100|139810.56349825|0.062286376953125|1.04998779296875|-0.3380279541015625|139810.55850825|-0.1476939282403948|-0.5010387535690218|-1.198625744143811|-0.9612687826156616|0.3933781981468201|1.315793633460999|0.1976332813501358|0.1360108852386475|-0.03083443641662598|XArbitraryZVertical|-0.5600803805310905|-0.1638265617975665|0.0804370602768525|0.8080847063704802|-0.1746690422296524|0.9315402507781982|-0.3189416527748108|0|0|0|-1|-1|3
2021-04-22 21:37:04.902 +0100|139810.58345825|-0.012603759765625|0.8769989013671875|-0.32293701171875|139810.57846825|-0.09028178344648066|-0.4408942633900766|-1.222299596477187|-0.5341735482215881|0.2559508979320526|1.569200992584229|0.2025672495365143|0.08838790655136108|-0.04944562911987305|XArbitraryZVertical|-0.5674339435956728|-0.153635659297082|0.08928172364416488|0.8040172926495541|-0.1457284986972809|0.9398871064186096|-0.3088296055793762|0|0|0|-1|-1|3
2021-04-22 21:37:04.922 +0100|139810.60341725|-0.07476806640625|0.7677001953125|-0.0727996826171875|139810.59842725|-0.03212247000247397|-0.3793471159693363|-1.259798509335615|-2.256425857543945|0.4986772835254669|1.559850215911865|0.0729292556643486|-0.1090412139892578|0.06440645456314087|XArbitraryZVertical|-0.5808711202973149|-0.1430446424424667|0.09830103343469765|0.7952760934133651|-0.1133195087313652|0.9520286917686462|-0.2842539548873901|0|0|0|-1|-1|3
2021-04-22 21:37:04.942 +0100|139810.62337725|0.032196044921875|0.953857421875|0.0518646240234375|139810.61838725|-0.008100671821076676|-0.3455941835650337|-1.31956329105225|-3.267041444778442|0.5874388813972473|1.211355924606323|0.02435386180877686|-0.2023404240608215|0.171447291970253|XArbitraryZVertical|-0.6043613127983936|-0.1334062573666554|0.1022351398458648|0.778780005119953|-0.08421432226896286|0.9686066508293152|-0.2339003533124924|0|0|0|-1|-1|3
2021-04-22 21:37:04.962 +0100|139810.64333725|0.0756988525390625|1.5814208984375|0.030609130859375|139810.63834725|-0.01212637040939576|-0.3359926285563739|-1.386226501765066|-2.75251579284668|0.7535542249679565|1.005492687225342|0.1227190643548965|0.04106336832046509|0.1846467256546021|XArbitraryZVertical|-0.6307080950758429|-0.1248040732459104|0.1022339657195197|0.7590649824060398|-0.06050922349095345|0.9830152988433838|-0.1732624769210815|0|0|0|-1|-1|3
2021-04-22 21:37:04.982 +0100|139810.66329725|-0.0623016357421875|1.616409301757812|0.1475677490234375|139810.65830725|0.0165738831805987|-0.2936464884721339|-1.429113716394006|-0.7260488271713257|0.6561411619186401|0.6379755139350891|0.08693838119506836|0.7631484866142273|0.2700997591018677|XArbitraryZVertical|-0.6472942084373616|-0.1158778112448038|0.1020544596563889|0.7464365434353621|-0.04087234288454056|0.9899798035621643|-0.1351650804281235|0|0|0|-1|-1|3
2021-04-22 21:37:05.002 +0100|139810.68325725|-0.1693115234375|1.227218627929688|0.1566009521484375|139810.67826725|0.08642118930826036|-0.2090952956247783|-1.439232934288381|-0.6402037143707275|0.9442601203918457|0.4768440425395966|-0.05899704620242119|0.5149592757225037|0.3296986222267151|XArbitraryZVertical|-0.6514953193417951|-0.106725136380303|0.1010266644914571|0.7442830478448791|-0.02723062224686146|0.9913580417633057|-0.1283271908760071|0|0|0|-1|-1|3
2021-04-22 21:37:05.022 +0100|139810.70321725|-0.206451416015625|0.949005126953125|0.1970367431640625|139810.69822725|0.1247466556473263|-0.1514160040018127|-1.453519109009275|-0.465479701757431|1.020430088043213|0.3781179189682007|-0.1730702519416809|0.09186089038848877|0.2134207338094711|XArbitraryZVertical|-0.6577356797076661|-0.09771336273899232|0.09660819924472396|0.7406098769096644|-0.01764964312314987|0.9931309223175049|-0.1156717464327812|0|0|0|-1|-1|3
2021-04-22 21:37:05.042 +0100|139810.72317725|-0.1373138427734375|1.180435180664062|0.2298126220703125|139810.71818725|0.1746423254177122|-0.07988599380680621|-1.461858677269015|-0.1717987954616547|1.167495131492615|0.2335491925477982|-0.1978821903467178|0.0381394624710083|0.339015781879425|XArbitraryZVertical|-0.6618941871584035|-0.08779006062687562|0.09143653873008183|0.7388021684572679|-0.008676347322762012|0.9940721392631531|-0.1083779782056808|0|0|0|-1|-1|3
2021-04-22 21:37:05.061 +0100|139810.74313725|-0.0806884765625|1.023345947265625|0.150665283203125|139810.73814725|0.2062281661585554|-0.0258378309511967|-1.458971968135437|0.503713071346283|1.0419921875|0.1415090262889862|-0.1036999672651291|0.1659903526306152|0.3116912841796875|XArbitraryZVertical|-0.6618991997334286|-0.07817635582318834|0.08529497301328735|0.7406098006045108|-0.002883001929149032|0.9937541484832764|-0.111555814743042|0|0|0|-1|-1|3
2021-04-22 21:37:05.081 +0100|139810.76309625|-0.1379241943359375|0.8593597412109375|0.1417236328125|139810.75810625|0.2295305372834152|0.01713111432273081|-1.44797037992603|0.5092083811759949|0.9992067217826843|0.1072486937046051|-0.09580332785844803|0.003947973251342773|0.3034396171569824|XArbitraryZVertical|-0.6587287585161589|-0.06947332665716399|0.08015092476219557|0.7448662717803418|0.002098762663081288|0.9924663901329041|-0.1224997565150261|0|0|0|-1|-1|3
2021-04-22 21:37:05.102 +0100|139810.7830575|-0.1215972900390625|0.7322235107421875|0.1281280517578125|139810.7780675|0.2410451199356074|0.04939242342682244|-1.439355577183003|0.322439581155777|1.073101401329041|0.07731911540031433|-0.1512924432754517|-0.1866405606269836|0.2442013025283813|XArbitraryZVertical|-0.656393794675344|-0.06078967035735641|0.07422970505681634|0.7482926435955652|0.006470909342169762|0.9913740754127502|-0.1309036016464233|0|0|0|-1|-1|3
2021-04-22 21:37:05.121 +0100|139810.8030175|-0.0643463134765625|0.78387451171875|0.1063690185546875|139810.7980275|0.2482353797014155|0.07813711154070317|-1.43648712018232|0.04227137565612793|1.078527212142944|0.02307824790477753|-0.117355965077877|-0.2448389530181885|0.2712716460227966|XArbitraryZVertical|-0.6561428444329322|-0.05222191429896156|0.06763977272125389|0.7497830086747668|0.01045249775052071|0.9909940958023071|-0.133498877286911|0|0|0|-1|-1|3
2021-04-22 21:37:05.142 +0100|139810.8229775|-0.066864013671875|0.7899169921875|0.1231231689453125|139810.8179875|0.2439133066373661|0.09396518542037589|-1.434807719039537|0.1385065615177155|0.9329388737678528|-0.07037464529275894|-0.06821691244840622|-0.2036885619163513|0.2445938438177109|XArbitraryZVertical|-0.6561320792631719|-0.04476475016570379|0.06092028943033825|0.7508500636094326|0.01272028125822544|0.990767776966095|-0.1349736303091049|0|0|0|-1|-1|3
2021-04-22 21:37:05.162 +0100|139810.8429375|-0.0630645751953125|0.8787689208984375|0.0726318359375|139810.8379475|0.2272569454402457|0.09529078268573093|-1.428964684198638|0.427813321352005|0.8552724123001099|-0.1090793386101723|-0.08599045127630234|-0.1946244835853577|0.2420210093259811|XArbitraryZVertical|-0.6543411997442228|-0.03846056285546664|0.05455138643400392|0.7532481437283026|0.01344974432140589|0.9899587631225586|-0.1407167613506317|0|0|0|-1|-1|3
2021-04-22 21:37:05.181 +0100|139810.8628975|-0.0364837646484375|1.004653930664062|0.06610107421875|139810.8579075|0.193436417328324|0.07895856155961968|-1.418828874465686|0.6365896463394165|0.8759089708328247|-0.3359337747097015|-0.069405697286129|-0.07493114471435547|0.233875572681427|XArbitraryZVertical|-0.6507316465281147|-0.03304705438366651|0.0476233014476505|0.7570920652271736|0.01194065343588591|0.9884751439094543|-0.1509124338626862|0|0|0|-1|-1|3
2021-04-22 21:37:05.201 +0100|139810.8828575|-0.0761871337890625|1.076797485351562|-0.153167724609375|139810.8778675|0.1277338508883736|0.03113358866512656|-1.407034754039127|0.5785541534423828|0.8651190400123596|-0.622562050819397|-0.04271884635090828|0.04765063524246216|0.1727653592824936|XArbitraryZVertical|-0.6462639301199643|-0.02943648361980493|0.03861480025998923|0.7615678360439837|0.00507494667544961|0.9866210222244263|-0.1629528552293777|0|0|0|-1|-1|3
2021-04-22 21:37:05.221 +0100|139810.9028165|-0.11273193359375|1.065658569335938|-0.0925140380859375|139810.8978265|0.04235250846661553|-0.0343629635337705|-1.401782367588018|-0.1448696106672287|0.9687376022338867|-0.7594736218452454|-0.07747332751750946|0.08414971828460693|0.05916553735733032|XArbitraryZVertical|-0.644380829924339|-0.02678113701048777|0.02725798970458409|0.7637495273187676|-0.005779109429568052|0.9857510924339294|-0.1681122332811356|0|0|0|-1|-1|3
2021-04-22 21:37:05.242 +0100|139810.9227765|-0.1073150634765625|1.27191162109375|-0.11328125|139810.9177865|-0.05602196218653818|-0.1115573741613406|-1.412095115263446|-0.7320585250854492|0.9820420145988464|-0.7917931079864502|-0.1130068227648735|0.1580137014389038|0.02309894561767578|XArbitraryZVertical|-0.6487557355193883|-0.02426140262221607|0.01487941199832079|0.7604644756733802|-0.01759366132318974|0.9874333739280701|-0.1570547670125961|0|0|0|-1|-1|3
2021-04-22 21:37:05.261 +0100|139810.9427365|-0.0600738525390625|1.0911865234375|0.00262451171875|139810.9377465|-0.1656451665159192|-0.2026625810607098|-1.421181168361846|-0.4209694266319275|0.7480398416519165|-0.6823800206184387|-0.05233488604426384|0.2713187336921692|0.02172543108463287|XArbitraryZVertical|-0.6530542686828275|-0.02272747316042999|0.003373090157355772|0.7569625056442492|-0.03000206872820854|0.9888285398483276|-0.146007165312767|0|0|0|-1|-1|3
2021-04-22 21:37:05.281 +0100|139810.9626965|-0.0920562744140625|0.8553924560546875|-0.0955352783203125|139810.9577065|-0.2547300017265209|-0.2778368621550205|-1.42412403777085|-0.2093785852193832|0.5858119130134583|-0.542688250541687|-0.03419534862041473|0.01296514272689819|0.13433438539505|XArbitraryZVertical|-0.6551745997641913|-0.02178116547045028|-0.00548645108919909|0.7551436611199501|-0.04008498415350914|0.9892628788948059|-0.1405436545610428|0|0|0|-1|-1|3
2021-04-22 21:37:05.301 +0100|139810.9826565|0.0175933837890625|0.906524658203125|-0.2961578369140625|139810.9776665|-0.3399258309679929|-0.3506915071532527|-1.427918200633355|-0.4286810457706451|0.5216968655586243|-0.5574975609779358|-0.02392735704779625|-0.1190825700759888|-0.002899989485740662|XArbitraryZVertical|-0.6578000794001622|-0.02088070097962702|-0.01328767434557699|0.7527858506887933|-0.04891866073012352|0.9898102879524231|-0.133726105093956|0|0|0|-1|-1|3
2021-04-22 21:37:05.321 +0100|139811.0026165|-0.001861572265625|1.111709594726562|-0.4327850341796875|139810.9976265|-0.4291678158905239|-0.4303403340273472|-1.431389108040397|-0.1857492029666901|0.3572840690612793|-0.4723589420318604|0.08635100722312927|-0.03047472238540649|-0.236336350440979|XArbitraryZVertical|-0.6606193751271593|-0.02093275922602157|-0.02010567805279158|0.7501598596150955|-0.05797023326158524|0.9902985692024231|-0.1262877285480499|0|0|0|-1|-1|3
2021-04-22 21:37:05.341 +0100|139811.0225765|-0.0485382080078125|0.8939056396484375|-0.3095855712890625|139811.0175865|-0.4965215748756183|-0.4907842965321979|-1.425965745961274|0.1012737452983856|0.2770463228225708|-0.626082181930542|0.04514982551336288|0.1277031302452087|-0.2744574546813965|XArbitraryZVertical|-0.6601978841786751|-0.02221929994600057|-0.02626552631502957|0.7503035062781197|-0.06802332401275635|0.9895303845405579|-0.1272901147603989|0|0|0|-1|-1|3
2021-04-22 21:37:05.361 +0100|139811.0425365|-0.028350830078125|0.8476104736328125|-0.265289306640625|139811.0375465|-0.5790002813472251|-0.568833385068039|-1.422289618428502|-0.5277591943740845|0.04772003367543221|-0.5755088329315186|0.03857669234275818|-0.1796820163726807|-0.1485602855682373|XArbitraryZVertical|-0.6610967877146221|-0.02489564672788115|-0.03206488331253652|0.7492017058237264|-0.07969970256090164|0.9889931082725525|-0.1246624886989594|0|0|0|-1|-1|3
2021-04-22 21:37:05.381 +0100|139811.0624955|-0.0284423828125|1.136993408203125|-0.39447021484375|139811.0575055|-0.7005731102715494|-0.690471434182538|-1.429667469895274|-0.8646007776260376|-0.2027420699596405|-0.4229842722415924|0.06209047138690948|-0.06259799003601074|-0.1837470531463623|XArbitraryZVertical|-0.6670630825423954|-0.02838409604965753|-0.03550924949110023|0.743613057725149|-0.08958739042282104|0.9900578260421753|-0.1084423735737801|0|0|0|-1|-1|3
2021-04-22 21:37:05.401 +0100|139811.0824555|-0.06353759765625|1.130538940429688|-0.428192138671875|139811.0774655|-0.7979469263728072|-0.793259256578251|-1.433963916189005|-0.4159892201423645|-0.3745101988315582|-0.2821806669235229|0.06116793304681778|0.180825412273407|-0.3010646104812622|XArbitraryZVertical|-0.6716193518264729|-0.03287536541628443|-0.03618228728109742|0.739281895445817|-0.09720977395772934|0.9906530380249023|-0.09569331258535385|0|0|0|-1|-1|3
2021-04-22 21:37:05.421 +0100|139811.1024155|-0.0343170166015625|1.022628784179688|-0.37567138671875|139811.0974255|-0.8615482800836308|-0.8647125531787362|-1.435784944442163|-0.4422951340675354|-0.4625206589698792|-0.1537259072065353|0.03862370550632477|0.09766250848770142|-0.3564923405647278|XArbitraryZVertical|-0.6744884532461448|-0.03736123183806334|-0.03512885346004121|0.7365023884997802|-0.1024212837219238|0.9908998012542725|-0.08733893185853958|0|0|0|-1|-1|3
2021-04-22 21:37:05.441 +0100|139811.1223755|-0.0268402099609375|0.9798126220703125|-0.399261474609375|139811.1173855|-0.9377989293358103|-0.9503200747594117|-1.441779924857209|-0.6398261785507202|-0.5759918093681335|0.008209731429815292|0.07829512655735016|0.01987749338150024|-0.3130713105201721|XArbitraryZVertical|-0.6788874964151227|-0.04133745473372048|-0.032502148421296|0.7323570100819486|-0.1046781539916992|0.9916889071464539|-0.07480596750974655|0|0|0|-1|-1|3
2021-04-22 21:37:05.461 +0100|139811.1423355|-0.071746826171875|0.9670867919921875|-0.27197265625|139811.1373455|-1.019438250961036|-1.04378416809156|-1.449994664462901|-0.7093316316604614|-0.6317158341407776|0.130600705742836|0.06655924767255783|-0.02478623390197754|-0.2952082753181458|XArbitraryZVertical|-0.6838493883508091|-0.04522010815866083|-0.02803676961370562|0.7276806973428265|-0.104157455265522|0.9927123188972473|-0.06061031296849251|0|0|0|-1|-1|3
2021-04-22 21:37:05.481 +0100|139811.1622955|-0.1103973388671875|1.051925659179688|-0.354461669921875|139811.1573055|-1.113935769482596|-1.149661355161395|-1.45913974034333|-0.5058876276016235|-0.5882930159568787|0.1600213646888733|0.02214477956295013|-0.01473844051361084|-0.2419853210449219|XArbitraryZVertical|-0.6891223123075707|-0.04832542578318371|-0.02310432465187778|0.7226626622096759|-0.101689375936985|0.9937728643417358|-0.04555018246173859|0|0|0|-1|-1|3
2021-04-22 21:37:05.501 +0100|139811.1822555|-0.1675262451171875|1.186599731445312|-0.31787109375|139811.1772655|-1.137635667233267|-1.184589382283316|-1.463959063507619|0.09711768478155136|-0.5212125778198242|0.1759392619132996|-0.02126026153564453|0.1069438457489014|-0.3025288581848145|XArbitraryZVertical|-0.6908649184493881|-0.05120624976938253|-0.01805538123884649|0.720942253790691|-0.09878115355968475|0.9942983388900757|-0.04016716778278351|0|0|0|-1|-1|3
2021-04-22 21:37:05.521 +0100|139811.2022155|-0.196868896484375|1.136474609375|-0.2835235595703125|139811.1972255|-1.053916944772057|-1.110545585269217|-1.463830420225687|0.5923834443092346|-0.395811915397644|0.1877161115407944|-0.08179134130477905|0.1881190538406372|-0.2722033858299255|XArbitraryZVertical|-0.6880706133580787|-0.05336811831281393|-0.01338824402531957|0.7235548150727831|-0.09565363079309464|0.9942846298217773|-0.04742135107517242|0|0|0|-1|-1|3
2021-04-22 21:37:05.541 +0100|139811.2221745|-0.1790618896484375|1.0528564453125|-0.155487060546875|139811.2171845|-0.9549082595336374|-1.018527055313819|-1.462166148466914|0.4443285167217255|-0.2419198304414749|0.1522131562232971|-0.1084913909435272|0.1153610944747925|-0.1966457962989807|XArbitraryZVertical|-0.6845385422843521|-0.05447964245489253|-0.009568289721986794|0.7268751389477467|-0.09229952096939087|0.9941055178642273|-0.05687790364027023|0|0|0|-1|-1|3
2021-04-22 21:37:05.561 +0100|139811.2421345|-0.1318817138671875|1.085845947265625|-0.0770416259765625|139811.2371445|-0.890463316994128|-0.9581310176139115|-1.459521859444191|0.3639250993728638|-0.1492825597524643|0.01549978088587523|-0.07165732979774475|0.06653332710266113|-0.0579981803894043|XArbitraryZVertical|-0.6819212886545903|-0.055269073859159|-0.007503984835657265|0.7292959429790152|-0.09084928035736084|0.9938153624534607|-0.06385736912488937|0|0|0|-1|-1|3
2021-04-22 21:37:05.581 +0100|139811.2620945|-0.1361541748046875|1.107986450195312|-0.0208282470703125|139811.2571045|-0.8293820639962057|-0.9005468237429829|-1.453208372796592|0.5701591968536377|-0.1667107194662094|-0.1051046699285507|-0.03644920885562897|0.1015406847000122|0.01591628789901733|XArbitraryZVertical|-0.6784858885953857|-0.05673445160634284|-0.006510966366990053|0.7323905388310943|-0.09193874895572662|0.9930945038795471|-0.07287620007991791|0|0|0|-1|-1|3
2021-04-22 21:37:05.601 +0100|139811.2820545|-0.168853759765625|1.116836547851562|-0.0797576904296875|139811.2770645|-0.7685670114896068|-0.8435438755314278|-1.443894330633782|0.585515022277832|-0.1615715026855469|-0.1290692090988159|-0.04951648414134979|0.1178435683250427|0.05884290486574173|XArbitraryZVertical|-0.6741453805894304|-0.05880117104179124|-0.005903611375623457|0.7362306773379415|-0.0945422351360321|0.9919587373733521|-0.08414085954427719|0|0|0|-1|-1|3
2021-04-22 21:37:05.621 +0100|139811.3020145|-0.173583984375|1.021453857421875|-0.06732177734375|139811.2970245|-0.723784126291327|-0.8020296562776784|-1.435120927127917|0.4221833050251007|-0.111304983496666|-0.111114889383316|-0.07531147450208664|0.1157419681549072|0.008010998368263245|XArbitraryZVertical|-0.6702941101896958|-0.06071528591207575|-0.0055286705086392|0.7395869495957704|-0.09722013771533966|0.990810215473175|-0.09403891861438751|0|0|0|-1|-1|3
2021-04-22 21:37:05.641 +0100|139811.3219745|-0.1085662841796875|0.92681884765625|-0.0583953857421875|139811.3169845|-0.7047597266477917|-0.7844612431018544|-1.429144116087443|0.1431433111429214|-0.02436875365674496|-0.1327328234910965|-0.06522759795188904|-0.002023100852966309|0.02855849266052246|XArbitraryZVertical|-0.6679768957095479|-0.06201206770243431|-0.005810797973840392|0.7415711349462972|-0.09973567724227905|0.9899840950965881|-0.09992273896932602|0|0|0|-1|-1|3
2021-04-22 21:37:05.660 +0100|139811.3419345|-0.050384521484375|0.903350830078125|-0.027679443359375|139811.3369445|-0.7158043076579833|-0.7957685590603015|-1.426227513677133|0.004363841377198696|-0.03897682949900627|-0.1851339042186737|0.01355075836181641|-0.08418756723403931|0.0517837256193161|XArbitraryZVertical|-0.6675321024375914|-0.06321642005688352|-0.006835908285903156|0.7418612504236519|-0.1029219999909401|0.9895681142807007|-0.1008091494441032|0|0|0|-1|-1|3
2021-04-22 21:37:05.680 +0100|139811.3618945|-0.04412841796875|0.993804931640625|-0.0213775634765625|139811.3569045|-0.7422174829163285|-0.8232072888915106|-1.42389485812583|-0.0247478224337101|-0.06946693360805511|-0.2262090742588043|0.06136544048786163|-0.06590467691421509|0.08694376051425934|XArbitraryZVertical|-0.6678311608481141|-0.0651430124487352|-0.008044616419057798|0.7414130460965068|-0.1073406487703323|0.9892293810844421|-0.09951585531234741|0|0|0|-1|-1|3
2021-04-22 21:37:05.700 +0100|139811.3818535|-0.06317138671875|1.004104614257812|-0.0596466064453125|139811.3768645|-0.7637966551912638|-0.8463338783027099|-1.419648611364987|0.115037739276886|-0.09843871742486954|-0.2259751558303833|0.06493605673313141|0.01957988739013672|0.06440581381320953|XArbitraryZVertical|-0.667486777516729|-0.06757590433498344|-0.009396391243506731|0.7414894848162978|-0.1127575784921646|0.9885989427566528|-0.09978979825973511|0|0|0|-1|-1|3
2021-04-22 21:37:05.720 +0100|139811.4018135|-0.0677490234375|0.9208526611328125|-0.0854644775390625|139811.3968235|-0.7771597776315289|-0.8616113104501656|-1.415136905338717|0.1003463566303253|-0.08578582853078842|-0.155989333987236|0.05274143815040588|-0.007410109043121338|0.03510356694459915|XArbitraryZVertical|-0.6668055700111027|-0.06993318860286991|-0.01041542650130679|0.7418701394285346|-0.1176528185606003|0.9879094958305359|-0.1009593605995178|0|0|0|-1|-1|3
2021-04-22 21:37:05.740 +0100|139811.4217735|-0.0418548583984375|0.896392822265625|-0.0928955078125|139811.4167835|-0.7828347252183221|-0.8691536958537119|-1.41269169648784|0.07539505511522293|-0.1110111847519875|-0.07685118913650513|0.05682377517223358|-0.07662349939346313|0.01386018097400665|XArbitraryZVertical|-0.6663921225905428|-0.07146854440261967|-0.01064131553970912|0.7420919920575864|-0.1202550455927849|0.9875274896621704|-0.1016275733709335|0|0|0|-1|-1|3
2021-04-22 21:37:05.765 +0100|139811.4417335|-0.02947998046875|0.9364471435546875|-0.0716094970703125|139811.4367435|-0.7808032488861643|-0.8700851947287278|-1.413273122716887|0.05466106534004211|-0.1684273928403854|0.01439092867076397|0.08422063291072845|-0.08841824531555176|0.01604872941970825|XArbitraryZVertical|-0.6664786519745542|-0.07234135867650719|-0.009426139351366228|0.7419462349633097|-0.1199114397168159|0.9876188635826111|-0.1011458709836006|0|0|0|-1|-1|3
2021-04-22 21:37:05.781 +0100|139811.4616935|-0.0314178466796875|0.9915924072265625|-0.0306396484375|139811.4567035|-0.7756220767097549|-0.8691093550539626|-1.415400085407183|0.01376013923436403|-0.228881299495697|0.05895688384771347|0.08947522938251495|-0.03789216279983521|0.0297783687710762|XArbitraryZVertical|-0.6668541459035762|-0.07315904370760082|-0.007277025597603179|0.7415527428085468|-0.1182080060243607|0.9879502654075623|-0.09990660846233368|0|0|0|-1|-1|3
2021-04-22 21:37:05.800 +0100|139811.4816535|-0.0474700927734375|1.021087646484375|-0.02874755859375|139811.4766635|-0.7709558149931035|-0.8687410664186116|-1.41821338481217|0.01985187083482742|-0.1989449262619019|0.08309799432754517|0.08119764178991318|0.01180160045623779|0.06565521657466888|XArbitraryZVertical|-0.6674334900074826|-0.07385708364944513|-0.004941133975906537|0.7409814463185638|-0.1160492151975632|0.9883818030357361|-0.09815533459186554|0|0|0|-1|-1|3
2021-04-22 21:37:05.820 +0100|139811.5016135|-0.04193115234375|1.043777465820312|-0.069366455078125|139811.4966235|-0.7552362786340228|-0.8569916687736489|-1.419360750490708|0.103976234793663|-0.2028248906135559|0.08346337825059891|0.06689555197954178|0.03936827182769775|0.0704348087310791|XArbitraryZVertical|-0.6671369460509711|-0.07445575348188523|-0.002740993273388601|0.7411999144943212|-0.1140304356813431|0.9885555505752563|-0.09876926988363266|0|0|0|-1|-1|3
2021-04-22 21:37:05.840 +0100|139811.5215735|-0.054443359375|1.06024169921875|-0.110382080078125|139811.5165835|-0.7372614863100491|-0.8429700717738607|-1.420808637209129|0.02013771235942841|-0.1935338079929352|0.06522774696350098|0.06601771712303162|0.05991816520690918|0.02128230035305023|XArbitraryZVertical|-0.6668496440380876|-0.07488960911423201|-0.0003872140190713401|0.7414196910503402|-0.1115656867623329|0.9887729287147522|-0.09940619766712189|0|0|0|-1|-1|3
2021-04-22 21:37:05.860 +0100|139811.5415335|-0.0897979736328125|1.122909545898438|-0.094390869140625|139811.5365435|-0.7342057303346566|-0.8438752830335587|-1.424516121924533|-0.1686330735683441|-0.1732236295938492|0.07375483214855194|0.05109972506761551|0.08790481090545654|0.001852989196777344|XArbitraryZVertical|-0.6677518119245202|-0.07532160238627689|0.001980321267579148|0.7405609206475758|-0.1089157462120056|0.9893200993537903|-0.09686835110187531|0|0|0|-1|-1|3
2021-04-22 21:37:05.880 +0100|139811.5614925|-0.10748291015625|1.134490966796875|-0.126312255859375|139811.5565025|-0.7414416295827937|-0.8540102718290923|-1.428440277978444|-0.06868118792772293|-0.1236766427755356|0.01067510899156332|0.01081812381744385|0.1358939409255981|-0.02049899101257324|XArbitraryZVertical|-0.6690811079246839|-0.0756722437630257|0.003682257312108426|0.7393178321258331|-0.106964223086834|0.9898844957351685|-0.09320836514234543|0|0|0|-1|-1|3
2021-04-22 21:37:05.900 +0100|139811.5814525|-0.13330078125|1.155715942382812|-0.11822509765625|139811.5764625|-0.7477600054230288|-0.8622706002561604|-1.430222696103645|-0.002853291807696223|-0.08359287679195404|-0.05891976878046989|-0.003595650196075439|0.1501536965370178|-0.03468035906553268|XArbitraryZVertical|-0.6697858637953571|-0.07616031450760541|0.004566800476475797|0.7386242548920846|-0.106390155851841|0.9901357889175415|-0.09117300808429718|0|0|0|-1|-1|3
2021-04-22 21:37:05.920 +0100|139811.6014125|-0.18121337890625|1.192184448242188|-0.1186676025390625|139811.5964225|-0.7445774988208802|-0.8603468039132903|-1.428961935195968|0.1729096174240112|-0.03516803309321404|-0.06619268655776978|-0.04013268649578094|0.1708999872207642|-0.02159202098846436|XArbitraryZVertical|-0.6693286237709444|-0.07683343588571323|0.004776407764915468|0.7389676332621204|-0.1071608737111092|0.9899583458900452|-0.09219163656234741|0|0|0|-1|-1|3
2021-04-22 21:37:05.940 +0100|139811.6213725|-0.1859588623046875|1.116439819335938|-0.168975830078125|139811.6163825|-0.7201147030079643|-0.836051125453512|-1.424689694748742|0.3663713335990906|0.02694082632660866|-0.01084012538194656|-0.07906195521354675|0.198444664478302|-0.03485846519470215|XArbitraryZVertical|-0.667275895267142|-0.07708387050594448|0.004631082904032213|0.7407966056340695|-0.1080265194177628|0.989345371723175|-0.09760191291570663|0|0|0|-1|-1|3
2021-04-22 21:37:05.960 +0100|139811.6413325|-0.177093505859375|1.000656127929688|-0.1632080078125|139811.6363425|-0.681653644485324|-0.7973339939124297|-1.420388754476003|0.345544695854187|0.04589182883501053|0.0870383232831955|-0.07337687909603119|0.1037888526916504|-0.05738037824630737|XArbitraryZVertical|-0.6646780378997655|-0.07656404601202213|0.004957585421014964|0.7431800714310756|-0.1072113513946533|0.9887101054191589|-0.1046821027994156|0|0|0|-1|-1|3
2021-04-22 21:37:05.980 +0100|139811.6612925|-0.1753082275390625|0.970245361328125|-0.163604736328125|139811.6563025|-0.639463714653279|-0.754372705742274|-1.418084284582719|0.2649332284927368|0.06852731108665466|0.2083296924829483|-0.07424439489841461|-0.004475116729736328|-0.06135900318622589|XArbitraryZVertical|-0.662520617363676|-0.07510752768685687|0.005863982316012074|0.7452457141044712|-0.1041771098971367|0.9883621335029602|-0.1108505800366402|0|0|0|-1|-1|3
2021-04-22 21:37:06.000 +0100|139811.6812525|-0.1317901611328125|0.9559173583984375|-0.1515960693359375|139811.6762625|-0.5966441845120888|-0.7103425419315902|-1.418474411558961|0.1823937594890594|0.08690892904996872|0.2849161624908447|-0.06955818831920624|-0.01654314994812012|-0.03466707468032837|XArbitraryZVertical|-0.6612008973972974|-0.07277008324251849|0.00735050221526887|0.746635130689317|-0.09894508123397827|0.9884214401245117|-0.115035779774189|0|0|0|-1|-1|3
2021-04-22 21:37:06.020 +0100|139811.7012125|-0.086669921875|0.8754425048828125|-0.1276397705078125|139811.6962225|-0.5505863142734766|-0.6633983874643377|-1.419194955559009|0.1889335662126541|0.05852969735860825|0.2902942299842834|-0.02489062398672104|-0.04419434070587158|-0.03934818506240845|XArbitraryZVertical|-0.6599721964792082|-0.07029332193664213|0.009205558688132597|0.7479378153959946|-0.09299924224615097|0.9885305166244507|-0.1189910992980003|0|0|0|-1|-1|3
2021-04-22 21:37:06.040 +0100|139811.7211715|-0.0698089599609375|0.79180908203125|-0.067596435546875|139811.7161815|-0.513223751395318|-0.6258673722719059|-1.420433259440408|0.03545885905623436|0.001665455754846334|0.2391515225172043|0.007901892066001892|-0.1431202292442322|0.02048391103744507|XArbitraryZVertical|-0.6592635955258455|-0.06833238170409973|0.01105165565774921|0.7487190188074896|-0.0877515971660614|0.9887167811393738|-0.1214043945074081|0|0|0|-1|-1|3
2021-04-22 21:37:06.060 +0100|139811.7411315|-0.0780029296875|0.8665618896484375|-0.13201904296875|139811.7361415|-0.4920597386097037|-0.6055316630870832|-1.424133005686544|-0.1339576244354248|-0.04143429175019264|0.2384814620018005|0.01228952407836914|-0.1852783560752869|0.04584646224975586|XArbitraryZVertical|-0.6598721251252452|-0.06701483163506808|0.01296328931706576|0.7482712914898797|-0.08318231999874115|0.989264190196991|-0.1201555803418159|0|0|0|-1|-1|3
2021-04-22 21:37:06.079 +0100|139811.7610915|-0.0897369384765625|0.861175537109375|-0.1964111328125|139811.7561015|-0.4768843494055717|-0.5907753083288451|-1.428899772953802|-0.1185605451464653|0.01168831624090672|0.1973990052938461|-0.003945469856262207|-0.1163684129714966|-0.03936105966567993|XArbitraryZVertical|-0.66103247518748|-0.06564949671032706|0.0146374605928022|0.7473367177288408|-0.0787728875875473|0.9899495840072632|-0.1174524202942848|0|0|0|-1|-1|3
2021-04-22 21:37:06.103 +0100|139811.7810515|-0.0622406005859375|0.942626953125|-0.132720947265625|139811.7760615|-0.4766183708414208|-0.5895684790105403|-1.433601013148078|-0.318271279335022|0.07824550569057465|0.1064810827374458|-0.007622264325618744|-0.1264370679855347|-0.05888336151838303|XArbitraryZVertical|-0.6625764966940804|-0.06445022073150891|0.01518734003034397|0.7460616440657791|-0.07604212313890457|0.9906034469604492|-0.1136771067976952|0|0|0|-1|-1|3
2021-04-22 21:37:06.120 +0100|139811.8010115|-0.067474365234375|1.088043212890625|-0.1108551025390625|139811.7960215|-0.4968520921512163|-0.6081984641312792|-1.439827430129464|-0.2568219304084778|0.04653694853186607|0.02971316128969193|0.0181017741560936|0.002247154712677002|-0.01904284209012985|XArbitraryZVertical|-0.6651115583383496|-0.06354729594492176|0.01497711692638446|0.7438844681446972|-0.07462078332901001|0.9914358258247375|-0.1071767136454582|0|0|0|-1|-1|3
2021-04-22 21:37:06.140 +0100|139811.8209715|-0.1038818359375|1.082763671875|-0.082489013671875|139811.8159815|-0.5072016695802368|-0.6180772576218196|-1.44206403105637|-0.04738788679242134|0.002175025641918182|-0.01564331352710724|-2.630054950714111e-05|0.1062209606170654|0.00283735990524292|XArbitraryZVertical|-0.6660868127584357|-0.06336063282471653|0.01483773510094539|0.7430301569840634|-0.07439128309488297|0.9917254447937012|-0.1046275794506073|0|0|0|-1|-1|3
2021-04-22 21:37:06.159 +0100|139811.8409315|-0.1102447509765625|1.082183837890625|-0.109283447265625|139811.8359415|-0.5114930625282255|-0.6221141697931705|-1.441419523329537|0.03194408863782883|0.03177904337644577|-0.05135532841086388|-0.03515089303255081|0.08790189027786255|0.02292303740978241|XArbitraryZVertical|-0.6659864347653808|-0.06355235689376396|0.01446504474570151|0.7431111668858515|-0.07518588751554489|0.9916424751281738|-0.1048463359475136|0|0|0|-1|-1|3
2021-04-22 21:37:06.179 +0100|139811.8608915|-0.101806640625|1.035980224609375|-0.1644287109375|139811.8559015|-0.5105263404451493|-0.6200670052225984|-1.439367363197934|0.134677916765213|0.07238372415304184|-0.05361635237932205|-0.0314529612660408|0.07960832118988037|-0.0255463570356369|XArbitraryZVertical|-0.6653124265294851|-0.06349858101373901|0.01375252802123536|0.7437326190393778|-0.07615247368812561|0.9913756251335144|-0.1066546142101288|0|0|0|-1|-1|3
2021-04-22 21:37:06.199 +0100|139811.8808515|-0.07623291015625|0.9880218505859375|-0.1355133056640625|139811.8758615|-0.5102757281927451|-0.6181968190893237|-1.437807099321819|-0.06543033570051193|0.09059537947177887|-0.02748639322817326|-0.01662623137235641|0.03307646512985229|-0.04674160480499268|XArbitraryZVertical|-0.6648154491336649|-0.06317893457733299|0.01292715549222228|0.7442189496203002|-0.07684957236051559|0.9911699295043945|-0.1080576851963997|0|0|0|-1|-1|3
2021-04-22 21:37:06.219 +0100|139811.9008105|-0.0634307861328125|1.00067138671875|-0.1151275634765625|139811.8958205|-0.5280421060856076|-0.6342442876587039|-1.440588485558146|-0.2937145531177521|0.067068912088871|-0.0008601956069469452|0.003407306969165802|-0.01124906539916992|-0.032600998878479|XArbitraryZVertical|-0.6661629994083488|-0.06270581889521115|0.0121960918602951|0.743065434437329|-0.07693988084793091|0.991534948348999|-0.1045896783471107|0|0|0|-1|-1|3
2021-04-22 21:37:06.240 +0100|139811.9207705|-0.05419921875|1.036178588867188|-0.0858612060546875|139811.9157805|-0.564924495601058|-0.6698033904545521|-1.446581049891902|-0.3615683317184448|0.04295260459184647|0.02265942096710205|0.01400713622570038|0.01507502794265747|-0.0120009183883667|XArbitraryZVertical|-0.6689858205372443|-0.06239861469940734|0.01158495991324807|0.740560857608119|-0.07691959291696548|0.9922952055931091|-0.09712877124547958|0|0|0|-1|-1|3
2021-04-22 21:37:06.259 +0100|139811.9407305|-0.0380859375|1.067092895507812|-0.0952301025390625|139811.9357405|-0.5961609717011005|-0.7001655954279307|-1.451356039571184|-0.2296605855226517|0.01800533384084702|0.01999981142580509|0.02846908569335938|0.06013375520706177|0.008407711982727051|XArbitraryZVertical|-0.6712472242845635|-0.06216857653998241|0.01120950862675043|0.7385369283695732|-0.07677887380123138|0.9928754568099976|-0.09112446755170822|0|0|0|-1|-1|3
2021-04-22 21:37:06.279 +0100|139811.9606905|-0.043121337890625|1.04736328125|-0.12200927734375|139811.9557005|-0.6049067941787203|-0.7087653408418023|-1.452682034713635|-0.08664950728416443|-0.00618101516738534|0.0394633449614048|0.04128558933734894|0.06832301616668701|-0.01156716048717499|XArbitraryZVertical|-0.6718709875244405|-0.06212333733672219|0.01115476001465431|0.737974022834162|-0.07670170068740845|0.9930326342582703|-0.08946013450622559|0|0|0|-1|-1|3
2021-04-22 21:37:06.299 +0100|139811.9806505|-0.0437469482421875|1.028610229492188|-0.1437530517578125|139811.9756605|-0.6033861398247048|-0.7072539633061558|-1.453945063703137|-0.0697309747338295|0.002122561912983656|0.06047204881906509|0.03293497115373611|0.05157345533370972|-0.03648298233747482|XArbitraryZVertical|-0.6722117533734632|-0.06180622086317942|0.01148112038461634|0.7376852915442246|-0.07575159519910812|0.9931806325912476|-0.08862269669771194|0|0|0|-1|-1|3
2021-04-22 21:37:06.319 +0100|139812.0006105|-0.052642822265625|1.015975952148438|-0.1466217041015625|139811.9956205|-0.5965268224657909|-0.7004824691925056|-1.455844247401752|-0.06265973299741745|-0.00976983830332756|0.09387101978063583|0.03000392019748688|0.03768205642700195|-0.05586135387420654|XArbitraryZVertical|-0.6726121889206921|-0.06121080753822971|0.01214242169295042|0.7373593605414981|-0.07393444329500198|0.9934002757072449|-0.08769216388463974|0|0|0|-1|-1|3
2021-04-22 21:37:06.339 +0100|139812.0205705|-0.0677490234375|0.9763641357421875|-0.116180419921875|139812.0155805|-0.5878649267155035|-0.6920699767430096|-1.458481688255655|-0.06975286453962326|-0.01642646268010139|0.1073167845606804|0.01387318223714828|0.01533395051956177|-0.05243902653455734|XArbitraryZVertical|-0.6731992494603924|-0.06046809220188716|0.01306653522777234|0.7368688559848927|-0.0715213418006897|0.993699312210083|-0.08629275858402252|0|0|0|-1|-1|3
2021-04-22 21:37:06.359 +0100|139812.0405305|-0.0706329345703125|0.9727020263671875|-0.077484130859375|139812.0355405|-0.5744556914621863|-0.6791153657874827|-1.46147736702706|-0.06344586610794067|-0.02546155452728271|0.120390772819519|-0.001251056790351868|-0.02170991897583008|-0.01872545480728149|XArbitraryZVertical|-0.6737960878581307|-0.05958957517567585|0.01427166866858381|0.7363724451803764|-0.06852785497903824|0.9940306544303894|-0.08489582687616348|0|0|0|-1|-1|3
2021-04-22 21:37:06.379 +0100|139812.0604905|-0.05804443359375|0.925201416015625|-0.068817138671875|139812.0555005|-0.5545192860536636|-0.6598659966158033|-1.463622334996427|-0.04247014224529266|-0.03708470985293388|0.1111563593149185|-0.003869913518428802|-0.03037983179092407|0.01252377778291702|XArbitraryZVertical|-0.674008594252254|-0.05878438685835524|0.01556565047826639|0.7362163753714345|-0.06557328999042511|0.9942623376846313|-0.08451361954212189|0|0|0|-1|-1|3
2021-04-22 21:37:06.399 +0100|139812.0804495|-0.046051025390625|0.873565673828125|-0.079681396484375|139812.0754595|-0.5401315281199413|-0.646741769272796|-1.465430846127256|-0.1316039711236954|-0.09341056644916534|0.08047682791948318|0.009236738085746765|-0.092598557472229|0.01113396883010864|XArbitraryZVertical|-0.6742536357526978|-0.05844484187233373|0.01679967263140729|0.7359919400406552|-0.06337538361549377|0.9944542050361633|-0.08393246680498123|0|0|0|-1|-1|3
2021-04-22 21:37:06.419 +0100|139812.1004095|-0.064422607421875|0.923614501953125|-0.11456298828125|139812.0954195|-0.5458716296580196|-0.6546747225243129|-1.46893029877758|-0.2664927840232849|-0.1290188431739807|0.05354365706443787|0.01521237194538116|-0.1100503206253052|-0.002035200595855713|XArbitraryZVertical|-0.6754385107994801|-0.05873406928677249|0.01806357820029922|0.734851678074713|-0.06191998720169067|0.9948161244392395|-0.08066625148057938|0|0|0|-1|-1|3
2021-04-22 21:37:06.439 +0100|139812.1203695|-0.077301025390625|0.9304351806640625|-0.1233367919921875|139812.1153795|-0.569867925308208|-0.6811177534713329|-1.473018411338804|-0.2719520628452301|-0.1236413866281509|0.02806288748979568|-0.006844624876976013|-0.06289613246917725|-0.04609154909849167|XArbitraryZVertical|-0.6771557054735506|-0.05949802819030934|0.01903292611347001|0.733183443421844|-0.0614694282412529|0.9952235221862793|-0.07584027200937271|0|0|0|-1|-1|3
2021-04-22 21:37:06.459 +0100|139812.1403295|-0.088897705078125|0.932373046875|-0.0904083251953125|139812.1353395|-0.6024800804265058|-0.715995442576156|-1.476978999847256|-0.2531661987304688|-0.1210590228438377|0.01088061556220055|-0.01800974458456039|-0.0671660304069519|-0.04827999323606491|XArbitraryZVertical|-0.6789818550943484|-0.060377529167316|0.01975856334552869|0.731401308901425|-0.06148899719119072|0.9956023693084717|-0.07067638635635376|0|0|0|-1|-1|3
2021-04-22 21:37:06.479 +0100|139812.1602895|-0.1060943603515625|0.8890838623046875|-0.0178985595703125|139812.1552995|-0.6382197439923721|-0.7543120046932938|-1.48027000943943|-0.1875860989093781|-0.1628659218549728|-0.04621143266558647|-0.03066759556531906|-0.06885737180709839|-0.00233924388885498|XArbitraryZVertical|-0.6806444449166669|-0.06150031086104751|0.02045907228689543|0.7297413644064336|-0.06190793216228485|0.9959052801132202|-0.06588169932365417|0|0|0|-1|-1|3
2021-04-22 21:37:06.499 +0100|139812.1802495|-0.1063690185546875|0.803619384765625|0.1079254150390625|139812.1752595|-0.6617235810771196|-0.7829812169167275|-1.479313002357483|0.1127611547708511|-0.3849777579307556|-0.20494045317173|-0.04409238696098328|-0.123503565788269|0.08805739134550095|XArbitraryZVertical|-0.680810690315256|-0.064177486104516|0.02142228599101294|0.7293280463593986|-0.06444384157657623|0.9958183169364929|-0.0647561103105545|0|0|0|-1|-1|3
2021-04-22 21:37:06.519 +0100|139812.2002095|-0.13201904296875|0.8758544921875|0.0974578857421875|139812.1952195|-0.6215873523773888|-0.7551172516475264|-1.466392430309076|1.090527176856995|-0.8252295255661011|-0.3754799664020538|-0.03160083293914795|-0.2148305177688599|0.1731041073799133|XArbitraryZVertical|-0.6760755764979895|-0.07054942973625354|0.02367168358888302|0.7330650957349143|-0.07142695784568787|0.994554877281189|-0.07588918507099152|0|0|0|-1|-1|3
2021-04-22 21:37:06.539 +0100|139812.2201695|-0.360595703125|0.7634429931640625|-0.0357513427734375|139812.2151795|-0.5300947307487555|-0.6825125313431238|-1.438462167936379|1.496645212173462|-0.9776795506477356|-0.6832118034362793|-0.1014812365174294|-0.0995326042175293|0.1202612370252609|XArbitraryZVertical|-0.6650912093120992|-0.08035963728722795|0.02707594352449319|0.7419320585858896|-0.08322683721780777|0.9912565946578979|-0.1023920252919197|0|0|0|-1|-1|3
2021-04-22 21:37:06.559 +0100|139812.2401295|-0.5014190673828125|0.3431396484375|0.045745849609375|139812.2351395|-0.5143996759874135|-0.6884414485266322|-1.407184141388019|0.9880303740501404|-1.261954307556152|-1.098699450492859|-0.3122249841690063|-0.3276180624961853|0.06948138773441315|XArbitraryZVertical|-0.6544326268912639|-0.09394342952222361|0.02855628409010465|0.7497181270267353|-0.1034858524799347|0.9866453409194946|-0.1257851421833038|0|0|0|-1|-1|3
2021-04-22 21:37:06.579 +0100|139812.2600885|-0.3147125244140625|0.211944580078125|0.2455596923828125|139812.2550985|-0.5656725998093736|-0.7666396951682656|-1.378842377347194|0.6130437850952148|-1.475677371025085|-1.462831377983093|-0.3670894503593445|-0.7187547087669373|0.2428312450647354|XArbitraryZVertical|-0.6470273472128906|-0.1124814213016763|0.02873176733763707|0.7535769269725753|-0.1323463320732117|0.9816333651542664|-0.1374070793390274|0|0|0|-1|-1|3
2021-04-22 21:37:06.599 +0100|139812.2800485|0.1948699951171875|0.3441314697265625|0.1969451904296875|139812.2750585|-0.6575950287384663|-0.8875073977314948|-1.347570744948012|0.07632941007614136|-1.589921116828918|-2.212764739990234|-0.03556761145591736|-0.7285605072975159|0.4141043424606323|XArbitraryZVertical|-0.6416674896948424|-0.1355733229681587|0.02563207785313736|0.7544705161579024|-0.1716776043176651|0.9751884341239929|-0.1397654116153717|0|0|0|-1|-1|3
2021-04-22 21:37:06.619 +0100|139812.3000085|1.1114501953125|0.607666015625|-0.3372802734375|139812.2950185|-0.8319644887051052|-1.086910454811582|-1.306314735528547|-1.489169478416443|-1.46393096446991|-3.630748987197876|0.5971200466156006|-0.5725736021995544|0.2446004301309586|XArbitraryZVertical|-0.6417300878220144|-0.165456372853575|0.01276007866417815|0.7487615843597982|-0.2313977032899857|0.9652281403541565|-0.1216133683919907|0|0|0|-1|-1|3
2021-04-22 21:37:06.639 +0100|139812.3199685|2.434921264648438|1.810287475585938|-1.15277099609375|139812.3149785|-1.046186039191682|-1.331494239669163|-1.243095296249908|-1.434596180915833|-2.90527606010437|-3.845401763916016|1.768078804016113|-0.1824719309806824|-0.4702932834625244|XArbitraryZVertical|-0.6475573715034255|-0.2062138369546566|-0.007846957517283598|0.7335420397485253|-0.3126957416534424|0.9467847943305969|-0.07629060745239258|0|0|0|-1|-1|3
2021-04-22 21:37:06.658 +0100|139812.3399285|1.648696899414062|4.104034423828125|-1.554702758789062|139812.3349385|-1.037084831060189|-1.404327998151634|-1.19517799978686|3.015043258666992|-4.848992824554443|-0.7260923981666565|2.846426248550415|1.457399129867554|-1.227374076843262|XArbitraryZVertical|-0.637713339474188|-0.2508550042992175|0.002827609357790567|0.7282757552952275|-0.3617768287658691|0.9302809834480286|-0.06078692525625229|0|0|0|-1|-1|3
2021-04-22 21:37:06.678 +0100|139812.3598885|1.078720092773438|4.260848999023438|-2.459945678710938|139812.3548985|-0.7986598577039001|-1.266335880399765|-1.180794961271867|5.1610107421875|-3.301753044128418|1.121089220046997|1.658389091491699|3.465853929519653|-1.62217104434967|XArbitraryZVertical|-0.6045818221168484|-0.2783782873976881|0.0431025002521709|0.7450694904624326|-0.3627043664455414|0.9249085187911987|-0.1139727011322975|0|0|0|-1|-1|3
2021-04-22 21:37:06.698 +0100|139812.3798485|0.88916015625|4.786575317382812|-2.682754516601562|139812.3748585|-0.548649780288891|-1.091832663964867|-1.183325825916277|3.506226062774658|-2.361946582794189|2.877150535583496|1.479571223258972|3.317113399505615|-2.423062324523926|XArbitraryZVertical|-0.5755931585696783|-0.2857009775101132|0.08658522847044868|0.7612953735378162|-0.3353299200534821|0.9258677959442139|-0.1741349399089813|0|0|0|-1|-1|3
2021-04-22 21:37:06.718 +0100|139812.3998085|-0.0096282958984375|4.708663940429688|-2.241302490234375|139812.3948185|-0.2804760149550621|-0.868037585378013|-1.210193689611383|3.2361741065979|0.2045646607875824|4.599763870239258|0.9061393737792969|4.022537231445312|-2.379128217697144|XArbitraryZVertical|-0.5593770749775649|-0.2703204707381726|0.1325592786535727|0.7723031794031094|-0.2692374885082245|0.9356843829154968|-0.2280482649803162|0|0|0|-1|-1|3
2021-04-22 21:37:06.738 +0100|139812.4197685|-0.42535400390625|2.227325439453125|-1.694107055664062|139812.4147785|0.04729136237344427|-0.5213660770443894|-1.229091154328409|2.224633693695068|3.581218242645264|5.017904281616211|0.05479240417480469|3.346893310546875|-1.89285135269165|XArbitraryZVertical|-0.5519721724752547|-0.2236962919670387|0.1672333143514894|0.7856969434679123|-0.166898712515831|0.9421846270561218|-0.290573388338089|0|0|0|-1|-1|3
2021-04-22 21:37:06.764 +0100|139812.4397285|-0.5159912109375|-0.0868988037109375|-0.0284881591796875|139812.4347385|0.3351796647471398|-0.1451224020436028|-1.249442907500789|-1.496092081069946|6.772910118103027|4.395395755767822|-0.4847802221775055|0.5685713887214661|-1.103407025337219|XArbitraryZVertical|-0.5653505089656694|-0.1552842678435919|0.1767526220069308|0.7905847710493613|-0.04567638412117958|0.9488087892532349|-0.3125312030315399|0|0|0|-1|-1|3
2021-04-22 21:37:06.778 +0100|139812.4596875|-1.03289794921875|-0.7545928955078125|1.732101440429688|139812.4546975|0.6852721266279868|0.3426388472146453|-1.332731465772627|-7.863300323486328|8.465927124023438|4.064388751983643|-0.6236945986747742|-1.368249654769897|0.8667846322059631|XArbitraryZVertical|-0.6187035004660957|-0.07841252591492502|0.1609763046024753|0.7649472044703873|0.07923032343387604|0.9717961549758911|-0.2221149057149887|0|0|0|-1|-1|3
2021-04-22 21:37:06.798 +0100|139812.4796475|-1.147705078125|0.232635498046875|1.794784545898438|139812.4746575|1.82692013756293|1.629216566454661|-1.404635320576761|-14.78708934783936|8.621071815490723|2.821627378463745|-1.282242774963379|-1.720617055892944|1.847735404968262|XArbitraryZVertical|-0.7104183590893289|-0.01158904046804669|0.127499543326123|0.6920371533777786|0.1651159375905991|0.9862269759178162|0.009657101705670357|0|0|0|-1|-1|3
2021-04-22 21:37:06.818 +0100|139812.4996075|-1.898666381835938|1.420257568359375|-0.469482421875|139812.4946175|2.76042030540582|2.715265876743806|-1.109864200070606|-22.05392265319824|8.550592422485352|3.171038866043091|-1.35997211933136|-0.1450281143188477|0.4966410398483276|XArbitraryZVertical|-0.8367733489781869|0.04791729320358645|0.07899946389541712|0.5396976221042017|0.1839309930801392|0.8956382870674133|0.4049714207649231|0|0|0|-1|-1|3
2021-04-22 21:37:06.838 +0100|139812.5195675|-3.555160522460938|2.209213256835938|-0.8802642822265625|139812.5145775|2.823159630769968|2.888680006201342|-0.7684498994971429|-8.348067283630371|5.005343437194824|3.645371437072754|-2.444329261779785|0.8395848870277405|-0.8678074479103088|XArbitraryZVertical|-0.915549310798589|0.09913461357673736|0.05649076640732016|0.3856820934217023|0.1799090504646301|0.6950215697288513|0.6961164474487305|0|0|0|-1|-1|3
2021-04-22 21:37:06.858 +0100|139812.5395275|-3.163192749023438|-1.498001098632812|0.7831573486328125|139812.5345375|2.796786368643173|2.972223616115468|-0.7835054141302278|7.737719535827637|4.206290245056152|-1.480281829833984|-3.861558198928833|1.025464177131653|-1.716800212860107|XArbitraryZVertical|-0.9128170074459168|0.1261698749871663|0.01175177604486153|0.388211752184114|0.1194157004356384|0.7057671546936035|0.6983074545860291|0|0|0|-1|-1|3
2021-04-22 21:37:06.878 +0100|139812.5594875|-3.461959838867188|-0.8542022705078125|-0.354736328125|139812.5544975|2.820515515246749|3.023488720475654|-0.9468946529640841|6.978719234466553|-0.4817761480808258|-1.902475595474243|-3.228871822357178|-2.556402444839478|0.2659181952476501|XArbitraryZVertical|-0.8813276888036997|0.1154552227053801|-0.02090723592989964|0.45770578240655|0.06883679330348969|0.8116052746772766|0.5801368355751038|0|0|0|-1|-1|3
2021-04-22 21:37:06.898 +0100|139812.5794475|-1.757568359375|-1.44769287109375|-0.348724365234375|139812.5744575|2.84268877069478|3.010355519489318|-1.046070548056184|2.353826761245728|-2.564329385757446|-0.3322937190532684|-3.214560747146606|-1.91335916519165|-1.07479190826416|XArbitraryZVertical|-0.8596834628694877|0.09632360992424556|-0.01804353604065808|0.5013387790529799|0.065558061003685|0.8654613494873047|0.4966678023338318|0|0|0|-1|-1|3
2021-04-22 21:37:06.918 +0100|139812.5994075|-0.906097412109375|0.1770172119140625|0.0119171142578125|139812.5944175|2.833971837814707|2.943763376062803|-1.061309260568118|0.2842014729976654|-2.974215507507324|0.1963585019111633|-1.580326318740845|-1.858575344085693|-0.6875361800193787|XArbitraryZVertical|-0.8557850559699409|0.08210062452650729|0.007009400125523418|0.5107273967801355|0.09585915505886078|0.8729947805404663|0.4782171547412872|0|0|0|-1|-1|3
2021-04-22 21:37:06.938 +0100|139812.6193675|-0.3796234130859375|0.4658203125|0.2032012939453125|139812.6143775|2.828615191057321|2.88689302360192|-1.076456896912034|1.509020328521729|-2.24285364151001|-0.3296807706356049|-0.8502535820007324|-0.546557605266571|-0.2972170412540436|XArbitraryZVertical|-0.8514049930010004|0.06842306673590234|0.02847244221414752|0.5192468099402731|0.1195400804281235|0.8802822828292847|0.4591443538665771|0|0|0|-1|-1|3
2021-04-22 21:37:06.959 +0100|139812.6393275|-0.0518798828125|0.6570892333984375|0.1594696044921875|139812.6343375|2.826065080198266|2.845141163899045|-1.120921876275503|2.591454744338989|-1.791700720787048|-0.7728506922721863|-0.415149986743927|-0.4217877984046936|-0.1959585547447205|XArbitraryZVertical|-0.8396530170876514|0.05408460954733434|0.04093578121015693|0.5388712230070887|0.1270329803228378|0.9005017280578613|0.4158846735954285|0|0|0|-1|-1|3
2021-04-22 21:37:06.978 +0100|139812.6592865|0.0440521240234375|1.065826416015625|-0.1707916259765625|139812.6542965|2.827861832170838|2.81256451445456|-1.175890339486251|2.55048131942749|-1.547645449638367|-0.9248815774917603|-0.1390226930379868|-0.1400434374809265|-0.2765891551971436|XArbitraryZVertical|-0.824959885944725|0.03851343298472529|0.04911999311340209|0.5617341594750677|0.1243126690387726|0.9230327606201172|0.3640841841697693|0|0|0|-1|-1|3
2021-04-22 21:37:06.998 +0100|139812.6792465|0.18780517578125|0.9258270263671875|-0.43536376953125|139812.6742565|2.838012518712707|2.79691383638852|-1.223216979482672|1.779066681861877|-0.9675806164741516|-1.025824427604675|-0.05019959062337875|0.1366735696792603|-0.5713661909103394|XArbitraryZVertical|-0.8122117435264272|0.02463040806112803|0.05325179641929223|0.5804048210632384|0.1150946840643883|0.9401999711990356|0.320589154958725|0|0|0|-1|-1|3
2021-04-22 21:37:07.018 +0100|139812.6992065|0.2484283447265625|1.028472900390625|-0.3101959228515625|139812.6942165|2.875046565443919|2.816654707177758|-1.254187305731102|0.7802281379699707|-0.6284465193748474|-1.106746673583984|0.1318950057029724|-0.04043060541152954|-0.7340629696846008|XArbitraryZVertical|-0.8045993972990704|0.01210466819602468|0.05287187558807091|0.5913356655099667|0.0993972048163414|0.9502966403961182|0.2950534224510193|0|0|0|-1|-1|3
2021-04-22 21:37:07.038 +0100|139812.7191665|0.0774383544921875|1.345306396484375|-0.013671875|139812.7141765|2.927460210354899|2.855123132106794|-1.271752501339329|0.586792528629303|-0.5134702324867249|-0.9175125360488892|0.1317190825939178|0.1422967314720154|-0.5102760195732117|XArbitraryZVertical|-0.8008119021098642|0.0008067299665605919|0.05137503355887248|0.5967078600506504|0.08324623852968216|0.9556186199188232|0.2826007008552551|0|0|0|-1|-1|3
2021-04-22 21:37:07.058 +0100|139812.7391265|-0.0109100341796875|1.572509765625|0.0681610107421875|139812.7341365|2.963432008158781|2.880425168807419|-1.293207839482661|1.199122071266174|-0.40422523021698|-0.5935575366020203|-0.02072577923536301|0.4555017948150635|-0.2482183277606964|XArbitraryZVertical|-0.7951807701566067|-0.007739973802985862|0.05037361755721918|0.6042269465416866|0.07075886428356171|0.9617190957069397|0.2647447288036346|0|0|0|-1|-1|3
2021-04-22 21:37:07.078 +0100|139812.7590865|-0.000732421875|1.51849365234375|-0.198944091796875|139812.7540965|2.96890383981036|2.879784724413926|-1.318527041846547|1.332594752311707|-0.1890896409749985|-0.2766166627407074|-0.08950688689947128|0.6411028504371643|-0.1771925389766693|XArbitraryZVertical|-0.7876566175473622|-0.01207412729747497|0.05042133616130293|0.6139292735707476|0.06460408121347427|0.968348503112793|0.2410974651575089|0|0|0|-1|-1|3
2021-04-22 21:37:07.098 +0100|139812.77904625|-0.0008544921875|1.306228637695312|-0.2639007568359375|139812.7740565|2.949512361446437|2.857583438811614|-1.347894159354427|1.390404343605042|-0.1136350929737091|-0.04607579112052917|-0.04944644495844841|0.4786736369132996|-0.4621284008026123|XArbitraryZVertical|-0.7784048169967913|-0.01374404714151093|0.05083351753503748|0.6255502687954357|0.0619429238140583|0.9752600193023682|0.2122059166431427|0|0|0|-1|-1|3
2021-04-22 21:37:07.118 +0100|139812.79900625|0.038787841796875|1.236297607421875|-0.2557373046875|139812.79401625|2.912717292787131|2.821206394846055|-1.370634679077071|1.068959593772888|0.08548307418823242|0.09852320700883865|-0.06977462768554688|0.2956613302230835|-0.4752852916717529|XArbitraryZVertical|-0.7708346278681527|-0.0130211710190856|0.05134060605263951|0.6348296934170851|0.06261777877807617|0.9800344705581665|0.1887111514806747|0|0|0|-1|-1|3
2021-04-22 21:37:07.138 +0100|139812.81896625|0.0977325439453125|1.3040771484375|0.016082763671875|139812.81397625|2.850998638664051|2.762643784355609|-1.390418504413861|1.264036417007446|0.0631088986992836|0.3310425579547882|-0.0003596022725105286|0.2560310363769531|-0.3643351793289185|XArbitraryZVertical|-0.7636972091290063|-0.0101765320535425|0.05202565540326982|0.6433944552510882|0.06636864691972733|0.9837759733200073|0.1666739732027054|0|0|0|-1|-1|3
2021-04-22 21:37:07.157 +0100|139812.83892625|0.02337646484375|1.406890869140625|0.1650238037109375|139812.83393625|2.739449813816786|2.652351308465104|-1.408267866381598|1.100196242332458|-0.05215116962790489|0.5908204913139343|0.00854838639497757|0.3566235303878784|-0.05771756172180176|XArbitraryZVertical|-0.7558973721258969|-0.00593871729428068|0.05542662300211555|0.6523127401792591|0.07604587823152542|0.9868212938308716|0.1428322046995163|0|0|0|-1|-1|3
2021-04-22 21:37:07.177 +0100|139812.85888525|0.02679443359375|1.220230102539062|0.0359344482421875|139812.85389525|2.610872662297198|2.524874817899548|-1.420007066398303|1.060815691947937|-0.03693615645170212|0.4560231864452362|-0.07047833502292633|0.4018501043319702|0.01721023768186569|XArbitraryZVertical|-0.7491803183493271|-0.001400737615929425|0.05921753544878958|0.6597122906933331|0.08688105642795563|0.9886528253555298|0.1225462257862091|0|0|0|-1|-1|3
2021-04-22 21:37:07.197 +0100|139812.87884525|0.050323486328125|1.138412475585938|0.0296173095703125|139812.87385525|2.47690592901933|2.390881547440234|-1.431940273581073|1.03962767124176|-0.08904255926609039|0.2995566129684448|-0.05845405161380768|0.1909757852554321|-0.06929958611726761|XArbitraryZVertical|-0.7420249610732953|0.001557749423324011|0.06222096664171816|0.6674767558270892|0.09441854059696198|0.9903749823570251|0.101206935942173|0|0|0|-1|-1|3
2021-04-22 21:37:07.217 +0100|139812.89880525|0.0318603515625|1.091964721679688|0.0702667236328125|139812.89381525|2.355860125756521|2.269101088491823|-1.440675130466622|0.6500905752182007|-0.05809864774346352|0.2223497331142426|-0.05037333071231842|0.1428380608558655|-0.04412996768951416|XArbitraryZVertical|-0.7360029618421301|0.003297715508521013|0.06449667752082019|0.6738910100001811|0.09938409179449081|0.9915461540222168|0.0834224671125412|0|0|0|-1|-1|3
2021-04-22 21:37:07.237 +0100|139812.91876525|-0.032958984375|1.09539794921875|0.183349609375|139812.91377525|2.277705108023861|2.191755096591113|-1.443779649179572|0.2970357239246368|0.08397843688726425|0.1014801189303398|-0.08709919452667236|0.09022444486618042|0.02718985080718994|XArbitraryZVertical|-0.7326840911288929|0.005027006606171443|0.06566170280275951|0.6773754177781294|0.1030289083719254|0.9919441938400269|0.07370249927043915|0|0|0|-1|-1|3
2021-04-22 21:37:07.257 +0100|139812.93872525|-0.0865631103515625|1.07147216796875|0.26409912109375|139812.93373525|2.245663348782276|2.163195919652825|-1.446038073649819|0.1996631473302841|0.2253941595554352|-0.0723445862531662|-0.1494819223880768|0.09699034690856934|0.1330826282501221|XArbitraryZVertical|-0.7312305401529409|0.006431812812580319|0.06461520353081071|0.6790327463218024|0.1032320410013199|0.9922277927398682|0.06947894394397736|0|0|0|-1|-1|3
2021-04-22 21:37:07.277 +0100|139812.95868525|-0.1156158447265625|0.983612060546875|0.21600341796875|139812.95369525|2.217473026189677|2.140618447449477|-1.452888611842571|0.4563487768173218|0.3314933180809021|-0.3391554057598114|-0.2005050927400589|0.05758708715438843|0.195556640625|XArbitraryZVertical|-0.7291647152567555|0.007072307450821844|0.06130897130037313|0.6815497963890262|0.09904893487691879|0.9930569529533386|0.06346239894628525|0|0|0|-1|-1|3
2021-04-22 21:37:07.297 +0100|139812.97864525|-0.005126953125|0.891876220703125|0.0585174560546875|139812.97365525|2.180070087800352|2.110531896744275|-1.467696502872774|0.6042278409004211|0.3350681364536285|-0.6863662600517273|-0.1832135021686554|-0.03135669231414795|0.1179629564285278|XArbitraryZVertical|-0.7255404350008087|0.006038406208319304|0.05513415371431266|0.6859409318403067|0.08828809857368469|0.99468994140625|0.05289077013731003|0|0|0|-1|-1|3
2021-04-22 21:37:07.317 +0100|139812.99860525|0.0347900390625|0.8237457275390625|0.0037384033203125|139812.99361525|2.169013415947166|2.104880007735026|-1.48616599183025|0.3591960370540619|0.2053759843111038|-0.8161921501159668|-0.05518206208944321|-0.1335058212280273|-0.0139009952545166|XArbitraryZVertical|-0.7221557185395536|0.002595603397987576|0.04789647687407047|0.6900655946191986|0.07275970280170441|0.9964209794998169|0.0430312380194664|0|0|0|-1|-1|3
2021-04-22 21:37:07.337 +0100|139813.01856525|-0.0003814697265625|0.817840576171875|-0.004669189453125|139813.01357525|2.245775469234861|2.184826303088429|-1.501509329462868|-0.003886614926159382|0.1483532190322876|-0.7650027275085449|-0.03014400228857994|-0.1836203932762146|-0.05530035495758057|XArbitraryZVertical|-0.7210695137269894|-0.001953292066139815|0.0411118056473031|0.6916392874792797|0.05658699199557304|0.9976006150245667|0.0398901179432869|0|0|0|-1|-1|3
2021-04-22 21:37:07.357 +0100|139813.03852525|0.016448974609375|0.848846435546875|0.00091552734375|139813.03353525|2.416701303896474|2.358530888660022|-1.510405340196061|-0.2054177224636078|0.167930006980896|-0.6298330426216125|-0.04447196051478386|-0.1702806949615479|-0.0318065844476223|XArbitraryZVertical|-0.7220485603904696|-0.005939584282600375|0.03516865860408611|0.6909225354260108|0.04257937520742416|0.9981769919395447|0.04277880489826202|0|0|0|-1|-1|3
2021-04-22 21:37:07.377 +0100|139813.05848425|0.0931549072265625|0.7647552490234375|-0.0621185302734375|139813.05349425|2.57897971615976|2.522889981405317|-1.51850040292449|0.2523452639579773|0.05665659159421921|-0.5962607860565186|-0.0001980103552341461|-0.1573699712753296|-0.06892037391662598|XArbitraryZVertical|-0.7219429897276183|-0.009525109864906487|0.03011765845136798|0.691231264781129|0.03031835705041885|0.9986329078674316|0.04258481785655022|0|0|0|-1|-1|3
2021-04-22 21:37:07.397 +0100|139813.07844425|0.1797637939453125|0.613494873046875|-0.0533905029296875|139813.07345425|2.713561590854285|2.656957567491544|-1.529346809971389|0.1781074851751328|-0.09977930039167404|-0.4789674580097198|0.09782005846500397|-0.2756150960922241|-0.09660255908966064|XArbitraryZVertical|-0.7198264107096802|-0.01354813564108128|0.02646306836505398|0.693517233061707|0.01930589973926544|0.9991410970687866|0.03666722774505615|0|0|0|-1|-1|3
2021-04-22 21:37:07.417 +0100|139813.09840425|0.21343994140625|0.551910400390625|-0.049713134765625|139813.09341425|2.914751105032319|2.854340853554237|-1.531915381793878|-0.2641781568527222|-0.2562962770462036|-0.3710235059261322|0.1799347400665283|-0.4146647453308105|-0.1076978445053101|XArbitraryZVertical|-0.7199451191363431|-0.0178563924950435|0.02484559083052486|0.6933562708426956|0.01101324055343866|0.999244213104248|0.0372796505689621|0|0|0|-1|-1|3
2021-04-22 21:37:07.437 +0100|139813.11836425|0.195770263671875|0.6468658447265625|-0.0174102783203125|139813.11337425|3.102628422242589|3.035491506911121|-1.525008635172441|-0.4759936630725861|-0.4014491438865662|-0.2768482863903046|0.2101635187864304|-0.4369707107543945|-0.09112417697906494|XArbitraryZVertical|-0.7226684827533489|-0.02255274475886292|0.02489898160810356|0.6903780016943218|0.004847581032663584|0.9989519119262695|0.0455167256295681|0|0|0|-1|-1|3
2021-04-22 21:37:07.457 +0100|139813.13832425|0.158416748046875|0.858612060546875|0.025604248046875|139813.13333425|-3.075075325217901|3.132551424996987|-1.514217021405412|-0.6235859990119934|-0.4129537045955658|-0.1887944042682648|0.1870950311422348|-0.3001118302345276|-0.03813064470887184|XArbitraryZVertical|-0.7263131548071402|-0.02727173948625864|0.02612226402368674|0.6863258721735357|0.0005112871876917779|0.9983997941017151|0.05654909461736679|0|0|0|-1|-1|3
2021-04-22 21:37:07.477 +0100|139813.15828425|0.0755767822265625|1.103790283203125|0.1498565673828125|139813.15329425|-3.025393011030356|-3.108263880413832|-1.50184285390683|-0.6420422196388245|-0.2683697938919067|-0.1902551501989365|0.1407384872436523|-0.07664889097213745|-0.01858390122652054|XArbitraryZVertical|-0.730386580186402|-0.03109420641510553|0.02745289166288311|0.6817734788085154|-0.002295963233336806|0.99762362241745|0.06886281073093414|0|0|0|-1|-1|3
2021-04-22 21:37:07.497 +0100|139813.17824425|0.108367919921875|1.16650390625|0.149017333984375|139813.17325425|-2.955971533862415|-3.042241148844693|-1.489723808894275|-0.5306521654129028|-0.06776448339223862|-0.4263128638267517|0.07723086327314377|0.1432991623878479|0.06489299982786179|XArbitraryZVertical|-0.7342342895750085|-0.03453572199861873|0.02639715564304869|0.6775031808917894|-0.008032728917896748|0.9967154264450073|0.08058541268110275|0|0|0|-1|-1|3
2021-04-22 21:37:07.517 +0100|139813.19820425|0.149810791015625|1.171051025390625|0.1650543212890625|139813.19321425|-2.844412531461191|-2.931314076903134|-1.477141165110215|-0.6259883046150208|0.03280116617679596|-0.7059759497642517|0.1441386193037033|0.1625855565071106|0.06663787364959717|XArbitraryZVertical|-0.7377056350329994|-0.03898976582905433|0.02237230413030352|0.6736243638776424|-0.01952056214213371|0.9956175684928894|0.09145960956811905|0|0|0|-1|-1|3
2021-04-22 21:37:07.537 +0100|139813.21816425|0.182464599609375|1.289398193359375|0.2264862060546875|139813.21317425|-2.731708288659987|-2.81729201115748|-1.459301755456303|-0.7441829442977905|0.1447238624095917|-0.8699290156364441|0.1899185478687286|0.207503080368042|0.06958436965942383|XArbitraryZVertical|-0.7421364775931772|-0.04434284586040614|0.01606162940421693|0.6685875911253836|-0.03545431047677994|0.9937909245491028|0.1054656803607941|0|0|0|-1|-1|3
2021-04-22 21:37:07.557 +0100|139813.23812425|0.1867218017578125|1.293838500976562|0.236297607421875|139813.23313425|-2.632562169200982|-2.715956133993178|-1.440540119177567|-0.5302533507347107|0.1383851766586304|-0.9259702563285828|0.2429315745830536|0.3146846890449524|0.1134817600250244|XArbitraryZVertical|-0.7460801625500706|-0.05014579437153779|0.008680648699517455|0.6639085862306677|-0.05363152548670769|0.9915286302566528|0.1183004155755043|0|0|0|-1|-1|3
2021-04-22 21:37:07.577 +0100|139813.25808425|0.1265869140625|1.1943359375|0.2430419921875|139813.25309425|-2.539221172647244|-2.622024410714386|-1.425504661069495|-0.2115047723054886|0.04200435802340508|-0.9034820199012756|0.2504733800888062|0.2717819213867188|0.1193206161260605|XArbitraryZVertical|-0.748095031637814|-0.05649432689796702|0.001885333037775133|0.6611798349254535|-0.07188500463962555|0.989463746547699|0.1256755739450455|0|0|0|-1|-1|3
2021-04-22 21:37:07.597 +0100|139813.27804325|0.0775909423828125|1.210342407226562|0.13232421875|139813.27305325|-2.432128548405164|-2.514761392289218|-1.416860271022629|0.4054621160030365|0.09699873626232147|-0.9096401929855347|0.2001696676015854|0.2071372270584106|0.09235799312591553|XArbitraryZVertical|-0.7470915832969115|-0.06280524357373309|-0.004564499788763048|0.6617318375039164|-0.08994065970182419|0.9881752133369446|0.1241806671023369|0|0|0|-1|-1|3
2021-04-22 21:37:07.617 +0100|139813.29800325|-0.039764404296875|1.131759643554688|0.0283660888671875|139813.29301325|-2.278860636339911|-2.361700473352248|-1.416728197410649|1.121470212936401|0.04447001963853836|-0.8981785774230957|0.1705200374126434|0.2119334936141968|-0.0004344061017036438|XArbitraryZVertical|-0.7414777791588484|-0.06902913171873616|-0.01064290097028813|0.6673324085275049|-0.1079137027263641|0.9881549477577209|0.1091086342930794|0|0|0|-1|-1|3
2021-04-22 21:37:07.637 +0100|139813.31796325|-0.2196807861328125|1.104583740234375|-0.0729217529296875|139813.31297325|-2.047368900120788|-2.132775313415523|-1.421233460799492|1.760188579559326|-0.005278150551021099|-0.9583893418312073|0.03739069402217865|0.1247196793556213|-0.07885002344846725|XArbitraryZVertical|-0.7307045260303786|-0.07596790148901195|-0.01576348292885046|0.6782709768984946|-0.1260905414819717|0.9888362884521484|0.0794004499912262|0|0|0|-1|-1|3
2021-04-22 21:37:07.657 +0100|139813.33792325|-0.3285369873046875|0.912078857421875|-0.29248046875|139813.33293325|-1.78867085662539|-1.876224768017403|-1.416721529452816|1.524429202079773|0.0535447932779789|-1.085889935493469|-0.1025827080011368|0.08769762516021729|-0.1702923774719238|XArbitraryZVertical|-0.718411344688998|-0.08342150758879154|-0.02171484527230837|0.6902569943768505|-0.1463649421930313|0.9881539344787598|0.04614801704883575|0|0|0|-1|-1|3
2021-04-22 21:37:07.676 +0100|139813.35788325|-0.4508056640625|0.7841796875|-0.2581634521484375|139813.35289325|-1.60038434110185|-1.690274834292983|-1.399427211421066|1.160288453102112|-0.0758213996887207|-1.263781905174255|-0.1957959234714508|-0.1202093362808228|-0.3271033763885498|XArbitraryZVertical|-0.708307299494028|-0.09200021568600393|-0.02869253926668881|0.6992951035580988|-0.1693168729543686|0.9853522181510925|0.02032653987407684|0|0|0|-1|-1|3
2021-04-22 21:37:07.696 +0100|139813.37784325|-0.39678955078125|0.7783355712890625|-0.300628662109375|139813.37285325|-1.43789946531732|-1.531005000448455|-1.372749848523035|1.833664417266846|0.06208842620253563|-1.531858444213867|-0.2708699107170105|-0.2054437398910522|-0.2646327614784241|XArbitraryZVertical|-0.6968520415053783|-0.1023899559267294|-0.03690057634870532|0.7089089579180593|-0.1965987980365753|0.980452835559845|-0.007827058434486389|0|0|0|-1|-1|3
2021-04-22 21:37:07.716 +0100|139813.39780325|-0.1103668212890625|0.7240142822265625|-0.327972412109375|139813.39281325|-1.252624410342545|-1.347355553165233|-1.3352173542994|2.462193012237549|0.1324036121368408|-1.621594905853271|-0.09983417391777039|-0.2038397789001465|-0.233587920665741|XArbitraryZVertical|-0.6791902026245099|-0.1133171828276895|-0.0468211850816095|0.7236490267672447|-0.2276047170162201|0.9723793864250183|-0.05171976983547211|0|0|0|-1|-1|3
2021-04-22 21:37:07.736 +0100|139813.41776325|0.0965728759765625|0.5495452880859375|-0.450408935546875|139813.41277325|-1.121221831479998|-1.221390545055125|-1.289252943923032|2.092215299606323|-0.3138795495033264|-1.857911705970764|0.208209365606308|-0.281291127204895|-0.2493049502372742|XArbitraryZVertical|-0.6606456357813192|-0.126450323161995|-0.05635032382556247|0.7378227840990123|-0.2610510587692261|0.9606277942657471|-0.09511531889438629|0|0|0|-1|-1|3
2021-04-22 21:37:07.756 +0100|139813.43772325|0.3381500244140625|0.85064697265625|-0.633575439453125|139813.43273325|-1.065814645293677|-1.180356097936319|-1.242632536418319|1.148213982582092|-0.917046070098877|-1.822401762008667|0.4583425223827362|-0.3699145317077637|-0.3435935974121094|XArbitraryZVertical|-0.646463802485383|-0.1440503698495103|-0.06418885263584283|0.7464676378372749|-0.2980494201183319|0.9466357827186584|-0.1226680874824524|0|0|0|-1|-1|3
2021-04-22 21:37:07.776 +0100|139813.45768325|0.6044769287109375|1.814041137695312|-1.063629150390625|139813.45269325|-1.050893532994156|-1.187368474439978|-1.205188948367264|0.9851031303405762|-0.9996864795684814|-1.416661024093628|0.7191599607467651|0.09931164979934692|-0.5625250339508057|XArbitraryZVertical|-0.637602191822859|-0.163063339766049|-0.06824254833344107|0.7498111781351121|-0.3315566182136536|0.9339067935943604|-0.1337475776672363|0|0|0|-1|-1|3
2021-04-22 21:37:07.796 +0100|139813.47764325|1.364501953125|2.783004760742188|-1.734725952148438|139813.47265325|-1.011002779307281|-1.167810372918264|-1.174780166590732|1.542838454246521|-0.8465887904167175|-0.7160760760307312|1.106035232543945|1.173815250396729|-1.075345516204834|XArbitraryZVertical|-0.6267555965085538|-0.1775923021435036|-0.06899048803495159|0.7555651880864126|-0.3548454642295837|0.922605037689209|-0.1512767970561981|0|0|0|-1|-1|3
2021-04-22 21:37:07.816 +0100|139813.49760325|1.598342895507812|3.962844848632812|-2.068222045898438|139813.49261325|-0.9246109524723636|-1.10604961169978|-1.162029154918751|2.05265736579895|-0.7400848269462585|1.102453827857971|1.871951818466187|2.090842008590698|-1.741451740264893|XArbitraryZVertical|-0.6138598227692985|-0.1846668997234046|-0.05921298649527328|0.7652242946710549|-0.355320155620575|0.9176115393638611|-0.1781485080718994|0|0|0|-1|-1|3
2021-04-22 21:37:07.836 +0100|139813.51756225|1.895401000976562|4.452438354492188|-1.811264038085938|139813.51257225|-0.7648179874049117|-0.9591940328911044|-1.17353511269925|2.658723831176758|0.6851312518119812|3.165792942047119|1.942676901817322|3.327784538269043|-1.810597062110901|XArbitraryZVertical|-0.5991089796048451|-0.1731902709502667|-0.03866016707775721|0.7807554495031123|-0.3167617917060852|0.9221240878105164|-0.2221471220254898|0|0|0|-1|-1|3
2021-04-22 21:37:07.856 +0100|139813.53752225|1.712265014648438|3.588897705078125|-0.8387451171875|139813.53253225|-0.5300008563934977|-0.7163758348860501|-1.206421737199685|1.270588517189026|1.84660530090332|4.950681209564209|2.140762567520142|3.383661985397339|-1.372222661972046|XArbitraryZVertical|-0.5883549401594874|-0.139480287302245|-0.01006193718733866|0.7964186565617339|-0.2340093851089478|0.9343467950820923|-0.2687674164772034|0|0|0|-1|-1|3
2021-04-22 21:37:07.876 +0100|139813.55748225|1.015625|2.414505004882812|0.2864837646484375|139813.55249225|-0.2490812667808499|-0.4059413701032459|-1.264477298291972|-1.174827098846436|2.556623458862305|5.916560173034668|1.731488943099976|2.300822734832764|-0.2937090396881104|XArbitraryZVertical|-0.5945378109214838|-0.08945584256902209|0.02005017992929102|0.7988245648379927|-0.1190778687596321|0.9534500241279602|-0.2770448923110962|0|0|0|-1|-1|3
2021-04-22 21:37:07.896 +0100|139813.57744225|-0.0575103759765625|1.514419555664062|1.322769165039062|139813.57245225|0.1822976921076727|0.06738182567415231|-1.324036492088496|-2.309980154037476|3.108622312545776|6.504856586456299|0.7271291017532349|1.306445002555847|0.7980623245239258|XArbitraryZVertical|-0.6142290094163874|-0.02946226230252621|0.05113342195623864|0.7869181823784028|0.01644648239016533|0.9697089791297913|-0.2437094002962112|0|0|0|-1|-1|3
2021-04-22 21:37:07.916 +0100|139813.59740225|-2.019195556640625|0.3139495849609375|2.093170166015625|139813.59241225|0.7353150615869224|0.662350138729054|-1.323650104022973|-2.390841245651245|2.673207521438599|5.019642353057861|-0.5248509049415588|0.2105157971382141|1.81502640247345|XArbitraryZVertical|-0.6345207797590074|0.03047579380604504|0.08166498951551655|0.7679749449975242|0.1504455506801605|0.9696145057678223|-0.1929092109203339|0|0|0|-1|-1|3
2021-04-22 21:37:07.936 +0100|139813.61736225|-3.214752197265625|-1.0762939453125|0.2327423095703125|139813.61237225|1.220875124617176|1.203347398653906|-1.336073885967467|-7.728980541229248|4.924876689910889|1.67972719669342|-3.113014459609985|-1.089186310768127|2.68561577796936|XArbitraryZVertical|-0.6731504306504756|0.07137317723081883|0.0836817345171991|0.7312809658038806|0.2170484811067581|0.9725789427757263|-0.08354873210191727|0|0|0|-1|-1|3
2021-04-22 21:37:07.956 +0100|139813.63732225|-2.498291015625|-0.445068359375|-0.3422088623046875|139813.63233225|2.045039193285499|2.079392037518578|-1.288990905507395|-12.79311180114746|2.460746049880981|1.047227501869202|-2.543400287628174|-1.811140537261963|-0.7429444789886475|XArbitraryZVertical|-0.7468552425933338|0.09957761721032474|0.07552839288615705|0.6531364801780383|0.2428930997848511|0.9605549573898315|0.1354169100522995|0|0|0|-1|-1|3
2021-04-22 21:37:07.976 +0100|139813.65728225|-2.7305908203125|1.427749633789062|0.60784912109375|139813.65229225|2.475800860543274|2.515272100141709|-1.10300237361176|-9.634101867675781|1.88533878326416|1.294578075408936|-3.156709671020508|-1.038286685943604|-0.2954129874706268|XArbitraryZVertical|-0.8185761679035746|0.1122408598919929|0.08509221378129633|0.5568613456501573|0.2643141150474548|0.8925651907920837|0.365329921245575|0|0|0|-1|-1|3
2021-04-22 21:37:07.996 +0100|139813.67724225|-1.240631103515625|0.724609375|0.36767578125|139813.67225225|2.60999023089926|2.663828996348352|-0.9969884923320605|-3.205498695373535|1.102349162101746|-1.136747002601624|-2.539387941360474|0.6363256573677063|-0.02398103475570679|XArbitraryZVertical|-0.853111008006932|0.1150090726007481|0.07849982458770668|0.502804689545854|0.2495923340320587|0.8398400545120239|0.4820509552955627|0|0|0|-1|-1|3
2021-04-22 21:37:08.016 +0100|139813.69720225|-0.8942718505859375|0.2020416259765625|0.7000732421875|139813.69221225|2.687007397870818|2.738178602492339|-0.9942463804378754|0.7892063856124878|-0.03408817201852798|-2.388055801391602|-1.32830286026001|-0.3214722871780396|-0.09146219491958618|XArbitraryZVertical|-0.8605195877305771|0.1009639622212763|0.06627731121560301|0.4948938013911897|0.2139987200498581|0.838348388671875|0.5013753771781921|0|0|0|-1|-1|3
2021-04-22 21:37:08.036 +0100|139813.71716225|-0.5619659423828125|0.2489166259765625|0.3240509033203125|139813.71217225|2.745943175248967|2.781028168600436|-1.048462394279014|2.860943555831909|-0.6264455914497375|-2.324160814285278|-0.9868367910385132|-0.6678812503814697|0.1957292556762695|XArbitraryZVertical|-0.8527073323455143|0.07938498443072003|0.05541866245372344|0.5133390546292648|0.176014631986618|0.8666571378707886|0.466823548078537|0|0|0|-1|-1|3
2021-04-22 21:37:08.056 +0100|139813.73712225|-0.34564208984375|0.2079620361328125|0.159881591796875|139813.73213225|2.777823527236259|2.792198395694126|-1.120857572153182|3.017024040222168|-1.048038482666016|-1.53106701374054|-0.6481049060821533|-0.7019112110137939|-0.1917136311531067|XArbitraryZVertical|-0.8370871551860075|0.06001664777058575|0.05010829894412418|0.541454016421175|0.1488825380802155|0.9004737138748169|0.4086337983608246|0|0|0|-1|-1|3
2021-04-22 21:37:08.076 +0100|139813.75708125|-0.14727783203125|0.6425628662109375|0.078643798828125|139813.75209125|2.786131174929824|2.777963168322256|-1.178465592570099|2.49359917640686|-1.057842493057251|-0.8602659106254578|-0.4330921471118927|-0.5987337231636047|-0.2102319002151489|XArbitraryZVertical|-0.8225488985027546|0.04566013679031733|0.05132500653606463|0.564530233787124|0.135987713932991|0.9240204095840454|0.3573430776596069|0|0|0|-1|-1|3
2021-04-22 21:37:08.096 +0100|139813.77704125|0.0377197265625|0.7979888916015625|0.203643798828125|139813.77205125|2.766415399079866|2.741772755327688|-1.228170990473479|2.258018016815186|-0.7289257645606995|-0.3974096775054932|-0.2321844100952148|-0.2583890557289124|-0.2034151554107666|XArbitraryZVertical|-0.8083105616791004|0.03696603334704149|0.05413552101792783|0.5850958144286638|0.1307739764451981|0.9418758749961853|0.3094649016857147|0|0|0|-1|-1|3
2021-04-22 21:37:08.116 +0100|139813.79700125|0.1870269775390625|1.01116943359375|0.2394256591796875|139813.79201125|2.733165860262375|2.697900876396199|-1.268354627202184|1.859731078147888|-0.5328565239906311|-0.2955680787563324|-0.04592210054397583|-0.1035377979278564|-0.05082616209983826|XArbitraryZVertical|-0.7959280797601022|0.03169909140218805|0.05634936723204026|0.6019290827384995|0.1278612911701202|0.9546120762825012|0.2690126895904541|0|0|0|-1|-1|3
2021-04-22 21:37:08.136 +0100|139813.81696125|0.207855224609375|1.04754638671875|0.1701812744140625|139813.81197125|2.689851996515044|2.64577409366235|-1.301363561466695|1.740258097648621|-0.5523019433021545|-0.1021233424544334|0.08336815237998962|0.08113706111907959|0.004319295287132263|XArbitraryZVertical|-0.7850399132485056|0.02788939742660979|0.05877229351159245|0.6160198175963707|0.1266380399465561|0.9639220237731934|0.2341309636831284|0|0|0|-1|-1|3
2021-04-22 21:37:08.155 +0100|139813.83692125|0.096771240234375|0.9355926513671875|0.02447509765625|139813.83193125|2.616628473387653|2.563276717622305|-1.332613747742807|1.87273645401001|-0.587710976600647|0.06235499307513237|0.05734226107597351|0.05034160614013672|-0.04492068290710449|XArbitraryZVertical|-0.773398427690871|0.02530235531581111|0.06275611979370019|0.630298754528667|0.1289670616388321|0.9717683792114258|0.1975706815719604|0|0|0|-1|-1|3
2021-04-22 21:37:08.175 +0100|139813.85688125|0.04718017578125|0.86016845703125|-0.1824493408203125|139813.85189125|2.505717913592164|2.444143285495625|-1.362296024098447|1.943082332611084|-0.495044469833374|0.1327864527702332|-0.05939805507659912|-0.07183301448822021|-0.2010602951049805|XArbitraryZVertical|-0.760762580085303|0.02385285735923027|0.06714950328047616|0.6451065564062285|0.1329449266195297|0.9783424139022827|0.1586573272943497|0|0|0|-1|-1|3
2021-04-22 21:37:08.196 +0100|139813.87684125|0.031005859375|0.9767303466796875|-0.2426300048828125|139813.87185125|2.366597549121422|2.298835982407871|-1.384986122946414|1.575665473937988|-0.3896137773990631|0.23850117623806|-0.0934288501739502|-0.1105944514274597|-0.3219492435455322|XArbitraryZVertical|-0.7489375570449907|0.02361272800045956|0.07131166461863891|0.6583690525638685|0.1379077434539795|0.9827868938446045|0.1229300498962402|0|0|0|-1|-1|3
2021-04-22 21:37:08.215 +0100|139813.89680125|-0.0519256591796875|1.17364501953125|-0.14898681640625|139813.89181125|2.204858839134082|2.131731398182058|-1.398989806285473|1.600803732872009|-0.3967552781105042|0.3859454989433289|-0.123020738363266|0.03368914127349854|-0.3320208787918091|XArbitraryZVertical|-0.7381589724061335|0.0244037228146371|0.07591048519093115|0.6698980580780138|0.1447640210390091|0.985277533531189|0.09094841778278351|0|0|0|-1|-1|3
2021-04-22 21:37:08.235 +0100|139813.91676125|-0.1105499267578125|1.293319702148438|-0.04461669921875|139813.91177125|1.98606618921387|1.909947439811249|-1.40671651654187|2.057457685470581|-0.1956000030040741|0.4946912229061127|-0.229816660284996|0.2300601005554199|-0.1834005117416382|XArbitraryZVertical|-0.7255614097629663|0.02705736601483349|0.08068749160776403|0.6828749776822529|0.154041051864624|0.9865691065788269|0.05434292182326317|0|0|0|-1|-1|3
2021-04-22 21:37:08.255 +0100|139813.93672125|-0.1320343017578125|1.288330078125|0.016815185546875|139813.93173125|1.70084048831076|1.626133809555583|-1.405941409993723|2.434994459152222|-0.06242266297340393|0.4817385971546173|-0.2786666452884674|0.3121572732925415|-0.03532075881958008|XArbitraryZVertical|-0.7096030775304087|0.03165248174928896|0.08428649186886149|0.6988258365233154|0.1638590544462204|0.9864421486854553|0.009076814167201519|0|0|0|-1|-1|3
2021-04-22 21:37:08.275 +0100|139813.95668125|-0.1884765625|1.195281982421875|0.0237884521484375|139813.95169125|1.43779727794253|1.366612274057553|-1.393716909223269|2.012509107589722|0.03895045816898346|0.3636648654937744|-0.3156239688396454|0.2897619009017944|0.05853170901536942|XArbitraryZVertical|-0.6933995375659757|0.03657493931451821|0.08670258546936968|0.7143822548251358|0.172496035695076|0.9843623638153076|-0.03571870923042297|0|0|0|-1|-1|3
2021-04-22 21:37:08.295 +0100|139813.97664125|-0.2195892333984375|1.169586181640625|-0.053253173828125|139813.97165125|1.270474550460201|1.203596902619894|-1.379856325186212|1.301727652549744|0.1308111399412155|0.1057488918304443|-0.3810045719146729|0.1978462934494019|0.07579374313354492|XArbitraryZVertical|-0.6814113290342344|0.04015300752311927|0.08721850990823334|0.7255752894495241|0.1771314144134521|0.9818262457847595|-0.0681326761841774|0|0|0|-1|-1|3
2021-04-22 21:37:08.315 +0100|139813.99660025|-0.1885528564453125|1.077972412109375|-0.053070068359375|139813.99161025|1.177334706357956|1.11612247862752|-1.372198249252278|0.6019735336303711|0.2740476727485657|-0.1351422816514969|-0.391805112361908|0.1754634976387024|0.01737214624881744|XArbitraryZVertical|-0.6744499684471835|0.04235862661060976|0.0854222650369845|0.7321379787246288|0.1772508025169373|0.9803441166877747|-0.08664597570896149|0|0|0|-1|-1|3
2021-04-22 21:37:08.335 +0100|139814.01656025|-0.110504150390625|0.9134674072265625|0.012054443359375|139814.01157025|1.151788756217521|1.098951976142808|-1.375902623988688|-0.2841779291629791|0.4817794859409332|-0.4362183213233948|-0.3463758826255798|0.05572092533111572|0.05212271958589554|XArbitraryZVertical|-0.67386610236|0.04349399957258251|0.08067366369041408|0.7331470584242671|0.1725014895200729|0.9810682535171509|-0.08802549540996552|0|0|0|-1|-1|3
2021-04-22 21:37:08.355 +0100|139814.03652025|-0.0147552490234375|0.897857666015625|0.0772705078125|139814.03153025|1.181484897969954|1.138611753718455|-1.391811421071799|-0.827527642250061|0.5619445443153381|-0.7452794909477234|-0.2486075013875961|-0.0951085090637207|0.1047221347689629|XArbitraryZVertical|-0.6788811018234596|0.04284403447357395|0.07303628174727893|0.7293495525609179|0.1616624593734741|0.9840249419212341|-0.07456967979669571|0|0|0|-1|-1|3
2021-04-22 21:37:08.375 +0100|139814.05648025|0.061553955078125|0.9058685302734375|-0.0033721923828125|139814.05149025|1.232100093472074|1.200056348124139|-1.414364237377427|-0.7138643860816956|0.582059383392334|-1.012679576873779|-0.1373993158340454|-0.07777023315429688|0.1187027096748352|XArbitraryZVertical|-0.6856642394930234|0.04051744521984631|0.06310554491069492|0.7240447476515983|0.145211324095726|0.9877894520759583|-0.05644577369093895|0|0|0|-1|-1|3
2021-04-22 21:37:08.395 +0100|139814.07644025|0.095611572265625|0.838592529296875|-0.0667572021484375|139814.07145025|1.25011816338159|1.228540560976387|-1.439258862009607|-0.4337170720100403|0.4801745712757111|-1.213653683662415|-0.0454893559217453|-0.09664672613143921|0.02258151397109032|XArbitraryZVertical|-0.6904133330968877|0.03633069239830926|0.05155507162296195|0.7206606746512989|0.1235528215765953|0.9913614392280579|-0.04401902109384537|0|0|0|-1|-1|3
2021-04-22 21:37:08.415 +0100|139814.09640025|0.03863525390625|0.7392120361328125|-0.1136932373046875|139814.09141025|1.236637284351251|1.223649614385437|-1.465804579877871|-0.327243447303772|0.3878840506076813|-1.339574098587036|-0.009941548109054565|-0.1837784647941589|-0.0545540452003479|XArbitraryZVertical|-0.6937213316586494|0.03038609160467606|0.03955704097134125|0.7185143010194689|0.09854880720376968|0.9944934248924255|-0.03565479815006256|0|0|0|-1|-1|3
2021-04-22 21:37:08.435 +0100|139814.11636025|-0.0250396728515625|0.74029541015625|-0.16009521484375|139814.11137025|1.209367407208649|1.203876674683655|-1.494253695441472|-0.422024130821228|0.372090071439743|-1.406355857849121|-0.04928524047136307|-0.2658096551895142|-0.07962179183959961|XArbitraryZVertical|-0.6969496174239131|0.02334163744130987|0.02722132166111342|0.7162230943346952|0.0713794156908989|0.9970720410346985|-0.02743279747664928|0|0|0|-1|-1|3
