loggingTime(txt)|accelerometerTimestamp_sinceReboot(s)|accelerometerAccelerationX(G)|accelerometerAccelerationY(G)|accelerometerAccelerationZ(G)|motionTimestamp_sinceReboot(s)|motionYaw(rad)|motionRoll(rad)|motionPitch(rad)|motionRotationRateX(rad/s)|motionRotationRateY(rad/s)|motionRotationRateZ(rad/s)|motionUserAccelerationX(G)|motionUserAccelerationY(G)|motionUserAccelerationZ(G)|motionAttitudeReferenceFrame(txt)|motionQuaternionX(R)|motionQuaternionY(R)|motionQuaternionZ(R)|motionQuaternionW(R)|motionGravityX(G)|motionGravityY(G)|motionGravityZ(G)|motionMagneticFieldX(µT)|motionMagneticFieldY(µT)|motionMagneticFieldZ(µT)|motionHeading(°)|motionMagneticFieldCalibrationAccuracy(Z)|label
2021-04-08 20:00:56.817 +0100|19186.73920225|-0.131988525390625|-0.474395751953125|-0.869384765625|19186.71924125|1.00644302500248|-0.1185453963939368|0.4639104431526813|-0.07845516502857208|0.07029399275779724|-0.1221850365400314|-0.0371452197432518|0.01974561810493469|0.01286476850509644|XArbitraryZVertical|0.2288321117143151|0.0601607013564762|0.4565811877245922|0.8576422560678805|-0.105768159031868|-0.4474486708641052|-0.8880330920219421|0|0|0|-1|-1|3
2021-04-08 20:00:56.818 +0100|19186.75916325|-0.0474395751953125|-0.4124908447265625|-0.8945159912109375|19186.73920225|1.003965489452677|-0.1150455999240625|0.4654334073289222|-0.04004184529185295|0.2390366643667221|-0.1374447792768478|-0.0110047459602356|-0.02653083205223083|-0.004477262496948242|XArbitraryZVertical|0.2287526729482035|0.06174366099957795|0.4557967066433699|0.85796818982733|-0.1025812327861786|-0.4488101601600647|-0.8877198696136475|0|0|0|-1|-1|3
2021-04-08 20:00:56.819 +0100|19186.77912325|-0.1018524169921875|-0.4575958251953125|-0.8586883544921875|19186.75916325|1.001481722691824|-0.1094362190498464|0.4672490195926192|0.1976852864027023|0.06089655309915543|-0.07099570333957672|0.02965553104877472|0.03089231252670288|-0.00317084789276123|XArbitraryZVertical|0.228321026408554|0.06430064707630181|0.4552279323544448|0.8581973215798728|-0.0975109338760376|-0.4504318833351135|-0.8874698877334595|0|0|0|-1|-1|3
2021-04-08 20:00:56.820 +0100|19186.79908425|-0.0560760498046875|-0.4859619140625|-0.891845703125|19186.77912325|1.000026773991612|-0.1079237355338643|0.470607752280451|0.1213549748063087|0.02439532056450844|-0.08759208023548126|-0.003313988447189331|9.02712345123291e-05|0.02140641212463379|XArbitraryZVertical|0.2294451753394688|0.06558423963952117|0.4545119904738772|0.8581797529173626|-0.09600502997636795|-0.4534280598163605|-0.8861072659492493|0|0|0|-1|-1|3
2021-04-08 20:00:56.832 +0100|19186.81904525|-0.082000732421875|-0.5026397705078125|-0.8801727294921875|19186.79908425|0.9988069301423229|-0.1081019481994033|0.4718848408465177|0.05279696732759476|-0.07219748198986053|-0.05912306904792786|0.0212412104010582|-0.01723501086235046|-0.0007629990577697754|XArbitraryZVertical|0.2300659859733207|0.06567175088410526|0.453867280168089|0.8583481488095407|-0.09610039740800858|-0.4545659422874451|-0.8855137228965759|0|0|0|-1|-1|3
2021-04-08 20:00:56.852 +0100|19186.83900625|-0.10101318359375|-0.4917144775390625|-0.886260986328125|19186.81904525|0.99781468237075|-0.10970515162082|0.4710775318782476|-0.0765719935297966|-0.06243268027901649|-0.06733794510364532|0.02663765102624893|-0.04892957210540771|0.004420638084411621|XArbitraryZVertical|0.2301203049773405|0.06467732250893031|0.4533207425740859|0.8586977403665095|-0.09756007045507431|-0.4538467228412628|-0.8857229948043823|0|0|0|-1|-1|3
2021-04-08 20:00:56.872 +0100|19186.85896725|-0.0917816162109375|-0.470428466796875|-0.8878173828125|19186.83900625|0.9962878862549184|-0.1101646065856492|0.4676701595406776|-0.2546780407428741|-0.02671921066939831|-0.04450586438179016|0.003089897334575653|-0.04552921652793884|0.002626955509185791|XArbitraryZVertical|0.2288306022015927|0.0634946068859297|0.4528813203246643|0.8593623397308353|-0.09813646227121353|-0.4508078396320343|-0.887209951877594|0|0|0|-1|-1|3
2021-04-08 20:00:56.892 +0100|19186.87892825|-0.0971221923828125|-0.4488067626953125|-0.893402099609375|19186.85896725|0.9946634395281406|-0.1093260492581915|0.4619840377222851|-0.2969889342784882|0.00478252349421382|-0.01906140148639679|0.004195645451545715|-0.03109604120254517|-0.0007082819938659668|XArbitraryZVertical|0.2262817210952752|0.0623198093771348|0.4527238907636684|0.8602058066062596|-0.09767055511474609|-0.4457250237464905|-0.8898256421089172|0|0|0|-1|-1|3
2021-04-08 20:00:56.912 +0100|19186.89888925|-0.08831787109375|-0.436737060546875|-0.895263671875|19186.87892825|0.9937049755706516|-0.1081366890600117|0.4567918727286721|-0.2510934770107269|0.06702064722776413|-0.007755395025014877|0.003309428691864014|-0.0149368941783905|0.002275824546813965|XArbitraryZVertical|0.2238387656845279|0.06149174924974085|0.4528475227379317|0.8608392810291983|-0.09686063230037689|-0.4410711824893951|-0.8922299146652222|0|0|0|-1|-1|3
2021-04-08 20:00:56.932 +0100|19186.91885025|-0.092254638671875|-0.426605224609375|-0.895416259765625|19186.89888925|0.9923950157848447|-0.1052371240907427|0.4544314688548831|-0.1334360241889954|0.09930013120174408|-0.03372139111161232|0.001059934496879578|0.001269280910491943|-0.005828857421875|XArbitraryZVertical|0.2222200715784006|0.06203460074886723|0.4527875974938097|0.8612510900821897|-0.09438224881887436|-0.4389515519142151|-0.8935399055480957|0|0|0|-1|-1|3
2021-04-08 20:00:56.952 +0100|19186.93881125|-0.0894775390625|-0.4288177490234375|-0.892303466796875|19186.91885025|0.9913089497242823|-0.1024610532064439|0.4537098604123011|-0.07151802629232407|0.1264614462852478|-0.04522429779171944|-0.0001526102423667908|0.01078316569328308|0.0009549260139465332|XArbitraryZVertical|0.2213188168606835|0.06293900556858675|0.4526823094740726|0.8614728808340539|-0.09193373471498489|-0.4383030533790588|-0.894113302230835|0|0|0|-1|-1|3
2021-04-08 20:00:56.972 +0100|19186.95877225|-0.0713958740234375|-0.4316253662109375|-0.8923797607421875|19186.93881125|0.9897908116238658|-0.09954206541126211|0.4537577606764303|-0.02743535488843918|0.1172344982624054|-0.09906692802906036|-0.001132309436798096|0.0103989839553833|-0.0006019473075866699|XArbitraryZVertical|0.2207269363332474|0.06404003334998823|0.452347275807857|0.861719590964395|-0.08932135254144669|-0.4383461177349091|-0.8943569660186768|0|0|0|-1|-1|3
2021-04-08 20:00:56.992 +0100|19186.97873225|-0.0643463134765625|-0.4495849609375|-0.89453125|19186.95877225|0.9871825523581638|-0.09622068889547139|0.4541065855232603|-0.009904531762003899|0.1019595116376877|-0.1316899359226227|0.01004216820001602|0.01072773337364197|0.001612722873687744|XArbitraryZVertical|0.2202092016041318|0.06526613519475627|0.4515633932438693|0.8621711113979038|-0.0863356739282608|-0.4386596083641052|-0.8944965004920959|0|0|0|-1|-1|3
2021-04-08 20:00:57.012 +0100|19186.99869325|-0.07183837890625|-0.4488983154296875|-0.89898681640625|19186.97873225|0.9845116115484224|-0.09340848277249122|0.453630777756376|-0.06622769683599472|0.07997182011604309|-0.09749416261911392|0.01990539580583572|-0.00907859206199646|0.006011664867401123|XArbitraryZVertical|0.2194597618387933|0.06607346516733746|0.4507557304979926|0.8627230658954564|-0.08383928239345551|-0.4382319748401642|-0.8949434161186218|0|0|0|-1|-1|3
2021-04-08 20:00:57.032 +0100|19187.01865425|-0.062896728515625|-0.444061279296875|-0.8936767578125|19186.99869325|0.9825892590333527|-0.09117960848875326|0.4513655130100149|-0.1461391746997833|0.08098046481609344|-0.06246160715818405|0.01249222457408905|-0.01364880800247192|-0.004414021968841553|XArbitraryZVertical|0.2180548758571359|0.06629399726125884|0.4503347531456377|0.8632820458038905|-0.08193454146385193|-0.4361946880817413|-0.8961143493652344|0|0|0|-1|-1|3
2021-04-08 20:00:57.052 +0100|19187.03861525|-0.051910400390625|-0.4570465087890625|-0.8811798095703125|19187.01865425|0.9811248505203514|-0.0892769980999023|0.448650127140038|-0.1266249567270279|0.05873486399650574|-0.06380943208932877|0.01356273144483566|-0.008418679237365723|0.001768946647644043|XArbitraryZVertical|0.2165155999979652|0.06632103527718984|0.4501044798868348|0.8637873181261819|-0.08033474534749985|-0.43374964594841|-0.897445023059845|0|0|0|-1|-1|3
2021-04-08 20:00:57.072 +0100|19187.05857625|-0.054840087890625|-0.4386749267578125|-0.8710479736328125|19187.03861525|0.9795187681410782|-0.08779359116530602|0.4460286983380903|-0.1583517491817474|0.02184933796525002|-0.06006049737334251|0.02612472325563431|-0.02433198690414429|0.01204991340637207|XArbitraryZVertical|0.2151146549596863|0.06617615373579144|0.449757292936077|0.8643291899763902|-0.07910280674695969|-0.4313861727714539|-0.898692786693573|0|0|0|-1|-1|3
2021-04-08 20:00:57.092 +0100|19187.07853725|-0.0785675048828125|-0.431640625|-0.848968505859375|19187.05857625|0.9776673496431063|-0.08687708773356931|0.4429866464747318|-0.1690001338720322|-0.02599328570067883|-0.07104630023241043|0.02802378684282303|-0.01635143160820007|0.03062188625335693|XArbitraryZVertical|0.2136682982434041|0.06566438225402878|0.4492697393051868|0.8649802005221782|-0.07839261740446091|-0.4286397397518158|-0.9000681042671204|0|0|0|-1|-1|3
2021-04-08 20:00:57.112 +0100|19187.09849825|-0.082855224609375|-0.4434814453125|-0.83160400390625|19187.07853725|0.9752632354658421|-0.0860707762637388|0.4404481917470813|-0.1539962440729141|-0.005854354705661535|-0.112044520676136|0.002733111381530762|-0.004760801792144775|0.04563617706298828|XArbitraryZVertical|0.2124789118504177|0.06516616072425779|0.4484930153753146|0.8657136500026993|-0.07776014506816864|-0.4263449311256409|-0.9012121558189392|0|0|0|-1|-1|3
2021-04-08 20:00:57.132 +0100|19187.11845925|-0.1212005615234375|-0.3073577880859375|-0.806610107421875|19187.09849825|0.9723345515665167|-0.08470292184484321|0.437921577937472|-0.1621751189231873|0.006704580504447222|-0.1148910820484161|-0.005534648895263672|-0.0174998939037323|0.06545841693878174|XArbitraryZVertical|0.2111844983322695|0.06486157766277481|0.4475447212037797|0.8665436623282881|-0.07661823928356171|-0.4240580797195435|-0.9023881554603577|0|0|0|-1|-1|3
2021-04-08 20:00:57.152 +0100|19187.13842025|-0.1751556396484375|-0.5101776123046875|-0.748504638671875|19187.11845925|0.9750709736848532|-0.08699172841343233|0.4408131174341058|0.3283695578575134|-0.1092069447040558|0.1315835863351822|-0.01372342556715012|0.07454875111579895|0.07470601797103882|XArbitraryZVertical|0.2128479605209951|0.06483189741041366|0.4482863671232571|0.8657552581171771|-0.07857656478881836|-0.4266749918460846|-0.9009851217269897|0|0|0|-1|-1|3
2021-04-08 20:00:57.172 +0100|19187.15838125|-0.123046875|-0.54803466796875|-0.7182464599609375|19187.13842025|0.9704285519096362|-0.08350816819957085|0.4455754628414847|0.0281502939760685|0.1658844351768494|-0.410941481590271|-0.08566690981388092|-0.05403777956962585|0.1159842014312744|XArbitraryZVertical|0.2142630833671394|0.06694912546023808|0.4463162340291082|0.8662627713749507|-0.07526711374521255|-0.4309772253036499|-0.8992183208465576|0|0|0|-1|-1|3
2021-04-08 20:00:57.192 +0100|19187.17834125|-0.1793212890625|-0.465087890625|-0.687591552734375|19187.15838125|0.9623893070067842|-0.07582414513804135|0.4427424296847825|-0.4824077486991882|0.1780296117067337|-0.3405804634094238|-0.06056506931781769|-0.1335307359695435|0.1723915934562683|XArbitraryZVertical|0.2116090616319672|0.06877236389222351|0.4438422863605623|0.8680415402748763|-0.06844756007194519|-0.4284190833568573|-0.9009839296340942|0|0|0|-1|-1|3
2021-04-08 20:00:57.212 +0100|19187.19830225|-0.1934967041015625|-0.4016265869140625|-0.677703857421875|19187.17834125|0.95206017431544|-0.06837693590353049|0.4288138316658389|-0.9434717297554016|0.1774497926235199|-0.4963489174842834|-0.1046405285596848|-0.06945154070854187|0.2113806009292603|XArbitraryZVertical|0.2043074512975905|0.06775898645441154|0.4410356242402807|0.8712948719847367|-0.06213761493563652|-0.415792316198349|-0.9073343873023987|0|0|0|-1|-1|3
2021-04-08 20:00:57.232 +0100|19187.218264625|-0.1474609375|-0.3702850341796875|-0.696197509765625|19187.19830225|0.9389811671724931|-0.05863271961139552|0.4084826070536833|-1.138085842132568|0.2592821717262268|-0.5760520696640015|-0.1410001665353775|-0.01565417647361755|0.2419223189353943|XArbitraryZVertical|0.1937868588127833|0.06612753549688548|0.4375359879206357|0.8755776472409902|-0.05377786606550217|-0.3972172439098358|-0.9161475896835327|0|0|0|-1|-1|3
2021-04-08 20:00:57.252 +0100|19187.238225625|-0.09478759765625|-0.3565521240234375|-0.7122650146484375|19187.218264625|0.9235171921633407|-0.04677138347996167|0.3847812427526232|-1.326197028160095|0.3170035779476166|-0.7240862250328064|-0.119948223233223|0.001196503639221191|0.2310728430747986|XArbitraryZVertical|0.18135992847469|0.06461503295559418|0.4331808877051418|0.8805042875387464|-0.0433356836438179|-0.3753563761711121|-0.925866961479187|0|0|0|-1|-1|3
2021-04-08 20:00:57.272 +0100|19187.258186625|-0.0712432861328125|-0.3223114013671875|-0.7474517822265625|19187.238225625|0.9053445992269269|-0.03414239425668566|0.3558423648555288|-1.656965255737305|0.2807765007019043|-0.8517938256263733|-0.07200624048709869|-0.01264193654060364|0.2314539551734924|XArbitraryZVertical|0.1664834117092654|0.06228748938470598|0.4276861626398366|0.8862777516676994|-0.03199727088212967|-0.3483800888061523|-0.9368070960044861|0|0|0|-1|-1|3
2021-04-08 20:00:57.292 +0100|19187.278147625|-0.0193023681640625|-0.257354736328125|-0.7768402099609375|19187.258186625|0.8851204864903736|-0.02209356261442705|0.3193374240112504|-2.051299571990967|0.2668401300907135|-0.9534403085708618|-0.0562494695186615|-0.02099192142486572|0.210228443145752|XArbitraryZVertical|0.1483354376537675|0.05822916415877374|0.4211941481288772|0.8928614389774054|-0.02097488567233086|-0.3139375448226929|-0.9492118954658508|0|0|0|-1|-1|3
2021-04-08 20:00:57.312 +0100|19187.298108625|0.076904296875|-0.1823883056640625|-0.840911865234375|19187.278147625|0.8634213462739969|-0.0101764960580147|0.2747303845109635|-2.453567504882812|0.2957032024860382|-1.056917309761047|-0.02687182277441025|-0.002683132886886597|0.1967775225639343|XArbitraryZVertical|0.1264774896410312|0.0527178476069341|0.4138454458907764|0.8999758008194255|-0.009794691577553749|-0.2712874412536621|-0.9624485373497009|0|0|0|-1|-1|3
2021-04-08 20:00:57.332 +0100|19187.318069625|0.1350860595703125|-0.10662841796875|-0.9036712646484375|19187.298108625|0.8404202456449784|0.001814117923276136|0.2223411628545263|-2.781566858291626|0.3241654634475708|-1.165403842926025|0.05087369680404663|0.01581808924674988|0.1444951891899109|XArbitraryZVertical|0.1009223616076924|0.04608194299357259|0.4055256687599942|0.9073258560904267|0.001769460388459265|-0.2205137610435486|-0.9753822684288025|0|0|0|-1|-1|3
2021-04-08 20:00:57.352 +0100|19187.338030625|0.096099853515625|-0.0470123291015625|-0.9272918701171875|19187.318069625|0.8155973369955803|0.01250937736051564|0.1648559992762342|-2.921895265579224|0.2571503520011902|-1.306841135025024|0.1158652082085609|0.04332272708415985|0.1008971333503723|XArbitraryZVertical|0.07310933370733054|0.038374671326069|0.3957079369120228|0.9146572230163791|0.01233945321291685|-0.1641102880239487|-0.9863648414611816|0|0|0|-1|-1|3
2021-04-08 20:00:57.372 +0100|19187.357990625|0.0435028076171875|0.0138397216796875|-0.9754638671875|19187.338030625|0.7893873300331583|0.02008615001250307|0.1056060967779015|-2.957714796066284|0.17204949259758|-1.370173096656799|0.09144706279039383|0.04060688614845276|0.06908780336380005|XArbitraryZVertical|0.04486177651230874|0.02955147991750724|0.3844593879493446|0.9215776429676897|0.0199729036539793|-0.1054099053144455|-0.9942282438278198|0|0|0|-1|-1|3
2021-04-08 20:00:57.391 +0100|19187.377951625|0.0478973388671875|0.0784454345703125|-0.9977874755859375|19187.357990625|0.7639510855777082|0.02584125289662154|0.04657646558371258|-2.889118432998657|0.2297905534505844|-1.279462218284607|0.02518478035926819|0.04692690819501877|0.03489786386489868|XArbitraryZVertical|0.01679131396851039|0.02066512975815282|0.3729013224614924|0.9274890218533826|0.02581035532057285|-0.04655962809920311|-0.9985820055007935|0|0|0|-1|-1|3
2021-04-08 20:00:57.412 +0100|19187.397912625|0.037811279296875|0.12786865234375|-1.015716552734375|19187.377951625|0.741356646362978|0.03120227708349091|-0.01025900447236116|-2.705619096755981|0.251360684633255|-1.175310134887695|0.01294834166765213|0.04867170378565788|-0.0009970664978027344|XArbitraryZVertical|-0.01043168616708096|0.01268283998706909|0.3621243186012368|0.9319851931491863|0.03119557350873947|0.01025882456451654|-0.9994606375694275|0|0|0|-1|-1|3
2021-04-08 20:00:57.431 +0100|19187.417873625|-0.0058746337890625|0.1472015380859375|-1.039886474609375|19187.397912625|0.7195759876472727|0.03495958165640526|-0.06162911903892083|-2.389320373535156|0.213819146156311|-1.179010272026062|0.01127194613218307|0.05594943091273308|-0.01167881488800049|XArbitraryZVertical|-0.03498355259361714|0.005506300857899468|0.3513508440754965|0.9355739447051207|0.03488610312342644|0.06159011274576187|-0.9974916577339172|0|0|0|-1|-1|3
2021-04-08 20:00:57.451 +0100|19187.437834625|-0.0223236083984375|0.1534271240234375|-1.051727294921875|19187.417873625|0.6972846864839171|0.03796552454019872|-0.1086523767746006|-2.256101846694946|0.2940187454223633|-1.212909460067749|-0.03532150760293007|0.03888598829507828|-0.03986197710037231|XArbitraryZVertical|-0.05749844596175992|-0.00073323528444478|0.3400879755022639|0.9386340137029424|0.03773258253931999|0.1084387227892876|-0.9933868050575256|0|0|0|-1|-1|3
2021-04-08 20:00:57.471 +0100|19187.457795625|0.0030059814453125|0.19110107421875|-1.061904907226562|19187.437834625|0.6745145445605982|0.04204837479680604|-0.1554972534895018|-2.378831386566162|0.422712504863739|-1.232365012168884|-0.06420321017503738|-0.001687288284301758|-0.06097310781478882|XArbitraryZVertical|-0.08021399598259522|-0.005917017113261176|0.3282867168324077|0.9411475782593184|0.04152880609035492|0.1548713743686676|-0.9870613813400269|0|0|0|-1|-1|3
2021-04-08 20:00:57.491 +0100|19187.477756625|0.0013427734375|0.2847900390625|-1.032241821289062|19187.457795625|0.6517710164986268|0.04759934293872078|-0.2073589793810338|-2.715981483459473|0.5261094570159912|-1.235345363616943|-0.04906439408659935|-0.02719464898109436|-0.07901811599731445|XArbitraryZVertical|-0.1055967122199851|-0.01070008723241845|0.3160051761929015|0.9428021287135711|0.04656208679080009|0.2058761715888977|-0.9774696826934814|0|0|0|-1|-1|3
2021-04-08 20:00:57.511 +0100|19187.497717625|-0.0095062255859375|0.411468505859375|-1.01727294921875|19187.477756625|0.6298636653932725|0.05328069420778205|-0.2648447916793281|-2.890079021453857|0.5570580959320068|-1.176742076873779|-0.04703452810645103|-0.008706659078598022|-0.07481032609939575|XArbitraryZVertical|-0.1336759960717858|-0.01577839413615244|0.3035867295481676|0.9432480769661387|0.05139863863587379|0.2617594599723816|-0.9637635350227356|0|0|0|-1|-1|3
2021-04-08 20:00:57.531 +0100|19187.517678625|0.0236358642578125|0.5162353515625|-1.034683227539062|19187.497717625|0.6094981246682789|0.05913765410353037|-0.3231077814567807|-2.790870904922485|0.6240308880805969|-1.10479736328125|-0.06501688063144684|0.06085824966430664|-0.07069224119186401|XArbitraryZVertical|-0.1621287037755988|-0.02040814366424301|0.2914807968420515|0.9425162908767336|0.05604479089379311|0.3175150454044342|-0.9465956091880798|0|0|0|-1|-1|3
2021-04-08 20:00:57.551 +0100|19187.537639625|0.0843048095703125|0.566162109375|-1.027420043945312|19187.517678625|0.5906237306456896|0.06559236022963706|-0.3773377448247649|-2.493237733840942|0.6622217297554016|-0.9985226392745972|-0.04939845576882362|0.1252371072769165|-0.1031268239021301|XArbitraryZVertical|-0.1887100886962419|-0.02374113144129429|0.2798362786625682|0.9410189946384664|0.06093414500355721|0.3684468269348145|-0.9276497364044189|0|0|0|-1|-1|3
2021-04-08 20:00:57.571 +0100|19187.557599625|0.099365234375|0.5757904052734375|-1.051528930664062|19187.537639625|0.5736206457736114|0.07144076480361995|-0.4240188606248997|-2.031953573226929|0.569426417350769|-0.8801279664039612|0.003819398581981659|0.1466187834739685|-0.1167910099029541|XArbitraryZVertical|-0.2115771114897423|-0.02600296077591982|0.269175976642246|0.9392036310860112|0.06505879759788513|0.4114267230033875|-0.9091179370880127|0|0|0|-1|-1|3
2021-04-08 20:00:57.591 +0100|19187.577560625|0.1412506103515625|0.586669921875|-1.057464599609375|19187.557599625|0.5590187625759356|0.07508581438675525|-0.4604403454470756|-1.518466830253601|0.4506314098834991|-0.7116665244102478|0.03805217146873474|0.1375828683376312|-0.1497423052787781|XArbitraryZVertical|-0.2292632483855996|-0.02778457582545864|0.2601833571421943|0.9375346269970138|0.06720296293497086|0.4443426430225372|-0.8933327794075012|0|0|0|-1|-1|3
2021-04-08 20:00:57.611 +0100|19187.597521625|0.1649169921875|0.519500732421875|-1.0760498046875|19187.577560625|0.546325801219631|0.07698531925454172|-0.4857556566130175|-0.9644412398338318|0.3226854503154755|-0.6195688843727112|0.06620368361473083|0.1185430288314819|-0.1746317744255066|XArbitraryZVertical|-0.2414856052854903|-0.02886414329485396|0.2527544783672304|0.9364650395115125|0.06801261752843857|0.466876745223999|-0.8817031383514404|0|0|0|-1|-1|3
2021-04-08 20:00:57.645 +0100|19187.617482625|0.16021728515625|0.4300079345703125|-1.0440673828125|19187.617482625|0.5239870795245893|0.07445639371862024|-0.5147517734444627|-0.5236630439758301|0.07882089912891388|-0.4612388908863068|0.0939890444278717|-0.05162867903709412|-0.1919173002243042|XArbitraryZVertical|-0.2550097935419007|-0.03111743550485512|0.2411509290817093|0.9358676004255995|0.06474810093641281|0.4923188090324402|-0.8680034279823303|0|0|0|-1|-1|3
2021-04-08 20:00:57.651 +0100|19187.637443625|0.17218017578125|0.497589111328125|-1.029876708984375||||||||||||||||||||||||3
2021-04-08 20:00:57.671 +0100|19187.657404625|0.14703369140625|0.5914154052734375|-1.070037841796875|19187.637443625|0.5161989118521683|0.07059016511077133|-0.5238180778931129|-0.2635396420955658|-0.07751421630382538|-0.2908198833465576|0.110068142414093|-0.02860075235366821|-0.1608068346977234|XArbitraryZVertical|-0.2588924011722052|-0.03309234261178842|0.2375511616544655|0.9356544616245337|0.0610743835568428|0.5001899003982544|-0.8637592196464539|0|0|0|-1|-1|3
2021-04-08 20:00:57.691 +0100|19187.677365625|0.108245849609375|0.6154632568359375|-1.029266357421875|19187.657404625|0.5106539728853811|0.06480768414573899|-0.5225223344174371|0.4845230877399445|-0.2083069980144501|-0.1908032447099686|0.1027385592460632|0.07484710216522217|-0.2024856805801392|XArbitraryZVertical|-0.2576989317072716|-0.034918189858124|0.2357659130954548|0.9363687386323192|0.05612064525485039|0.499067485332489|-0.8647439479827881|0|0|0|-1|-1|3
2021-04-08 20:00:57.711 +0100|19187.697326625|0.11163330078125|0.5733642578125|-1.018386840820312|19187.677365625|0.5057573622330105|0.05796244921538427|-0.5053041748429293|1.239725589752197|-0.2370187044143677|-0.1265458613634109|0.06518486142158508|0.1345339715480804|-0.1635357141494751|XArbitraryZVertical|-0.2489407066792814|-0.03535004013414566|0.2351343783872459|0.9388773953571812|0.05069033056497574|0.4840736091136932|-0.8735578060150146|0|0|0|-1|-1|3
2021-04-08 20:00:57.731 +0100|19187.717287625|0.10809326171875|0.4815673828125|-0.96484375|19187.697326625|0.50212089157012|0.05105775976606185|-0.4747791146183994|1.786597371101379|-0.2846293747425079|-0.02650395967066288|0.065601646900177|0.1330689787864685|-0.1344545483589172|XArbitraryZVertical|-0.2338830136312406|-0.0343711725645332|0.2355707016970336|0.9426685481281094|0.04539072513580322|0.4571419954299927|-0.8882347345352173|0|0|0|-1|-1|3
2021-04-08 20:00:57.751 +0100|19187.737247625|0.0831756591796875|0.4091033935546875|-0.96331787109375|19187.717287625|0.5003595391351704|0.04412875524305456|-0.4363872188396398|2.017623424530029|-0.3395957946777344|0.04857205972075462|0.07090534269809723|0.08151394128799438|-0.0717395544052124|XArbitraryZVertical|-0.2150089975426688|-0.03271037244028797|0.2370220855200615|0.9468484248578561|0.03998023271560669|0.4226680099964142|-0.9054023027420044|0|0|0|-1|-1|3
2021-04-08 20:00:57.771 +0100|19187.757208625|0.0381927490234375|0.3410797119140625|-0.9389190673828125|19187.737247625|0.5005870691960354|0.0369390391615594|-0.3961299524294158|1.980882525444031|-0.3833843469619751|0.1232052892446518|0.06012168526649475|0.03999248147010803|-0.04268258810043335|XArbitraryZVertical|-0.1950934919129545|-0.03118677280528168|0.2392835638253702|0.9506363262487837|0.03407077491283417|0.3858508765697479|-0.9219318032264709|0|0|0|-1|-1|3
2021-04-08 20:00:57.791 +0100|19187.777169625|0.018402099609375|0.310638427734375|-0.9154815673828125|19187.757208625|0.5022290672358112|0.03003519442747595|-0.3584096161144856|1.778970122337341|-0.359336793422699|0.1639437526464462|0.0219416432082653|0.007888823747634888|-0.005707979202270508|XArbitraryZVertical|-0.176308888846366|-0.02997341446209818|0.2418840290828127|0.9536818445681989|0.02812240645289421|0.3507853448390961|-0.9360335469245911|0|0|0|-1|-1|3
2021-04-08 20:00:57.811 +0100|19187.797130625|0.02093505859375|0.28741455078125|-0.9106903076171875|19187.777169625|0.5055137874684017|0.0245219167037811|-0.3256509482216854|1.473779082298279|-0.3026899099349976|0.2262769937515259|-0.001593846827745438|-0.006325870752334595|0.02520692348480225|XArbitraryZVertical|-0.1599699822235786|-0.02882163723774669|0.2448235675201729|0.9558454447710083|0.0232307817786932|0.3199255764484406|-0.9471578598022461|0|0|0|-1|-1|3
2021-04-08 20:00:57.831 +0100|19187.817091625|0.0244598388671875|0.273345947265625|-0.8952484130859375|19187.797130625|0.5096338701599733|0.02034882886962587|-0.2990347282840286|1.189054489135742|-0.2479875236749649|0.2259952276945114|-0.001957887783646584|0.001362621784210205|0.04297876358032227|XArbitraryZVertical|-0.1466793883876857|-0.02781050361195792|0.2477764120785113|0.9572453884543398|0.01944443210959435|0.2945979237556458|-0.9554234743118286|0|0|0|-1|-1|3
2021-04-08 20:00:57.851 +0100|19187.837052625|0.0117340087890625|0.2711029052734375|-0.891937255859375|19187.817091625|0.5139080121944107|0.0165652248335789|-0.2775432151064481|0.963969349861145|-0.2575649917125702|0.2195880115032196|0.009215893223881721|0.0001315176486968994|0.06290298700332642|XArbitraryZVertical|-0.1358652252246029|-0.02721894873417221|0.2505759281293309|0.9581292171358449|0.01593057066202164|0.2739937007427216|-0.9615995287895203|0|0|0|-1|-1|3
2021-04-08 20:00:57.871 +0100|19187.857013625|-0.002349853515625|0.2777862548828125|-0.902557373046875|19187.837052625|0.5180337186558504|0.01259877368334598|-0.2605419697603039|0.7275896668434143|-0.2430036813020706|0.204718604683876|0.002795606851577759|0.01436951756477356|0.07451152801513672|XArbitraryZVertical|-0.1271668512552726|-0.02723377041134839|0.2531640041347377|0.9586423077959071|0.01217324938625097|0.2576042711734772|-0.9661738276481628|0|0|0|-1|-1|3
2021-04-08 20:00:57.891 +0100|19187.876974625|-0.0219268798828125|0.288482666015625|-0.90185546875|19187.857013625|0.5221060836526945|0.009094220418007068|-0.2479225442036626|0.5431731939315796|-0.219389334321022|0.1970816403627396|-0.00945691391825676|0.02870418131351471|0.06327182054519653|XArbitraryZVertical|-0.1206181724916912|-0.02755262657876357|0.2555717397457158|0.9588406286685126|0.008816036395728588|0.2453905493021011|-0.9693841934204102|0|0|0|-1|-1|3
2021-04-08 20:00:57.911 +0100|19187.896934625|-0.031982421875|0.2838897705078125|-0.9039306640625|19187.876974625|0.5256616825036472|0.005829176582665106|-0.2383391767792135|0.4127112030982971|-0.1804879456758499|0.1600879281759262|-0.02185394242405891|0.05215054750442505|0.07135510444641113|XArbitraryZVertical|-0.1155563123366762|-0.02809417030607459|0.2576368051554504|0.958895665800633|0.005664362106472254|0.2360890805721283|-0.9717149138450623|0|0|0|-1|-1|3
2021-04-08 20:00:57.931 +0100|19187.916895625|-0.0322265625|0.26727294921875|-0.8958587646484375|19187.896934625|0.5287811019135552|0.003643010480456881|-0.2321403527896468|0.2106669396162033|-0.1111057251691818|0.142518162727356|-0.03415441513061523|0.05796502530574799|0.07447314262390137|XArbitraryZVertical|-0.1122581707729445|-0.02851708463862509|0.2593586637454324|0.9588107570259781|0.00354528333991766|0.2300609946250916|-0.97316974401474|0|0|0|-1|-1|3
2021-04-08 20:00:57.951 +0100|19187.936856625|-0.040679931640625|0.24725341796875|-0.9043731689453125|19187.916895625|0.5312460511993501|0.002636177919855199|-0.2293309426546403|0.06439881026744843|-0.0461379662156105|0.09957665205001831|-0.03493104502558708|0.0427403599023819|0.07554596662521362|XArbitraryZVertical|-0.1107453852463325|-0.02877142508217718|0.2606408462397056|0.9586314421609836|0.002567156450822949|0.2273260354995728|-0.9738153219223022|0|0|0|-1|-1|3
2021-04-08 20:00:57.970 +0100|19187.956817625|-0.037689208984375|0.2222747802734375|-0.88702392578125|19187.936856625|0.5326233151984857|0.003039475271964298|-0.2298158621219421|-0.1148072928190231|0.06347939372062683|0.02306128479540348|-0.04191524162888527|0.02771128714084625|0.06879693269729614|XArbitraryZVertical|-0.1110106046967564|-0.02871784712354499|0.261270952815354|0.958430741040584|0.002959557808935642|0.2277982234954834|-0.9737038612365723|0|0|0|-1|-1|3
2021-04-08 20:00:57.991 +0100|19187.976778625|-0.0419158935546875|0.2191314697265625|-0.8827667236328125|19187.976778625|0.5311380371438215|0.008412244621896008|-0.2426626469503705|-0.490709125995636|0.2221831828355789|-0.07677627354860306|-0.04654153436422348|-0.02388685941696167|0.08674114942550659|XArbitraryZVertical|-0.1178855797301227|-0.02773724345163251|0.2600353372458993|0.957974607479226|0.008165683597326279|0.240288108587265|-0.9706672430038452|0|0|0|-1|-1|3
2021-04-08 20:00:58.011 +0100|19187.996739625|-0.04248046875|0.22845458984375|-0.8740081787109375||||||||||||||||||||||||3
2021-04-08 20:00:58.030 +0100|19188.016700625|-0.027557373046875|0.2190399169921875|-0.85760498046875|19187.996739625|0.5292244383235715|0.01311570534219606|-0.2542081375623238|-0.6690951585769653|0.2936020791530609|-0.1241768151521683|-0.05775304883718491|-0.02384737133979797|0.08923977613449097|XArbitraryZVertical|-0.1240486494722151|-0.02687351646292912|0.2586173035685163|0.9576047852768272|0.01269383821636438|0.2514790594577789|-0.9677795171737671|0|0|0|-1|-1|3
2021-04-08 20:00:58.050 +0100|19188.036661625|-0.021759033203125|0.2238616943359375|-0.845977783203125|19188.016700625|0.5262876319488322|0.01868445804072592|-0.2694121049707933|-0.8587157130241394|0.3354654610157013|-0.1831043213605881|-0.04930519685149193|-0.04344639182090759|0.1071006655693054|XArbitraryZVertical|-0.1320784176898066|-0.02599319793217846|0.2565382812777318|0.9571143351262085|0.01800941489636898|0.2661647796630859|-0.9637593030929565|0|0|0|-1|-1|3
2021-04-08 20:00:58.070 +0100|19188.056622625|-0.0215301513671875|0.2521209716796875|-0.843109130859375|19188.036661625|0.522361582260979|0.0244032594150723|-0.2894640089266253|-1.153127551078796|0.3444802165031433|-0.2437040060758591|-0.04583138227462769|-0.06482589244842529|0.1054813861846924|XArbitraryZVertical|-0.1424432111541044|-0.02557551264404506|0.2538025594011121|0.9563681924513469|0.02338568866252899|0.2854385673999786|-0.9581116437911987|0|0|0|-1|-1|3
2021-04-08 20:00:58.090 +0100|19188.076582625|-0.021209716796875|0.2897186279296875|-0.834747314453125|19188.056622625|0.5169738457946894|0.02966486002024596|-0.3158951239175209|-1.479829788208008|0.3467613756656647|-0.3465240299701691|-0.04809034988284111|-0.06750226020812988|0.102017343044281|XArbitraryZVertical|-0.1557934498899739|-0.02604150370881582|0.2501529413634134|0.9552349931377451|0.02819286845624447|0.3106674253940582|-0.9501004815101624|0|0|0|-1|-1|3
2021-04-08 20:00:58.110 +0100|19188.096543625|-0.0359954833984375|0.328826904296875|-0.8049468994140625|19188.076582625|0.5097062379371402|0.03432965634201494|-0.3489667512433923|-1.806503772735596|0.3591122627258301|-0.4489061534404755|-0.0523347482085228|-0.06201869249343872|0.1072182655334473|XArbitraryZVertical|-0.172228822369053|-0.02740112152293776|0.2453554323233309|0.9536179436987254|0.03225415199995041|0.3419270217418671|-0.9391728043556213|0|0|0|-1|-1|3
2021-04-08 20:00:58.145 +0100|19188.116504625|-0.0244598388671875|0.3742218017578125|-0.8052520751953125|19188.116504625|0.4894210357252965|0.04186082738691418|-0.435436790734343|-2.463253736495972|0.4169890582561493|-0.6389760375022888|-0.06650804728269577|-0.05696776509284973|0.1011587977409363|XArbitraryZVertical|-0.214472141899982|-0.03249462205657203|0.2321182134807196|0.9481914125164489|0.03794353827834129|0.4218064844608307|-0.9058915972709656|0|0|0|-1|-1|3
2021-04-08 20:00:58.150 +0100|19188.136465625|-0.0079345703125|0.4300689697265625|-0.7873992919921875||||||||||||||||||||||||3
2021-04-08 20:00:58.170 +0100|19188.156426625|0.0207672119140625|0.5050506591796875|-0.8159027099609375|19188.136465625|0.4769265852069464|0.0443509183956001|-0.4873830061309698|-2.680045604705811|0.3864628076553345|-0.6947246193885803|-0.05045023560523987|-0.05463314056396484|0.09706389904022217|XArbitraryZVertical|-0.2394839973149898|-0.03607065606595285|0.2239754174824186|0.9440241187629341|0.0391739197075367|0.4683152139186859|-0.8826926350593567|0|0|0|-1|-1|3
2021-04-08 20:00:58.191 +0100|19188.176387625|0.0668487548828125|0.56292724609375|-0.823577880859375|19188.156426625|0.464113965192861|0.04579878459460079|-0.5432537588097576|-2.827308893203735|0.3810557723045349|-0.6748536229133606|-0.02936492115259171|-0.03144937753677368|0.04286313056945801|XArbitraryZVertical|-0.2661117528442095|-0.04022055365418313|0.2155110166414066|0.9386810093671554|0.03919148817658424|0.5169240236282349|-0.8551337122917175|0|0|0|-1|-1|3
2021-04-08 20:00:58.210 +0100|19188.196348625|0.06939697265625|0.646881103515625|-0.869842529296875|19188.176387625|0.4512591383727922|0.04535876615847666|-0.5998362608658205|-2.764470100402832|0.2556536197662354|-0.6529428958892822|0.02026580646634102|-0.0168074369430542|0.008326113224029541|XArbitraryZVertical|-0.2927264132986583|-0.04496328224431807|0.2071482836247522|0.9324050850929517|0.03742756322026253|0.5645073056221008|-0.824579119682312|0|0|0|-1|-1|3
2021-04-08 20:00:58.230 +0100|19188.21630954167|0.07672119140625|0.6747283935546875|-0.8924560546875|19188.196348625|0.4389985833802457|0.04218161432225172|-0.6540772610153659|-2.630191802978516|0.1708462834358215|-0.5796436667442322|0.03327601402997971|0.01703149080276489|-0.07545793056488037|XArbitraryZVertical|-0.3178112466188371|-0.05043925954156799|0.1995421764493436|0.9255457364455556|0.03346581384539604|0.6084272265434265|-0.7929037809371948|0|0|0|-1|-1|3
2021-04-08 20:00:58.250 +0100|19188.23627054167|0.06695556640625|0.6381072998046875|-0.8625030517578125|19188.21630954167|0.427337973837693|0.03750175218199489|-0.7057312168931247|-2.516284227371216|0.1024739295244217|-0.5480901002883911|0.05016740411520004|0.03102153539657593|-0.131151020526886|XArbitraryZVertical|-0.341400894249015|-0.05607359200504202|0.1926145263569449|0.9182597253043274|0.02853730134665966|0.6485905647277832|-0.7606023550033569|0|0|0|-1|-1|3
2021-04-08 20:00:58.270 +0100|19188.25623054167|0.0732879638671875|0.6948089599609375|-0.857147216796875|19188.23627054167|0.4154877296186529|0.03132673122751151|-0.7566396797400259|-2.553668737411499|0.07894521951675415|-0.5057005882263184|0.0435849204659462|-0.04342985153198242|-0.1401371359825134|XArbitraryZVertical|-0.3643756260378698|-0.06192989491422288|0.1859836367810932|0.9103874373428607|0.02277541160583496|0.6864818930625916|-0.726790189743042|0|0|0|-1|-1|3
2021-04-08 20:00:58.290 +0100|19188.27619154167|0.06396484375|0.7711334228515625|-0.87115478515625|19188.25623054167|0.4047379564431272|0.0252649638280165|-0.807571746594947|-2.493799924850464|0.07250043004751205|-0.4087166488170624|0.0547264888882637|-0.05195558071136475|-0.1585433483123779|XArbitraryZVertical|-0.3871886541081556|-0.06758413071528564|0.1799501943068236|0.9017402775529566|0.01746268197894096|0.7226107716560364|-0.6910346746444702|0|0|0|-1|-1|3
2021-04-08 20:00:58.310 +0100|19188.29615254167|0.083648681640625|0.8327178955078125|-0.7978057861328125|19188.27619154167|0.3941868654224615|0.01969448547175935|-0.8548188742304227|-2.190547466278076|0.1653867959976196|-0.4186829030513763|0.05116100609302521|0.003788471221923828|-0.2146818041801453|XArbitraryZVertical|-0.4082246756812987|-0.07237847918736018|0.1741930360478239|0.893180195917641|0.01292574312537909|0.7544520497322083|-0.6562279462814331|0|0|0|-1|-1|3
2021-04-08 20:00:58.330 +0100|19188.31611354167|0.0951385498046875|0.891357421875|-0.7311859130859375|19188.29615254167|0.3816651877412419|0.01430246120840898|-0.8952863740244452|-1.904630780220032|0.2553553581237793|-0.4393763840198517|0.06863255798816681|0.03485918045043945|-0.1933252811431885|XArbitraryZVertical|-0.4261964497068012|-0.07576828983177009|0.1679440406568639|0.8856696442914432|0.008942958898842335|0.7803881764411926|-0.6252315044403076|0|0|0|-1|-1|3
2021-04-08 20:00:58.350 +0100|19188.33607454167|0.067413330078125|0.91119384765625|-0.644439697265625|19188.31611354167|0.368148722857572|0.009086448587366874|-0.9316875839490405|-1.723552942276001|0.2649345099925995|-0.4489428997039795|0.08503410220146179|0.0708777904510498|-0.162179708480835|XArbitraryZVertical|-0.4423268159348535|-0.07822438816661514|0.1615248102560203|0.8787137779566209|0.005419814493507147|0.8026276826858521|-0.5964558720588684|0|0|0|-1|-1|3
2021-04-08 20:00:58.370 +0100|19188.35603554167|0.0034027099609375|0.9506988525390625|-0.57598876953125|19188.33607454167|0.3534991648489211|0.001468620940578104|-0.9651260858715107|-1.497992753982544|0.1610522419214249|-0.4106422066688538|0.07875354588031769|0.08828043937683105|-0.08248066902160645|XArbitraryZVertical|-0.4569355002340022|-0.08095404242422023|0.1554168269663753|0.8720677908401554|0.0008361052605323493|0.822120726108551|-0.5693128108978271|0|0|0|-1|-1|3
2021-04-08 20:00:58.390 +0100|19188.37599654167|-0.0876007080078125|0.8565216064453125|-0.5901641845703125|19188.35603554167|0.3402092822728671|-0.007409613373348267|-0.9911559225661533|-1.075402498245239|0.0715363621711731|-0.3690529763698578|0.03135615587234497|0.1167253851890564|-0.01726275682449341|XArbitraryZVertical|-0.4681217456010734|-0.08371352210429692|0.1506547421534359|0.8666933253692198|-0.004058380145579576|0.8366596698760986|-0.5477081537246704|0|0|0|-1|-1|3
2021-04-08 20:00:58.409 +0100|19188.39595754167|-0.0283660888671875|0.8003692626953125|-0.55914306640625|19188.37599654167|0.3251356705100034|-0.01797171479047886|-1.008464596781701|-0.7750089764595032|0.1816670745611191|-0.415565699338913|-0.06053304672241211|0.03142786026000977|-0.06778520345687866|XArbitraryZVertical|-0.4754725619191688|-0.0859572735764365|0.1459877800095539|0.8632641173706234|-0.009581292048096657|0.8460142016410828|-0.5330743789672852|0|0|0|-1|-1|3
2021-04-08 20:00:58.429 +0100|19188.41591754167|-0.0348968505859375|0.6675567626953125|-0.56884765625|19188.39595754167|0.3080325032733358|-0.02627880967674519|-1.025032485964561|-0.9928562641143799|0.3869119882583618|-0.4449993073940277|-0.04391737282276154|-0.04897475242614746|-0.04423260688781738|XArbitraryZVertical|-0.482768663278919|-0.08653576764812794|0.1400523763267663|0.8601345072997704|-0.01363900303840637|0.854731023311615|-0.5188919305801392|0|0|0|-1|-1|3
2021-04-08 20:00:58.449 +0100|19188.43587854167|-0.060821533203125|0.6813812255859375|-0.455657958984375|19188.41591754167|0.289382637906578|-0.03487871263584932|-1.049781671171174|-1.529491186141968|0.378880649805069|-0.4071643054485321|-0.006263121962547302|-0.1654706597328186|-0.078316330909729|XArbitraryZVertical|-0.4936307295812285|-0.08717695240771164|0.1334047756049714|0.8549456878273149|-0.0173577256500721|0.8673145771026611|-0.4974577724933624|0|0|0|-1|-1|3
2021-04-08 20:00:58.469 +0100|19188.45583954167|-0.0272674560546875|0.7761993408203125|-0.4137115478515625|19188.43587854167|0.2710185120214462|-0.04252128752221033|-1.087841124637422|-2.346687078475952|0.4936405420303345|-0.3595491945743561|-0.03824277222156525|-0.2167567610740662|-0.01719069480895996|XArbitraryZVertical|-0.5101771682996268|-0.08791936523833535|0.126473311402738|0.8461643796733491|-0.0197408776730299|0.8856263756752014|-0.4639788866043091|0|0|0|-1|-1|3
2021-04-08 20:00:58.489 +0100|19188.47580054167|-0.0375213623046875|0.8962249755859375|-0.345611572265625|19188.45583954167|0.2490149446006029|-0.05223386874187574|-1.140596635787021|-2.903988361358643|0.4815618991851807|-0.3479629456996918|-0.01123064756393433|-0.1604688167572021|-0.01805490255355835|XArbitraryZVertical|-0.53279132485961|-0.08883403267532243|0.1184860098725543|0.833188590570924|-0.02177436836063862|0.9088824987411499|-0.4164838492870331|0|0|0|-1|-1|3
2021-04-08 20:00:58.509 +0100|19188.49576154167|-0.0254974365234375|0.9781951904296875|-0.28521728515625|19188.47580054167|0.2238001568648909|-0.06564964971478178|-1.201747014969415|-3.214436769485474|0.5279266834259033|-0.290668398141861|-0.0106373094022274|-0.06174439191818237|-0.004945605993270874|XArbitraryZVertical|-0.5585016982251285|-0.08999934438364061|0.110496331764266|0.8171698634187633|-0.02366472594439983|0.9326707124710083|-0.3599519431591034|0|0|0|-1|-1|3
2021-04-08 20:00:58.529 +0100|19188.51572254167|-0.0254364013671875|1.062942504882812|-0.2391815185546875|19188.49576154167|0.1911532738500394|-0.08540037946820989|-1.265076684896979|-3.108765125274658|0.548490583896637|-0.3017868399620056|-0.005242008715867996|0.007933080196380615|0.009326547384262085|XArbitraryZVertical|-0.5846734805072753|-0.09063818440782667|0.102019081772087|0.7997087130920469|-0.02567258849740028|0.9536306262016296|-0.2998832762241364|0|0|0|-1|-1|3
2021-04-08 20:00:58.550 +0100|19188.53568354167|-0.0139923095703125|1.114410400390625|-0.2015533447265625|19188.51572254167|0.1486105003845875|-0.1154679560233242|-1.322334321781116|-2.682989120483398|0.5288079380989075|-0.2774527370929718|-0.0001258105039596558|0.07021361589431763|-0.005188286304473877|XArbitraryZVertical|-0.6079427024952057|-0.09092536073257389|0.09382914437213503|0.7831567680279692|-0.02833213657140732|0.9692918062210083|-0.2442764937877655|0|0|0|-1|-1|3
2021-04-08 20:00:58.569 +0100|19188.55564454167|-0.0075531005859375|1.092880249023438|-0.2321014404296875|19188.53568354167|0.09718881283236072|-0.1551348244447818|-1.36832963727201|-1.992479205131531|0.5203405618667603|-0.2510839104652405|0.01431614905595779|0.1289168000221252|-0.01067745685577393|XArbitraryZVertical|-0.6264645469751932|-0.09058796794527155|0.08644767835675277|0.7693262984869806|-0.03107060119509697|0.9795735478401184|-0.1986719816923141|0|0|0|-1|-1|3
2021-04-08 20:00:58.589 +0100|19188.57560554167|0.0165863037109375|1.077957153320312|-0.3155059814453125|19188.55564454167|0.04047038017943561|-0.200391466244441|-1.39922705744315|-1.23039710521698|0.5359625816345215|-0.26042839884758|0.02496610209345818|0.1183353066444397|-0.06185682117938995|XArbitraryZVertical|-0.6390122942450612|-0.08947854330981038|0.07980003726780666|0.7597954588303475|-0.03398437052965164|0.9853180646896362|-0.1673137545585632|0|0|0|-1|-1|3
2021-04-08 20:00:58.609 +0100|19188.59556554167|-0.012725830078125|1.113037109375|-0.3855133056640625|19188.57560554167|-0.01361344824880748|-0.2439505544991065|-1.414655391842676|-0.4124417006969452|0.4748159050941467|-0.2494387775659561|0.05825170874595642|0.1107983589172363|-0.1556441783905029|XArbitraryZVertical|-0.6455912397892503|-0.0880914852360638|0.07392647729855513|0.7549747453583359|-0.03756112232804298|0.9878347516059875|-0.1509036868810654|0|0|0|-1|-1|3
2021-04-08 20:00:58.646 +0100|19188.61552654167|-0.0255889892578125|1.0911865234375|-0.296783447265625|19188.61552654167|-0.04189379945236555|-0.2481169357362759|-1.404922363943987|0.3814201951026917|0.7477020025253296|0.02385872416198254|0.01790454611182213|0.1335532665252686|-0.1724590212106705|XArbitraryZVertical|-0.6429696652945197|-0.0809959466026636|0.06406700258270662|0.7588974611447447|-0.04054895788431168|0.9862744212150574|-0.1600593328475952|0|0|0|-1|-1|3
2021-04-08 20:00:58.649 +0100|19188.63548754167|-0.052734375|1.13568115234375|-0.298492431640625||||||||||||||||||||||||3
2021-04-08 20:00:58.669 +0100|19188.65544854167|-0.03729248046875|1.193649291992188|-0.426055908203125|19188.63548754167|-0.02191023793697591|-0.214215013453044|-1.397597749834439|0.4045363068580627|0.6421255469322205|0.1021435856819153|-0.005418490618467331|0.107521653175354|-0.1220383197069168|XArbitraryZVertical|-0.6404698463957615|-0.07483461310761277|0.06042697696064067|0.7619363581080368|-0.03663511201739311|0.9850385785102844|-0.1683963090181351|0|0|0|-1|-1|3
2021-04-08 20:00:58.689 +0100|19188.67540954167|0.107635498046875|1.378402709960938|-0.389495849609375|19188.65544854167|0.007086163230910507|-0.1714432568170889|-1.38127950752852|1.531118750572205|0.8198667764663696|0.1211434677243233|-0.02717198804020882|0.1894747018814087|-0.1979513615369797|XArbitraryZVertical|-0.6344534225616496|-0.06824497529105501|0.05726116551745183|0.7678103428590095|-0.03213931247591972|0.9820953607559204|-0.1856229603290558|0|0|0|-1|-1|3
2021-04-08 20:00:58.709 +0100|19188.69537054167|0.1167755126953125|1.23193359375|-0.37481689453125|19188.67540954167|0.05572820910378658|-0.1073695625308375|-1.334940498654613|3.2510085105896|0.7684520483016968|0.2547788619995117|0.1055311933159828|0.3737702369689941|-0.1676474213600159|XArbitraryZVertical|-0.6166950513367891|-0.05934768677700156|0.05505187821665678|0.7830290726992022|-0.02504148706793785|0.972314715385437|-0.2323301285505295|0|0|0|-1|-1|3
2021-04-08 20:00:58.729 +0100|19188.71533154167|0.0364227294921875|0.9470672607421875|-0.4037322998046875|19188.71533154167|0.1138918282183514|-0.03084301724331922|-1.148086887292998|5.216907978057861|0.3925654590129852|-0.0729927271604538|0.06169214472174644|0.1201242208480835|0.04057794809341431|XArbitraryZVertical|-0.5413500344129544|-0.04383116917860277|0.05614710678651526|0.837774770049234|-0.01265081856399775|0.9119808077812195|-0.4100379347801208|0|0|0|-1|-1|3
2021-04-08 20:00:58.749 +0100|19188.73529254167|0.03607177734375|0.5838470458984375|-0.45001220703125||||||||||||||||||||||||3
2021-04-08 20:00:58.769 +0100|19188.75525254167|0.102752685546875|0.3502044677734375|-0.4477996826171875|19188.73529254167|0.1115717840602461|-0.02473781485041942|-1.054870255081767|3.920270919799805|0.4244361519813538|-0.2803434431552887|0.03931736201047897|-0.1959007382392883|0.0541648268699646|XArbitraryZVertical|-0.5019013435244726|-0.03873245636225157|0.05439161030510253|0.8623435625442505|-0.01220292411744595|0.8698362112045288|-0.493189662694931|0|0|0|-1|-1|3
2021-04-08 20:00:58.791 +0100|19188.77521354167|0.1417999267578125|0.5089263916015625|-0.502593994140625|19188.75525254167|0.1032423018421227|-0.02506295679971232|-0.9973422512153725|1.791123867034912|0.2099962383508682|-0.2433144748210907|0.1044770628213882|-0.4708602428436279|0.09763479232788086|XArbitraryZVertical|-0.477016467705328|-0.03566580318641726|0.05129612730443411|0.8766709833375314|-0.01359615474939346|0.8400320410728455|-0.5423665046691895|0|0|0|-1|-1|3
2021-04-08 20:00:58.809 +0100|19188.79517454167|0.166046142578125|0.5869293212890625|-0.54193115234375|19188.77521354167|0.09871595346456587|-0.02837032560559987|-0.9794381830616373|0.1300445646047592|-0.1440672427415848|-0.08706095814704895|0.1503655910491943|-0.3781878352165222|0.06240791082382202|XArbitraryZVertical|-0.4691402805303015|-0.03570738741162584|0.05019865995294086|0.8809724969756442|-0.01581402495503426|0.830184280872345|-0.5572647452354431|0|0|0|-1|-1|3
2021-04-08 20:00:58.829 +0100|19188.81513554167|0.15606689453125|0.5193939208984375|-0.582733154296875|19188.79517454167|0.09240228935939085|-0.03871257612140402|-0.9830519653201222|-0.358842521905899|-0.3475395143032074|-0.2917307615280151|0.1796781420707703|-0.2469572424888611|0.01555782556533813|XArbitraryZVertical|-0.4705916225944418|-0.03883927083768841|0.04983473149056446|0.8800862408969158|-0.02146020159125328|0.8321934938430786|-0.5540700554847717|0|0|0|-1|-1|3
2021-04-08 20:00:58.849 +0100|19188.83509654167|0.1436004638671875|0.5287322998046875|-0.6636810302734375|19188.81513554167|0.07717677453016702|-0.05918442987353572|-0.9934362403003182|-0.7662233710289001|-0.4076991081237793|-0.4818641841411591|0.199719101190567|-0.2926480770111084|-0.02409511804580688|XArbitraryZVertical|-0.4749759427715541|-0.0443692551362232|0.04799114234896606|0.8775684532269922|-0.03228484094142914|0.8379064798355103|-0.544858455657959|0|0|0|-1|-1|3
2021-04-08 20:00:58.869 +0100|19188.85505754167|0.0546112060546875|0.458343505859375|-0.671875|19188.83509654167|0.05341805695737598|-0.08736976877522762|-1.011531328528994|-1.168098092079163|-0.3977394700050354|-0.6241435408592224|0.1909796595573425|-0.3399084806442261|-0.05764091014862061|XArbitraryZVertical|-0.4828221953007085|-0.05111594538266043|0.04449013700155022|0.8730926232051415|-0.04629625752568245|0.8476452827453613|-0.528539776802063|0|0|0|-1|-1|3
2021-04-08 20:00:58.889 +0100|19188.87501854167|0.1058502197265625|0.73028564453125|-0.5447998046875|19188.85505754167|0.01865278176859015|-0.1228804248558307|-1.037625040172569|-1.598416805267334|-0.1849343031644821|-0.9007970690727234|0.1397979706525803|-0.355217456817627|-0.1756027936935425|XArbitraryZVertical|-0.4943947783516983|-0.05793500852236403|0.03852829970678501|0.8664485409265377|-0.06229902803897858|0.8611995577812195|-0.5044347047805786|0|0|0|-1|-1|3
2021-04-08 20:00:58.908 +0100|19188.89497954167|0.118011474609375|0.95721435546875|-0.6898956298828125|19188.87501854167|-0.02238613172485453|-0.1618795181145859|-1.070315597478347|-1.838689923286438|-0.1786528080701828|-0.6337323784828186|0.1601629257202148|-0.2904831171035767|-0.04984718561172485|XArbitraryZVertical|-0.5090537062678783|-0.06385366501960818|0.03163331873316864|0.8577800035184568|-0.07733868062496185|0.8773519992828369|-0.4735740721225739|0|0|0|-1|-1|3
2021-04-08 20:00:58.929 +0100|19188.91494054167|-0.023040771484375|0.7990875244140625|-0.5363922119140625|19188.89497954167|-0.05893174792481489|-0.1978937324028026|-1.095890122800384|-0.8464993834495544|-0.192211702466011|-0.5729201436042786|0.2227105498313904|0.0789419412612915|-0.2017838954925537|XArbitraryZVertical|-0.5206453351385438|-0.06901387102555469|0.02641303722389897|0.8505693055968093|-0.08989851176738739|0.8893356323242188|-0.4483310282230377|0|0|0|-1|-1|3
2021-04-08 20:00:58.949 +0100|19188.93490054167|0.0788421630859375|0.8183135986328125|-0.508575439453125|19188.91494054167|-0.08501319252015073|-0.2242222201020355|-1.102988237777968|-0.487754613161087|-0.08679996430873871|-0.410681813955307|0.08665242046117783|-0.1005660891532898|-0.1404948830604553|XArbitraryZVertical|-0.5242498456387029|-0.07307853172858728|0.02259926385344729|0.8481221286212971|-0.1002637222409248|0.8925588130950928|-0.4396432638168335|0|0|0|-1|-1|3
2021-04-08 20:00:58.969 +0100|19188.95486154167|0.0796661376953125|0.8653564453125|-0.420013427734375|19188.93490054167|-0.1066432229876741|-0.2453053972099953|-1.115273622146206|-0.8544503450393677|-0.1532254219055176|-0.2504236698150635|0.1551779806613922|-0.07871013879776001|-0.08550539612770081|XArbitraryZVertical|-0.5299933566147862|-0.07567189955175843|0.01976838225598795|0.8443873524446407|-0.1068385690450668|0.8980311751365662|-0.4267615973949432|0|0|0|-1|-1|3
2021-04-08 20:00:58.988 +0100|19188.97482254167|-0.0551910400390625|0.927337646484375|-0.4033660888671875|19188.95486154167|-0.1247585811728626|-0.2661639272163669|-1.131727285337967|-0.9119834899902344|-0.3059723377227783|-0.09122392535209656|0.2094091176986694|-0.04557394981384277|-0.04040157794952393|XArbitraryZVertical|-0.5373529207618788|-0.07866164586832874|0.01884586570093099|0.839469624704834|-0.1118143647909164|0.9051477909088135|-0.4101283550262451|0|0|0|-1|-1|3
2021-04-08 20:00:59.008 +0100|19188.99478354167|-0.126922607421875|0.9969635009765625|-0.363525390625|19188.97482254167|-0.1379787046405447|-0.2853491733284751|-1.146676979070345|-0.6079978346824646|-0.3606347441673279|-0.05333948135375977|0.0947054848074913|-0.003396272659301758|0.003643661737442017|XArbitraryZVertical|-0.5438853420860544|-0.08215683038588711|0.01962337401063566|0.8348975713895729|-0.115839347243309|0.9114015102386475|-0.3948779702186584|0|0|0|-1|-1|3
2021-04-08 20:00:59.028 +0100|19189.01474454167|-0.215789794921875|1.105484008789062|-0.26251220703125|19188.99478354167|-0.1426592426992027|-0.2961452568121042|-1.153086898467832|-0.04869145900011063|-0.3127923905849457|0.07890688627958298|0.001047775149345398|0.06127583980560303|0.001779258251190186|XArbitraryZVertical|-0.546607968508522|-0.08494355540487922|0.02112476407879313|0.832801364044968|-0.1183882877230644|0.9140205383300781|-0.3880086541175842|0|0|0|-1|-1|3
2021-04-08 20:00:59.048 +0100|19189.03470554167|-0.363067626953125|1.092803955078125|-0.150146484375|19189.01474454167|-0.1322236081960046|-0.292654463881949|-1.150220473614992|0.4636019170284271|-0.2876531779766083|0.2139627039432526|-0.06543949991464615|0.1726872324943542|0.1014226078987122|XArbitraryZVertical|-0.5450217997948908|-0.08653310499557136|0.02429066654130331|0.8335905880498348|-0.1177884787321091|0.9128539562225342|-0.3909265100955963|0|0|0|-1|-1|3
2021-04-08 20:00:59.068 +0100|19189.05466654167|-0.448486328125|0.9955902099609375|-0.1100311279296875|19189.03470554167|-0.1138477736751984|-0.280928648041807|-1.139296102431894|0.7175042033195496|-0.195540189743042|0.1962095499038696|-0.2129338085651398|0.2010666131973267|0.226561963558197|XArbitraryZVertical|-0.5398662829953897|-0.08732188710507656|0.02794889744661279|0.8367425923836317|-0.1159545481204987|0.9083393216133118|-0.4018385708332062|0|0|0|-1|-1|3
2021-04-08 20:00:59.088 +0100|19189.07462754167|-0.4389190673828125|0.919158935546875|-0.119140625|19189.05466654167|-0.09770147476864156|-0.2684108017202545|-1.128850340205149|0.3912942409515381|-0.01596456579864025|0.1868888288736343|-0.32312873005867|0.117106020450592|0.2966023087501526|XArbitraryZVertical|-0.5350080351324152|-0.08702824007432973|0.03060341707060647|0.8397951956858746|-0.113425649702549|0.9039210677146912|-0.4123849868774414|0|0|0|-1|-1|3
2021-04-08 20:00:59.108 +0100|19189.09458854167|-0.364715576171875|0.934295654296875|-0.1465911865234375|19189.07462754167|-0.08807981587850548|-0.258470475129163|-1.128653486036962|-0.292001873254776|0.1337914168834686|0.2169003486633301|-0.3384947776794434|0.03056603670120239|0.2946618497371674|XArbitraryZVertical|-0.5346666509356617|-0.08543723583106787|0.03197276879549018|0.8401249027980857|-0.109366349875927|0.9038368463516235|-0.4136641025543213|0|0|0|-1|-1|3
2021-04-08 20:00:59.128 +0100|19189.11454854167|-0.2754669189453125|1.018356323242188|-0.1828155517578125|19189.09458854167|-0.08490333309621294|-0.2521687078544904|-1.142424442166397|-0.9572014808654785|0.1834847778081894|0.2531767785549164|-0.2842979431152344|0.01061481237411499|0.2677786946296692|XArbitraryZVertical|-0.5403665712033231|-0.08292930014822401|0.03250783795675889|0.8367019742690367|-0.1036419197916985|0.9096432328224182|-0.4022533893585205|0|0|0|-1|-1|3
2021-04-08 20:00:59.148 +0100|19189.13450954167|-0.194244384765625|1.082504272460938|-0.2318115234375|19189.11454854167|-0.08499533845035281|-0.2485861580993019|-1.164960640250589|-1.151436686515808|0.180481806397438|0.295213371515274|-0.1984169483184814|0.07506322860717773|0.2148824334144592|XArbitraryZVertical|-0.549758703619142|-0.08024620483411418|0.03293025024666201|0.8308078970496466|-0.09713097661733627|0.91877281665802|-0.3826518356800079|0|0|0|-1|-1|3
2021-04-08 20:00:59.168 +0100|19189.15447054167|-0.1112518310546875|1.095733642578125|-0.2639923095703125|19189.13450954167|-0.08424396612276354|-0.2439906996104605|-1.186800018636979|-0.920214056968689|0.2165366858243942|0.2585973739624023|-0.1246933713555336|0.1427260637283325|0.1388179361820221|XArbitraryZVertical|-0.558783018408714|-0.0774274348295957|0.03333705189865487|0.8250183668999771|-0.09050175547599792|0.9271749258041382|-0.3635330498218536|0|0|0|-1|-1|3
2021-04-08 20:00:59.188 +0100|19189.17443154167|-0.0597991943359375|1.075820922851562|-0.2640838623046875|19189.15447054167|-0.08100080661848826|-0.2366353213516846|-1.202452708346139|-0.5539795756340027|0.2046951055526733|0.222464308142662|-0.04214427620172501|0.1695078015327454|0.09443780779838562|XArbitraryZVertical|-0.5651800223448102|-0.07451961751009493|0.03356023728989498|0.8209094542597881|-0.08441256731748581|0.9329250454902649|-0.3500367403030396|0|0|0|-1|-1|3
2021-04-08 20:00:59.208 +0100|19189.19439254167|-0.0571441650390625|1.062332153320312|-0.2543792724609375|19189.17443154167|-0.07574595502012858|-0.2283602020891914|-1.210845048160083|-0.2539531886577606|0.1200958043336868|0.1596252471208572|0.009272314608097076|0.1430354118347168|0.0808025598526001|XArbitraryZVertical|-0.5685453445144971|-0.07220646251091146|0.03386200597149364|0.818777150760313|-0.0797378346323967|0.9359139800071716|-0.343084841966629|0|0|0|-1|-1|3
2021-04-08 20:00:59.228 +0100|19189.214353625|-0.116851806640625|0.9910888671875|-0.320068359375|19189.19439254167|-0.07016600340783874|-0.222237467244614|-1.214276722807301|-0.07223916053771973|-0.02216579020023346|0.1170034036040306|0.02509282529354095|0.1260699033737183|0.08063673973083496|XArbitraryZVertical|-0.56984635579049|-0.07112828362310152|0.03459651930486923|0.8179359358583351|-0.07692735642194748|0.9371172189712524|-0.340431809425354|0|0|0|-1|-1|3
2021-04-08 20:00:59.248 +0100|19189.234314625|-0.0850830078125|1.022674560546875|-0.2633056640625|19189.214353625|-0.06628573999729426|-0.2194378513358127|-1.215562776834376|0.03819678351283073|-0.02508040517568588|0.03890851512551308|-0.02510373294353485|0.0904044508934021|0.04720327258110046|XArbitraryZVertical|-0.5702806968219675|-0.07103124767823103|0.03545574729033052|0.8176046960678556|-0.07571150362491608|0.9375652670860291|-0.3394689857959747|0|0|0|-1|-1|3
2021-04-08 20:00:59.268 +0100|19189.254275625|-0.10546875|1.038238525390625|-0.2103424072265625|19189.234314625|-0.0673633544036057|-0.2211446342673669|-1.216459281901911|-0.1374852508306503|-0.101851724088192|-0.006044047418981791|-0.02292358130216599|0.07571923732757568|0.120334655046463|XArbitraryZVertical|-0.5706533382236491|-0.07138114147887079|0.03555105695320727|0.817310008567951|-0.07610638439655304|0.9378767013549805|-0.3385190069675446|0|0|0|-1|-1|3
2021-04-08 20:00:59.288 +0100|19189.274236625|-0.127288818359375|1.099533081054688|-0.2545928955078125|19189.254275625|-0.06786030255939164|-0.2246030785011368|-1.217310162088929|-0.004667541477829218|-0.1970796436071396|0.01612765714526176|-0.0273173525929451|0.0735476016998291|0.1125929355621338|XArbitraryZVertical|-0.5709547352223969|-0.07261355487051033|0.03638200273642085|0.816954390712773|-0.07709897309541702|0.9381716251373291|-0.3374759256839752|0|0|0|-1|-1|3
2021-04-08 20:00:59.308 +0100|19189.294196625|-0.1627960205078125|1.090087890625|-0.27471923828125|19189.274236625|-0.06472749440912486|-0.2259942322343616|-1.214589527596733|0.3613243401050568|-0.204814225435257|0.00821513868868351|-0.04063482582569122|0.1488184332847595|0.09815645217895508|XArbitraryZVertical|-0.5697079549281097|-0.07419947587337987|0.03790788065729308|0.8176126351744804|-0.0781400129199028|0.9372263550758362|-0.3398545682430267|0|0|0|-1|-1|3
2021-04-08 20:00:59.328 +0100|19189.314157625|-0.16827392578125|1.0400390625|-0.2667999267578125|19189.294196625|-0.05638163897426572|-0.2216006428688314|-1.203548431195232|0.799269437789917|-0.1277805268764496|0.02346093580126762|-0.07174991071224213|0.1748815178871155|0.08348506689071655|XArbitraryZVertical|-0.5649800361411512|-0.07525428276655667|0.03947848761647879|0.8207167573624993|-0.0789157897233963|0.9333190321922302|-0.350268691778183|0|0|0|-1|-1|3
2021-04-08 20:00:59.348 +0100|19189.334118625|-0.151885986328125|0.9770355224609375|-0.2654876708984375|19189.314157625|-0.04324818306360463|-0.2107157415853594|-1.185523734984513|1.01813542842865|-0.03092253021895885|0.06757921725511551|-0.09316381812095642|0.129014253616333|0.1083454191684723|XArbitraryZVertical|-0.5573120809785682|-0.0751894794694361|0.04090178443227136|0.8258795094823315|-0.07860478013753891|0.9266960024833679|-0.3674995601177216|0|0|0|-1|-1|3
2021-04-08 20:00:59.367 +0100|19189.354079625|-0.1371307373046875|0.887969970703125|-0.3145599365234375|19189.334118625|-0.02770554460167344|-0.1964155476358078|-1.165863931668263|0.9651746153831482|0.02120639756321907|0.121864378452301|-0.0797492042183876|0.07168567180633545|0.1146698296070099|XArbitraryZVertical|-0.5489028397168012|-0.07426078195480088|0.04245984103678051|0.8314976391182766|-0.07688267529010773|0.9191290140151978|-0.3863820135593414|0|0|0|-1|-1|3
2021-04-08 20:00:59.388 +0100|19189.374040625|-0.053802490234375|0.8745574951171875|-0.3582763671875|19189.354079625|-0.01293293044627662|-0.1821190036294345|-1.150175535923159|0.6790098547935486|0.07576353847980499|0.157830998301506|-0.06949448585510254|-0.002175331115722656|0.09929913282394409|XArbitraryZVertical|-0.5421369679142063|-0.07280234968249269|0.04405476266190546|0.8359705236778955|-0.07395380735397339|0.9128356575965881|-0.4015746414661407|0|0|0|-1|-1|3
2021-04-08 20:00:59.408 +0100|19189.394001625|-0.0135345458984375|0.9114227294921875|-0.3761138916015625|19189.374040625|-0.0004814310176112813|-0.1681403679520977|-1.141950237290122|0.243914932012558|0.156748041510582|0.1994520276784897|-0.01169652491807938|-0.03765004873275757|0.07153406739234924|XArbitraryZVertical|-0.5385609132694344|-0.07052156110264951|0.04518062976431422|0.838413758479618|-0.06958745419979095|0.9094461798667908|-0.4099577069282532|0|0|0|-1|-1|3
2021-04-08 20:00:59.428 +0100|19189.413962625|-0.028076171875|0.9877166748046875|-0.3532867431640625|19189.394001625|0.01111934124929138|-0.1543812393915335|-1.140766089353109|-0.0259647574275732|0.1636811941862106|0.2803760766983032|0.04710722714662552|-0.01696962118148804|0.03266876935958862|XArbitraryZVertical|-0.5379774349257437|-0.0678984010080545|0.04630297208006488|0.8389435039640747|-0.06410593539476395|0.9089531302452087|-0.4119401872158051|0|0|0|-1|-1|3
2021-04-08 20:00:59.448 +0100|19189.433923625|-0.0445098876953125|1.014297485351562|-0.3701629638671875|19189.413962625|0.02390256279958754|-0.1395928091658242|-1.143674656877679|0.03252014145255089|0.2041504830121994|0.3517138361930847|0.03220231458544731|0.05980938673019409|0.05062073469161987|XArbitraryZVertical|-0.5391207659536492|-0.06509237688197111|0.04776410733187492|0.8383499329215466|-0.05763913691043854|0.9101618528366089|-0.4102235734462738|0|0|0|-1|-1|3
2021-04-08 20:00:59.468 +0100|19189.453883625|-0.058746337890625|0.9601898193359375|-0.392669677734375|19189.433923625|0.03859202716306235|-0.1225313483253209|-1.143102996371832|0.3862665295600891|0.2625240981578827|0.3914414346218109|0.01357059925794601|0.1088896989822388|0.04906994104385376|XArbitraryZVertical|-0.5388284672491012|-0.06190414772290081|0.0493116875476098|0.8386896506006866|-0.05069565400481224|0.9099249243736267|-0.4116635322570801|0|0|0|-1|-1|3
2021-04-08 20:00:59.487 +0100|19189.473844625|-0.0785980224609375|0.86053466796875|-0.38275146484375|19189.453883625|0.05694817232157671|-0.1003571236398079|-1.134199524681424|0.6930949687957764|0.3429552018642426|0.3752528131008148|-0.01456533372402191|0.07460898160934448|0.03289887309074402|XArbitraryZVertical|-0.5350899106739614|-0.05756343777951366|0.05091643171187411|0.8412923788604225|-0.04236562550067902|0.9061959981918335|-0.4207304716110229|0|0|0|-1|-1|3
2021-04-08 20:00:59.507 +0100|19189.493805625|-0.1221923828125|0.82281494140625|-0.3682708740234375|19189.473844625|0.07690603365271068|-0.07515421559711483|-1.121602344671079|0.6584451198577881|0.3624646365642548|0.3642103672027588|-0.03711358830332756|-0.02140235900878906|0.04416009783744812|XArbitraryZVertical|-0.5298733573528598|-0.05222270867763531|0.05249858893465393|0.8448378752777017|-0.03260423615574837|0.900797426700592|-0.4330140352249146|0|0|0|-1|-1|3
2021-04-08 20:00:59.527 +0100|19189.513766625|-0.1771087646484375|0.8232574462890625|-0.3573760986328125|19189.493805625|0.09547238850280859|-0.05159318578979753|-1.113393815964848|0.3674726486206055|0.3170157670974731|0.3943187892436981|-0.08773013204336166|-0.07351738214492798|0.06958797574043274|XArbitraryZVertical|-0.5265621814406859|-0.04707915833474692|0.05411287777545204|0.8471055060367061|-0.02277443930506706|0.8972026109695435|-0.4410316348075867|0|0|0|-1|-1|3
2021-04-08 20:00:59.547 +0100|19189.533727625|-0.1866455078125|0.8610992431640625|-0.337371826171875|19189.513766625|0.1135740187533336|-0.02982769180591237|-1.112028393262212|0.07322677224874496|0.2577346563339233|0.424420177936554|-0.1528089940547943|-0.06919044256210327|0.07668110728263855|XArbitraryZVertical|-0.5261766264908491|-0.04259943972988475|0.05606026695564795|0.8474554684094764|-0.01320705190300941|0.8965988159179688|-0.4426468908786774|0|0|0|-1|-1|3
2021-04-08 20:00:59.567 +0100|19189.553688625|-0.1755828857421875|0.878448486328125|-0.36407470703125|19189.533727625|0.1318376392083621|-0.009081832673553218|-1.114730407536792|-0.1211264431476593|0.2136903554201126|0.4509211778640747|-0.183439627289772|-0.04824328422546387|0.1066164374351501|XArbitraryZVertical|-0.5275439136297549|-0.03868755953582605|0.05829774046931973|0.8466416434153774|-0.003999761771410704|0.8977921009063721|-0.4404013752937317|0|0|0|-1|-1|3
2021-04-08 20:00:59.587 +0100|19189.573649625|-0.174713134765625|0.8828582763671875|-0.3734588623046875|19189.553688625|0.1496393976088977|0.01024416689952127|-1.118605168848607|-0.1450366228818893|0.1730914264917374|0.4439301192760468|-0.1817377507686615|-0.02414023876190186|0.07686954736709595|XArbitraryZVertical|-0.5294281410083486|-0.03533193836369955|0.0606489324161194|0.8454463460703345|0.004475986585021019|0.8994918465614319|-0.4369149804115295|0|0|0|-1|-1|3
2021-04-08 20:00:59.607 +0100|19189.593610625|-0.151123046875|0.8954925537109375|-0.3766937255859375|19189.573649625|0.1660352799392464|0.02697450190235207|-1.122480193680751|-0.191755935549736|0.1291200369596481|0.4765163064002991|-0.1862973868846893|-0.01778537034988403|0.0628851056098938|XArbitraryZVertical|-0.5313019226030982|-0.032751665405929|0.06304181717964588|0.8441987148269239|0.01169064920395613|0.901178240776062|-0.4332911968231201|0|0|0|-1|-1|3
2021-04-08 20:00:59.627 +0100|19189.613571625|-0.0830535888671875|0.9217987060546875|-0.42041015625|19189.593610625|0.182112992816877|0.04226192818106048|-1.127250930719845|-0.2249980866909027|0.09188275039196014|0.5237011313438416|-0.1791269928216934|-0.01195412874221802|0.05644816160202026|XArbitraryZVertical|-0.5335463140342156|-0.03078207700249414|0.06560702101738024|0.842660507246742|0.01813108660280704|0.9032358527183533|-0.4287616014480591|0|0|0|-1|-1|3
2021-04-08 20:00:59.647 +0100|19189.633531625|0.019989013671875|0.889251708984375|-0.511810302734375|19189.613571625|0.1987674165582395|0.05683994570085402|-1.132332059654705|-0.1631844341754913|0.05888954177498817|0.5553425550460815|-0.1298622041940689|0.01024520397186279|0.02428308129310608|XArbitraryZVertical|-0.5359173552689049|-0.02933637843750322|0.06853720379756566|0.8409724463308069|0.02411838248372078|0.9054047465324402|-0.4238639175891876|0|0|0|-1|-1|3
2021-04-08 20:00:59.667 +0100|19189.653492625|0.130615234375|0.847991943359375|-0.584381103515625|19189.633531625|0.2155743455147603|0.07140434997429411|-1.134990236303443|-0.05702192708849907|0.0690329372882843|0.53094881772995|-0.03750278800725937|-0.005574345588684082|-0.07569840550422668|XArbitraryZVertical|-0.5372994966037455|-0.02786415174190703|0.07158256953476917|0.8398862118152801|0.03011712431907654|0.9065300822257996|-0.4210656881332397|0|0|0|-1|-1|3
2021-04-08 20:00:59.687 +0100|19189.673453625|0.200225830078125|0.8380889892578125|-0.6434326171875|19189.653492625|0.2309106750819926|0.08472289463064327|-1.137188586677135|-0.1228785142302513|0.02445923537015915|0.5087041854858398|0.06646630167961121|-0.04757672548294067|-0.1488479375839233|XArbitraryZVertical|-0.538494297937127|-0.02652501506341646|0.07433554718902741|0.8389247355229368|0.03555355593562126|0.9074558615684509|-0.4186406433582306|0|0|0|-1|-1|3
2021-04-08 20:00:59.707 +0100|19189.693414625|0.2763824462890625|0.8050689697265625|-0.7123260498046875|19189.673453625|0.2583431080191965|0.1090826099647269|-1.137748146312922|-5.391449667513371e-05|-0.07695313543081284|0.6454738974571228|0.1402280330657959|-0.07163071632385254|-0.2065107226371765|XArbitraryZVertical|-0.5393177908338793|-0.02374001416022486|0.07924300262600076|0.8380294390175954|0.04568466171622276|0.9076908230781555|-0.4171454608440399|0|0|0|-1|-1|3
2021-04-08 20:00:59.727 +0100|19189.713375625|0.2932281494140625|0.7454681396484375|-0.7073974609375|19189.693414625|0.2918913857292414|0.1370826048362252|-1.13191217529713|0.4026218354701996|-0.1614014506340027|0.8360023498535156|0.1990267485380173|-0.09361094236373901|-0.2807920575141907|XArbitraryZVertical|-0.5376837324066944|-0.02060459238850369|0.08612998479521286|0.8384827203903682|0.05806819349527359|0.9052264094352722|-0.4209433197975159|0|0|0|-1|-1|3
2021-04-08 20:00:59.747 +0100|19189.733336625|0.2554168701171875|0.70367431640625|-0.6922760009765625|19189.713375625|0.3290515434697908|0.1663202785315463|-1.118979589220126|0.5629138946533203|-0.2624255418777466|0.9250600337982178|0.2288505733013153|-0.1422543525695801|-0.284373551607132|XArbitraryZVertical|-0.5333074496816351|-0.0171803234203442|0.09484057051388831|0.8404126135543099|0.07228124141693115|0.8996554017066956|-0.4305759966373444|0|0|0|-1|-1|3
2021-04-08 20:00:59.767 +0100|19189.753297625|0.2686309814453125|0.6647186279296875|-0.6863861083984375|19189.733336625|0.365915853125365|0.1938604760399924|-1.105005897890302|0.4899631142616272|-0.285329669713974|0.9218536615371704|0.1707692295312881|-0.1875335574150085|-0.257555365562439|XArbitraryZVertical|-0.5286255091529203|-0.01403253464836518|0.1041983879777489|0.8423188908607167|0.0865241140127182|0.8934668302536011|-0.4407163262367249|0|0|0|-1|-1|3
2021-04-08 20:00:59.787 +0100|19189.773258625|0.2740325927734375|0.55963134765625|-0.6944732666015625|19189.753297625|0.4016462681035893|0.2190914611771696|-1.092585694500414|0.4080140590667725|-0.3966364860534668|0.9403138160705566|0.1683366298675537|-0.2028826475143433|-0.2351495623588562|XArbitraryZVertical|-0.524664594461253|-0.0114735994243487|0.1137655547012627|0.8435953212920106|0.1000193655490875|0.887819766998291|-0.4491908252239227|0|0|0|-1|-1|3
2021-04-08 20:00:59.807 +0100|19189.793218625|0.32135009765625|0.5561065673828125|-0.664337158203125|19189.773258625|0.4370370681671492|0.2422019887575848|-1.081158815551912|0.327827662229538|-0.4143058955669403|0.9043462872505188|0.1559998542070389|-0.2935135364532471|-0.2308285236358643|XArbitraryZVertical|-0.5211696550045578|-0.009630379363716012|0.1238193987906747|0.844368559464191|0.1127986460924149|0.8825033903121948|-0.4565788805484772|0|0|0|-1|-1|3
2021-04-08 20:00:59.827 +0100|19189.813179625|0.2380523681640625|0.7400360107421875|-0.5814056396484375|19189.793218625|0.4688326401348583|0.2618486389060661|-1.073914203552737|-0.05162214860320091|-0.4584074020385742|0.7399690747261047|0.1879263818264008|-0.3459150791168213|-0.2100470662117004|XArbitraryZVertical|-0.5193316470686899|-0.008687392999435935|0.1329255689523187|0.8441268073033075|0.1233983859419823|0.8790730834007263|-0.4604383409023285|0|0|0|-1|-1|3
2021-04-08 20:00:59.847 +0100|19189.833140625|0.1680145263671875|0.9208221435546875|-0.497100830078125|19189.813179625|0.4988928272228204|0.2781991511460432|-1.075738751767544|-0.453209400177002|-0.5365155935287476|0.5907537341117859|0.1398093849420547|-0.1938903331756592|-0.1496128439903259|XArbitraryZVertical|-0.5210514581031961|-0.009861749573152499|0.1411289700356443|0.8417189777095544|0.1304692625999451|0.8799413442611694|-0.4568162560462952|0|0|0|-1|-1|3
2021-04-08 20:00:59.867 +0100|19189.853101625|0.0868072509765625|0.9430084228515625|-0.44610595703125|19189.833140625|0.5268776762320871|0.2926422383327883|-1.077891475126925|-0.3496075868606567|-0.4924072623252869|0.5011953115463257|0.04716329276561737|0.004170417785644531|-0.06774246692657471|XArbitraryZVertical|-0.5228147136960405|-0.0114030287654645|0.148854803173473|0.8392717585317159|0.1365064829587936|0.8809620141983032|-0.4530694782733917|0|0|0|-1|-1|3
2021-04-08 20:00:59.887 +0100|19189.873062625|0.035369873046875|0.8774261474609375|-0.3999176025390625|19189.853101625|0.5453665498858368|0.3003578402562836|-1.079404044134339|-0.07575530558824539|-0.3516592085361481|0.2689006924629211|-0.03201422095298767|0.07425642013549805|-0.005339533090591431|XArbitraryZVertical|-0.5238895297884959|-0.01323197125432131|0.1543924153929239|0.8375725009510161|0.1396036744117737|0.8816767334938049|-0.4507293403148651|0|0|0|-1|-1|3
2021-04-08 20:00:59.907 +0100|19189.893023625|0.046112060546875|0.9191436767578125|-0.3486328125|19189.873062625|0.5533663134714472|0.3015428310828409|-1.080223023378858|-0.1950782835483551|-0.2550555467605591|0.09961926937103271|-0.09907568991184235|0.004839599132537842|0.0458223819732666|XArbitraryZVertical|-0.5242511183609586|-0.01495669393181698|0.1573233698758451|0.8367715360858586|0.1399232298135757|0.8820629119873047|-0.4498741328716278|0|0|0|-1|-1|3
2021-04-08 20:00:59.927 +0100|19189.912984625|0.0129547119140625|0.995361328125|-0.3562469482421875|19189.893023625|0.5608461085705563|0.3022576636204702|-1.085869577005991|-0.4084848165512085|-0.341457337141037|0.07620528340339661|-0.09170205891132355|0.0119742751121521|0.09381675720214844|XArbitraryZVertical|-0.5264865415564146|-0.01749085600480755|0.1595161596274364|0.8349016345602731|0.1387599408626556|0.8847091197967529|-0.4450119733810425|0|0|0|-1|-1|3
2021-04-08 20:00:59.947 +0100|19189.932945625|0.0443878173828125|1.021560668945312|-0.3605194091796875|19189.912984625|0.5674055051368421|0.3020123818683649|-1.093414558440449|-0.3813306391239166|-0.2509750723838806|-0.0221775658428669|-0.1196022778749466|0.09712070226669312|0.0918138325214386|XArbitraryZVertical|-0.5293862492057237|-0.02049499780142602|0.1613110959569952|0.8326517606220675|0.1366613656282425|0.8882009387016296|-0.4386602938175201|0|0|0|-1|-1|3
2021-04-08 20:00:59.967 +0100|19189.952906625|0.03253173828125|1.029769897460938|-0.3385772705078125|19189.932945625|0.570968539200691|0.3013571989348463|-1.100435862752612|-0.3446277379989624|-0.1449974924325943|-0.007565866224467754|-0.1002790927886963|0.1213062405586243|0.07356244325637817|XArbitraryZVertical|-0.5320600088168672|-0.02280844835581591|0.1620265090632302|0.8307463630769419|0.1345195770263672|0.8914049863815308|-0.432783842086792|0|0|0|-1|-1|3
2021-04-08 20:00:59.986 +0100|19189.972866625|0.016357421875|1.020492553710938|-0.344940185546875|19189.952906625|0.5757992935510845|0.3033019796657505|-1.106185991451671|-0.2361859679222107|-0.08777399361133575|0.04281892254948616|-0.0918663889169693|0.1351486444473267|0.07989093661308289|XArbitraryZVertical|-0.5344188951123863|-0.02419163941467875|0.1627375896511469|0.8290523241123188|0.1338278204202652|0.8939962387084961|-0.4276224076747894|0|0|0|-1|-1|3
2021-04-08 20:01:00.006 +0100|19189.992827625|0.0072174072265625|0.98583984375|-0.3118896484375|19189.972866625|0.5760081808682169|0.3020179707254582|-1.10973170254666|0.01403578836470842|0.0162007212638855|0.02586594969034195|-0.1186328083276749|0.1338707804679871|0.08306068181991577|XArbitraryZVertical|-0.5357009685855467|-0.02533755958393617|0.1626878780235611|0.8282000372596425|0.132334977388382|0.8955793380737305|-0.4247649610042572|0|0|0|-1|-1|3
2021-04-08 20:01:00.026 +0100|19190.012788625|-0.174041748046875|0.9865264892578125|-0.233856201171875|19189.992827625|0.5732852093001817|0.2991286176790851|-1.109562497874401|0.1953519582748413|-0.01933634094893932|0.08882671594619751|-0.1105831116437912|0.09705018997192383|0.09849375486373901|XArbitraryZVertical|-0.5354347657303884|-0.02577854152848106|0.1623566744854347|0.8284234418772499|0.1311517208814621|0.8955040574073792|-0.4252901673316956|0|0|0|-1|-1|3
2021-04-08 20:01:00.046 +0100|19190.032749625|-0.3633880615234375|1.092041015625|-0.1623687744140625|19190.012788625|0.5751594445609154|0.2995146473558911|-1.108244245428897|0.09327791631221771|-0.03556324914097786|0.2269117087125778|-0.2541313767433167|0.08787202835083008|0.171454906463623|XArbitraryZVertical|-0.5349251436898841|-0.02591359174396831|0.1632070870696564|0.8285813779985177|0.1316641122102737|0.8949165940284729|-0.4263671636581421|0|0|0|-1|-1|3
2021-04-08 20:01:00.066 +0100|19190.052710625|-0.526947021484375|1.096038818359375|-0.2414093017578125|19190.032749625|0.5875050804898441|0.309530217328286|-1.105649365994399|0.0831461176276207|-0.05952029675245285|0.490378737449646|-0.456886351108551|0.1556223630905151|0.2517625391483307|XArbitraryZVertical|-0.5345777927335065|-0.02465410013871116|0.1659965487114434|0.8282897983691532|0.1366346627473831|0.8937556743621826|-0.4272375106811523|0|0|0|-1|-1|3
2021-04-08 20:01:00.086 +0100|19190.072671625|-0.531280517578125|0.8681793212890625|-0.36962890625|19190.052710625|0.6099487284344834|0.3283369718811926|-1.099148871704567|0.2981122136116028|-0.009817724116146564|0.6415613889694214|-0.6387946605682373|0.237658679485321|0.2211149334907532|XArbitraryZVertical|-0.5333699610569596|-0.02179379620322395|0.1711851136727786|0.8280925870845283|0.146515429019928|0.8908209800720215|-0.4300830364227295|0|0|0|-1|-1|3
2021-04-08 20:01:00.106 +0100|19190.092632625|-0.5223236083984375|0.6738433837890625|-0.4965057373046875|19190.072671625|0.6346578800432905|0.3510136705575714|-1.086171909509304|0.4785899817943573|0.0286228209733963|0.909723162651062|-0.7005816698074341|0.0406419038772583|0.09777906537055969|XArbitraryZVertical|-0.5300799434422067|-0.01675287735810848|0.1773023852867563|0.8290347023591601|0.1601914465427399|0.8848499655723572|-0.4374691843986511|0|0|0|-1|-1|3
2021-04-08 20:01:00.126 +0100|19190.112593625|-0.3931121826171875|0.6493072509765625|-0.608489990234375|19190.092632625|0.6697192418760191|0.3816958076331672|-1.070698042484648|0.272856593132019|-0.00922772753983736|1.180366992950439|-0.7032588124275208|-0.166322648525238|-0.01782506704330444|XArbitraryZVertical|-0.5266760448580926|-0.01051731935664729|0.1861307323432886|0.8293715401186877|0.1786156594753265|0.8775354623794556|-0.4450034499168396|0|0|0|-1|-1|3
2021-04-08 20:01:00.146 +0100|19190.132554625|-0.1008758544921875|0.9680023193359375|-0.6559600830078125|19190.112593625|0.7200765163985202|0.42720934907391|-1.061821941669104|-0.46778804063797|0.13402259349823|1.418712615966797|-0.6560291051864624|-0.244856595993042|-0.1353380084037781|XArbitraryZVertical|-0.5274898497532717|-0.00324434768529166|0.1964586842355288|0.8265277239389586|0.2018968313932419|0.8732447028160095|-0.4434878528118134|0|0|0|-1|-1|3
2021-04-08 20:01:00.166 +0100|19190.152514625|0.4539947509765625|1.097274780273438|-0.992584228515625|19190.132554625|0.7892294914095763|0.4890606279261735|-1.059621613001424|-0.6079442501068115|0.02702700346708298|1.643649935722351|-0.4052408933639526|-0.01195555925369263|-0.1909768581390381|XArbitraryZVertical|-0.5329666504097561|0.004342681950811633|0.2089289916589107|0.8199247182815083|0.2298257201910019|0.8721704483032227|-0.4318553805351257|0|0|0|-1|-1|3
2021-04-08 20:01:00.186 +0100|19190.172475625|1.912155151367188|0.6781005859375|-1.471206665039062|19190.152514625|0.8416487427387344|0.5379487538893772|-1.04532578811252|0.6678898334503174|0.4223751723766327|1.190846920013428|-0.01837068796157837|0.2487889528274536|-0.4618659317493439|XArbitraryZVertical|-0.5333192724975838|0.01358138481830303|0.2201641320481232|0.8166480364120081|0.257017970085144|0.8650879859924316|-0.4307721853256226|0|0|0|-1|-1|3
2021-04-08 20:01:00.206 +0100|19190.192436625|2.219680786132812|-0.18048095703125|-2.047210693359375|19190.172475625|0.8461054649132093|0.549015068980121|-1.011465239749252|2.180246829986572|-0.08429664373397827|1.087071895599365|1.264479398727417|-0.002913475036621094|-0.8916744589805603|XArbitraryZVertical|-0.5225569793685326|0.0247920091604206|0.2259630003578056|0.821742342197241|0.2769023776054382|0.8476102352142334|-0.4526391327381134|0|0|0|-1|-1|3
2021-04-08 20:01:00.226 +0100|19190.21239816667|2.225143432617188|-1.002426147460938|-2.884750366210938|19190.192436625|0.8482483874931817|0.5360866123965881|-0.9516035678044348|2.432619333267212|-1.041358232498169|1.842056274414062|1.998112678527832|-0.7816622257232666|-1.364198923110962|XArbitraryZVertical|-0.4994441289622698|0.03280126675806508|0.2421860353025351|0.8311592790841336|0.2964429557323456|0.8143472075462341|-0.4989592730998993|0|0|0|-1|-1|3
2021-04-08 20:01:00.246 +0100|19190.23235916667|2.022125244140625|-0.922149658203125|-2.93084716796875|19190.21239816667|0.862489870480316|0.5311637285064165|-0.904923650327653|1.231632113456726|-0.5186747908592224|1.210153818130493|1.899735331535339|-1.628937005996704|-2.177801370620728|XArbitraryZVertical|-0.4819042591835645|0.03811156986888714|0.2585178861819534|0.8363518501556211|0.3129110932350159|0.7863779664039612|-0.5326315760612488|0|0|0|-1|-1|3
2021-04-08 20:01:00.266 +0100|19190.25232016667|1.59332275390625|-0.2575531005859375|-2.275924682617188|19190.23235916667|0.863123723826916|0.5322665858138995|-0.8737021692708693|1.696977019309998|0.6919017434120178|0.3961045444011688|1.745333075523376|-1.825380325317383|-2.423825263977051|XArbitraryZVertical|-0.4704478297273825|0.0457113257410178|0.2645935884563846|0.840582895789367|0.325803279876709|0.7667109370231628|-0.553178608417511|0|0|0|-1|-1|3
2021-04-08 20:01:00.286 +0100|19190.27228116667|1.334884643554688|-0.0164642333984375|-1.429946899414062|19190.25232016667|0.8255633948606059|0.5365678740007277|-0.8340240412602629|2.825927257537842|2.679925680160522|-0.637146532535553|1.357138752937317|-1.144403219223022|-1.894659042358398|XArbitraryZVertical|-0.4549643233862444|0.06533553516719304|0.2553135417724089|0.8506196761527145|0.3434684872627258|0.7406411170959473|-0.5774774551391602|0|0|0|-1|-1|3
2021-04-08 20:01:00.306 +0100|19190.29224216667|0.752349853515625|0.5751190185546875|-0.5400238037109375|19190.27228116667|0.7491430966471899|0.5527955839404896|-0.7945159979614814|3.160059213638306|4.430346965789795|-1.706521034240723|1.053446650505066|-0.8013075590133667|-1.096988558769226|XArbitraryZVertical|-0.4384682628329337|0.09801224421825142|0.2263169812008626|0.8642452792906118|0.3678788542747498|0.7135245800018311|-0.5962783694267273|0|0|0|-1|-1|3
2021-04-08 20:01:00.326 +0100|19190.31220316667|0.0572509765625|2.116836547851562|0.749237060546875|19190.29224216667|0.6543213888436858|0.5914139458743527|-0.7629047265640678|3.192601442337036|5.987350940704346|-1.958836436271667|0.4905958473682404|-0.2967207431793213|-0.1779836416244507|XArbitraryZVertical|-0.4241396044478121|0.1416862459017733|0.1825817209783187|0.8756110201024349|0.4030043482780457|0.6910240054130554|-0.6000611782073975|0|0|0|-1|-1|3
2021-04-08 20:01:00.346 +0100|19190.33216316667|-0.1363677978515625|4.76531982421875|1.37188720703125|19190.31220316667|0.5450039984762077|0.6453883091104857|-0.7359646933795452|4.022878646850586|6.379095554351807|-2.884371757507324|-0.3122685551643372|0.9677059650421143|0.8696798086166382|XArbitraryZVertical|-0.4082141041347244|0.1931527255077275|0.1282921249162342|0.8829465010935689|0.4458283483982086|0.6713024973869324|-0.5921065211296082|0|0|0|-1|-1|3
2021-04-08 20:01:00.366 +0100|19190.35212416667|-3.146377563476562|1.588485717773438|-2.000640869140625|19190.33216316667|0.4311419755583727|0.6712541373225471|-0.6992240815442918|3.773517608642578|3.13691234588623|-1.556231617927551|-0.4968473315238953|3.680198907852173|1.94968318939209|XArbitraryZVertical|-0.3821256415536347|0.2330932056863578|0.0795461424404191|0.8906852810481671|0.4760186076164246|0.6436240673065186|-0.5992950797080994|0|0|0|-1|-1|3
2021-04-08 20:01:00.386 +0100|19190.37208516667|-5.950546264648438|-3.444793701171875|-0.695770263671875|19190.35212416667|0.3094518852851708|0.6591247583238432|-0.6818719692742642|3.967937231063843|6.085354804992676|-6.146453380584717|-2.38341236114502|2.101198673248291|-0.491065502166748|XArbitraryZVertical|-0.3595990562701066|0.2526016501532489|0.03050403980343877|0.8977474273085004|0.4754834175109863|0.6302475333213806|-0.613761842250824|0|0|0|-1|-1|3
2021-04-08 20:01:00.406 +0100|19190.39204616667|-1.216506958007812|2.694137573242188|2.723251342773438|19190.37208516667|0.2570344842086829|0.7904669733681855|-0.7484850425242447|-9.838069915771484|7.886698722839355|1.211726784706116|-6.93165111541748|-3.868913650512695|-1.321114301681519|XArbitraryZVertical|-0.3805329407344384|0.3121781880439484|-0.02949520134990401|0.8699824808960201|0.5207313299179077|0.6805294752120972|-0.5154789090156555|0|0|0|-1|-1|3
2021-04-08 20:01:00.425 +0100|19190.41200716667|1.372146606445312|3.346923828125|-0.9802093505859375|19190.39204616667|0.6635358277780052|1.22635915442759|-0.8415035356503289|-16.10454940795898|6.735057830810547|4.454851627349854|-2.426919221878052|0.7897554039955139|2.453365325927734|XArbitraryZVertical|-0.4869125477918448|0.3878340047677609|0.02091284135341996|0.7823450612957992|0.627205491065979|0.7456458210945129|-0.2250019162893295|0|0|0|-1|-1|3
2021-04-08 20:01:00.446 +0100|19190.43196816667|3.411895751953125|0.5350341796875|0.2472991943359375|19190.41200716667|1.020449183627869|1.618669230560266|-0.8253409306657798|-3.504853487014771|5.151180267333984|1.24723756313324|-0.2483004331588745|3.140557289123535|0.3742024898529053|XArbitraryZVertical|-0.5652999898331533|0.4434703745011693|0.05535771611998129|0.6933293018989981|0.6775294542312622|0.7347790598869324|0.03246010467410088|0|0|0|-1|-1|3
2021-04-08 20:01:00.465 +0100|19190.45192916667|0.8840789794921875|-1.190200805664062|0.4942779541015625|19190.43196816667|0.9465862504797237|1.603188423207576|-0.796746693806103|4.5629563331604|-2.775959968566895|1.679459095001221|2.922224521636963|0.6965972781181335|-0.05390393733978271|XArbitraryZVertical|-0.5420074114745856|0.4664200078349769|0.04415459479024059|0.6976610054445103|0.6986703276634216|0.7150856852531433|0.02263931557536125|0|0|0|-1|-1|3
2021-04-08 20:01:00.485 +0100|19190.47189016667|1.391021728515625|-0.1035308837890625|0.245941162109375|19190.45192916667|0.8142043031891999|1.446382597374446|-0.7994196503057781|3.80348539352417|-2.497213840484619|-2.215484142303467|0.4829472303390503|-1.9400954246521|0.5100926160812378|XArbitraryZVertical|-0.5092788627861468|0.4442757991127883|0.03695887015476455|0.7361305902569258|0.6917347311973572|0.7169516086578369|-0.08650811016559601|0|0|0|-1|-1|3
2021-04-08 20:01:00.505 +0100|19190.49185016667|1.111602783203125|0.7323150634765625|0.1897430419921875|19190.47189016667|0.7406688396236401|1.335026452901219|-0.8402120487625562|1.252660393714905|-3.513696670532227|-2.669429063796997|0.6119434833526611|-1.159578800201416|0.5086147785186768|XArbitraryZVertical|-0.5031646386024429|0.410958544608419|0.02416666010976565|0.7598384009576846|0.6488437652587891|0.7447846531867981|-0.1558768451213837|0|0|0|-1|-1|3
2021-04-08 20:01:00.525 +0100|19190.51181116667|0.382568359375|0.6337738037109375|0.3233489990234375|19190.49185016667|0.6684568588429538|1.198506430485675|-0.8843678770411854|1.981505513191223|-4.464447975158691|-2.774150848388672|0.7052907943725586|-0.1267242431640625|0.4244764149188995|XArbitraryZVertical|-0.5010276628618399|0.3656541844449013|0.01682894666868435|0.7842098585463981|0.5903627872467041|0.7735145092010498|-0.2305365949869156|0|0|0|-1|-1|3
2021-04-08 20:01:00.545 +0100|19190.53177216667|0.1873931884765625|0.45654296875|0.043182373046875|19190.51181116667|0.5681705266092747|1.035180950672748|-0.9150449943881178|1.898134827613831|-3.948172569274902|-2.719127893447876|-0.01230800151824951|-0.1212330460548401|0.5956253409385681|XArbitraryZVertical|-0.4928963317028374|0.3185164704394686|0.008715216808497741|0.8096447996102196|0.524361789226532|0.7925900220870972|-0.3112009167671204|0|0|0|-1|-1|3
2021-04-08 20:01:00.565 +0100|19190.55173316667|0.3548736572265625|0.543701171875|-0.1931610107421875|19190.53177216667|0.4914332534383705|0.9013236579871162|-0.9451292258420643|0.1234022825956345|-3.233745098114014|-2.334848880767822|-0.2555235028266907|-0.3103888034820557|0.5265176296234131|XArbitraryZVertical|-0.4917588368890206|0.2765099297794928|0.002667218374151507|0.8256563827148349|0.4592276215553284|0.810572624206543|-0.3634310066699982|0|0|0|-1|-1|3
2021-04-08 20:01:00.585 +0100|19190.57169416667|0.5388336181640625|1.021530151367188|-0.0910797119140625|19190.55173316667|0.4576784009033645|0.8201584080900678|-0.9870313352867407|-1.294934511184692|-2.198471784591675|-2.081367254257202|-0.1234891712665558|-0.3673364520072937|0.1992442011833191|XArbitraryZVertical|-0.5027700685807232|0.2434018206360841|-0.0007275544771524866|0.8294440110743297|0.4030447900295258|0.8343934416770935|-0.3759556114673615|0|0|0|-1|-1|3
2021-04-08 20:01:00.605 +0100|19190.59165516667|0.420135498046875|1.247955322265625|-0.0046844482421875|19190.57169416667|0.4435500751726374|0.7680786062794044|-1.032469119154383|-1.076325297355652|-1.92766547203064|-1.689993739128113|0.1722253262996674|0.04092347621917725|0.2311858236789703|XArbitraryZVertical|-0.5181181757349855|0.2171966679400807|-0.00304755507218531|0.8272665640966161|0.3562010824680328|0.8585675358772278|-0.3687583208084106|0|0|0|-1|-1|3
2021-04-08 20:01:00.625 +0100|19190.61161616667|0.301055908203125|0.9427947998046875|-0.14801025390625|19190.59165516667|0.4127252491113407|0.7027713092096743|-1.060130905690447|0.06554756313562393|-1.899782538414001|-1.350169897079468|0.1492926776409149|0.3742547631263733|0.3755587637424469|XArbitraryZVertical|-0.525473407439201|0.1933993987529512|-0.004349957757451951|0.8285261444735531|0.3159013390541077|0.8724194765090942|-0.3729487359523773|0|0|0|-1|-1|3
2021-04-08 20:01:00.645 +0100|19190.63157716667|0.2042083740234375|0.6327362060546875|-0.2466888427734375|19190.61161616667|0.3639174051376647|0.6242550997440691|-1.069893364300804|0.3429600596427917|-1.694903016090393|-1.113824009895325|0.03549259901046753|0.1568173766136169|0.2913213968276978|XArbitraryZVertical|-0.524959085891345|0.1720284874842266|-0.005811403198931588|0.8335410040704646|0.2806840837001801|0.8771492838859558|-0.3896483182907104|0|0|0|-1|-1|3
2021-04-08 20:01:00.665 +0100|19190.65153816667|0.070465087890625|0.8044281005859375|-0.2303924560546875|19190.63157716667|0.330488274878686|0.5635030886609248|-1.083188917912457|-0.6267478466033936|-1.450158953666687|-0.9408214688301086|-0.01324290037155151|-0.199587345123291|0.1341446936130524|XArbitraryZVertical|-0.527621508383297|0.153549340274145|-0.00598283868445418|0.8354653966234334|0.2502569854259491|0.8834563493728638|-0.3960762917995453|0|0|0|-1|-1|3
2021-04-08 20:01:00.685 +0100|19190.67149816667|-0.0109710693359375|1.045135498046875|-0.25958251953125|19190.65153816667|0.3257147240392368|0.5319625289108169|-1.110127236303137|-1.350222945213318|-1.279605865478516|-0.6695871949195862|-0.1219405978918076|-0.1702296733856201|0.1685490012168884|XArbitraryZVertical|-0.5379579049454436|0.137995041652535|-0.003740976838511117|0.8315918167413112|0.2254861146211624|0.8957552313804626|-0.3831173181533813|0|0|0|-1|-1|3
2021-04-08 20:01:00.705 +0100|19190.69145916667|-0.0812530517578125|1.063339233398438|-0.20941162109375|19190.67149816667|0.3272503697415484|0.5102228233131048|-1.136331696301532|-0.8122660517692566|-1.058273315429688|-0.5827383399009705|-0.2049124091863632|0.1059818267822266|0.1033380627632141|XArbitraryZVertical|-0.5483662347213487|0.1250493991444689|-0.001114708809920265|0.8268349488462312|0.2055678963661194|0.9070955514907837|-0.3673142492771149|0|0|0|-1|-1|3
2021-04-08 20:01:00.725 +0100|19190.71142016667|-0.16326904296875|0.9846343994140625|-0.288482666015625|19190.69145916667|0.3141939571988167|0.4781796457741198|-1.148424155001507|-0.03895587474107742|-0.9495689272880554|-0.4761352241039276|-0.2467695474624634|0.1569733619689941|0.1547793447971344|XArbitraryZVertical|-0.5523319923405698|0.1138260961496782|0.0005739370987954842|0.8258165061939552|0.1886329501867294|0.9121190905570984|-0.3639459908008575|0|0|0|-1|-1|3
2021-04-08 20:01:00.745 +0100|19190.73138116667|-0.160064697265625|0.9428558349609375|-0.3347320556640625|19190.71142016667|0.2895209367414537|0.4388478099459005|-1.149175496582314|0.3218806684017181|-0.7254338264465332|-0.4735380113124847|-0.3244439363479614|0.0941198468208313|0.1017244756221771|XArbitraryZVertical|-0.5512664954184038|0.1042811247770143|0.001124625520950992|0.8277860098248089|0.173884853720665|0.9124268293380737|-0.3704614043235779|0|0|0|-1|-1|3
2021-04-08 20:01:00.765 +0100|19190.75134216667|-0.08673095703125|0.9368438720703125|-0.3648834228515625|19190.73138116667|0.2639674478707363|0.4036263804341824|-1.148211175074253|0.1817406713962555|-0.4896564483642578|-0.4324398338794708|-0.331030011177063|0.04054450988769531|0.04725438356399536|XArbitraryZVertical|-0.5495841303575231|0.09682658165128109|0.0003475191801688298|0.8298084092743827|0.161077007651329|0.9120317697525024|-0.3771637976169586|0|0|0|-1|-1|3
2021-04-08 20:01:00.785 +0100|19190.77130316667|0.0282745361328125|0.9682464599609375|-0.4889068603515625|19190.75134216667|0.245019972486682|0.3774614493440784|-1.148819190498162|0.06051356345415115|-0.4182865917682648|-0.3106044828891754|-0.2598831951618195|0.0183073878288269|0.02972078323364258|XArbitraryZVertical|-0.5489386211202028|0.09110346680147863|-0.0004031069721087288|0.8308829750727442|0.1509500741958618|0.9122809767723083|-0.3807331025600433|0|0|0|-1|-1|3
2021-04-08 20:01:00.805 +0100|19190.79126416667|0.096038818359375|0.957855224609375|-0.56268310546875|19190.77130316667|0.2324604784895854|0.3580314092419111|-1.150832927374833|-0.03965943306684494|-0.3742803931236267|-0.2622566819190979|-0.1411262303590775|0.05605876445770264|-0.07682085037231445|XArbitraryZVertical|-0.5491989409085348|0.08627939661821883|-0.0005052325205451986|0.8312258215077126|0.142880380153656|0.9131038784980774|-0.3818727731704712|0|0|0|-1|-1|3
2021-04-08 20:01:00.825 +0100|19190.81122516667|0.1620025634765625|0.9167327880859375|-0.545074462890625|19190.79126416667|0.219802998747788|0.3405244779449222|-1.154105770574029|-0.1079904213547707|-0.2244235426187515|-0.3422488868236542|-0.05454778671264648|0.0473591685295105|-0.1677883267402649|XArbitraryZVertical|-0.5499989346737587|0.08217561565693669|-0.001290593029837545|0.8311118710358002|0.1351746171712875|0.9144334197044373|-0.3814966678619385|0|0|0|-1|-1|3
2021-04-08 20:01:00.845 +0100|19190.83118616667|0.30010986328125|0.888153076171875|-0.55731201171875|19190.81122516667|0.2052375777108287|0.3239068999534578|-1.160343703880883|-0.3003962635993958|-0.1232385635375977|-0.4014027118682861|0.01403772830963135|0.009009242057800293|-0.1635332107543945|XArbitraryZVertical|-0.5519634364487602|0.07873313288510185|-0.003369641399299037|0.8301362407362968|0.1269986182451248|0.9169403314590454|-0.3782749176025391|0|0|0|-1|-1|3
2021-04-08 20:01:00.865 +0100|19190.85114616667|0.3899383544921875|0.8908233642578125|-0.5753173828125|19190.83118616667|0.1898826937622363|0.3074482045834879|-1.169157249236932|-0.3289875090122223|-0.1382002383470535|-0.4509897232055664|0.1409254670143127|-0.02598124742507935|-0.1808539628982544|XArbitraryZVertical|-0.5549895586185715|0.07542041125626468|-0.005993373527245413|0.828409661498765|0.1183054745197296|0.9204214811325073|-0.3725967109203339|0|0|0|-1|-1|3
2021-04-08 20:01:00.885 +0100|19190.87110716667|0.3256683349609375|0.907928466796875|-0.581268310546875|19190.85114616667|0.1712822721337361|0.2860956102446546|-1.17830167677951|-0.3543176651000977|-0.3009129464626312|-0.5073373913764954|0.2767758071422577|-0.034232497215271|-0.1987862586975098|XArbitraryZVertical|-0.5581023255447507|0.07104885610968535|-0.008534326231781096|0.8266808749541893|0.1079434081912041|0.9239577651023865|-0.3669477105140686|0|0|0|-1|-1|3
2021-04-08 20:01:00.905 +0100|19190.89106816667|0.2397918701171875|0.9475250244140625|-0.58770751953125|19190.87110716667|0.1495098704229183|0.2584600915933652|-1.189349716436024|-0.4772597849369049|-0.4422775208950043|-0.5744836330413818|0.2529657185077667|-0.02575230598449707|-0.21756911277771|XArbitraryZVertical|-0.5619886083267154|0.06495661935827463|-0.01064846286010239|0.8245217933621481|0.09514766931533813|0.928127110004425|-0.3598988950252533|0|0|0|-1|-1|3
2021-04-08 20:01:00.925 +0100|19190.91102916667|0.1648101806640625|0.954376220703125|-0.5787506103515625|19190.89106816667|0.1233920705024623|0.2236745678753814|-1.200248647494029|-0.2847209870815277|-0.6213223338127136|-0.6034167408943176|0.1749236285686493|0.005936026573181152|-0.2290315926074982|XArbitraryZVertical|-0.5658277738937983|0.05732503403053249|-0.01234257919805899|0.822435838163315|0.08032477647066116|0.9321291446685791|-0.3531055450439453|0|0|0|-1|-1|3
2021-04-08 20:01:00.945 +0100|19190.93099016667|0.0663909912109375|0.903167724609375|-0.5674896240234375|19190.91102916667|0.09475567022738754|0.1828063815186186|-1.20339824743581|0.167430579662323|-0.7703126072883606|-0.4411484599113464|0.1238656938076019|0.02060818672180176|-0.2289027869701385|XArbitraryZVertical|-0.5666120596720494|0.04846519741281362|-0.01272868431531838|0.8224598038223495|0.06529690325260162|0.9332650899887085|-0.3532038033008575|0|0|0|-1|-1|3
2021-04-08 20:01:00.965 +0100|19190.95095116667|0.008544921875|0.7882843017578125|-0.5355682373046875|19190.93099016667|0.07056471386292471|0.1444435178411393|-1.19715998239717|0.5597943663597107|-0.8091334104537964|-0.3386978805065155|0.03477093949913979|-0.00559079647064209|-0.2180814445018768|XArbitraryZVertical|-0.5637540885731904|0.0397514736847138|-0.01156808030555342|0.8249044650411022|0.05253922939300537|0.9310062527656555|-0.3612022995948792|0|0|0|-1|-1|3
2021-04-08 20:01:00.985 +0100|19190.97091216667|-0.0671234130859375|0.7204437255859375|-0.508056640625|19190.95095116667|0.04979718859762117|0.1083597711924788|-1.185454319049827|0.6447781920433044|-0.8656532764434814|-0.2719601690769196|-0.01463457569479942|-0.1066621541976929|-0.1660307049751282|XArbitraryZVertical|-0.5587505889528357|0.03101485845352327|-0.009623082249255281|0.8286998131013914|0.04065020754933357|0.9266699552536011|-0.3736717104911804|0|0|0|-1|-1|3
2021-04-08 20:01:01.004 +0100|19190.99087316667|-0.1337127685546875|0.7035675048828125|-0.464080810546875|19190.97091216667|0.03525261178286924|0.07775697700661155|-1.174376235285756|0.4679579734802246|-0.8446303606033325|-0.183647945523262|-0.07706715166568756|-0.1947112083435059|-0.1422836780548096|XArbitraryZVertical|-0.554087795679913|0.02259574924452341|-0.0068686781745386|0.8321233316729207|0.0299931988120079|0.9224491715431213|-0.3849523067474365|0|0|0|-1|-1|3
2021-04-08 20:01:01.024 +0100|19191.01083416667|-0.2108306884765625|0.7324676513671875|-0.450286865234375|19190.99087316667|0.02888759517663938|0.05501148853805107|-1.167716429524847|0.2327366471290588|-0.8521283268928528|0.0002146472688764334|-0.1384046971797943|-0.210948646068573|-0.08220046758651733|XArbitraryZVertical|-0.5513123392253007|0.01498509871964575|-0.003112866856171847|0.8341586975780292|0.021567577496171|0.9198572635650635|-0.3916603028774261|0|0|0|-1|-1|3
2021-04-08 20:01:01.044 +0100|19191.03079416667|-0.182342529296875|0.7406158447265625|-0.4055633544921875|19191.01083416667|0.03242988122834162|0.04277623608676197|-1.163939189363998|0.1522563546895981|-0.6759364008903503|0.1254032850265503|-0.2139140069484711|-0.1942168474197388|-0.05342721939086914|XArbitraryZVertical|-0.5497619078495039|0.008953089890150194|0.00178800619784701|0.8352716593060964|0.01692247949540615|0.9183690547943115|-0.3953633606433868|0|0|0|-1|-1|3
2021-04-08 20:01:01.064 +0100|19191.05075516667|-0.10009765625|0.7275390625|-0.3688812255859375|19191.03079416667|0.03891651171226633|0.03756735441658121|-1.1624555553181|-0.03660698235034943|-0.4709959030151367|0.1471869647502899|-0.2168951481580734|-0.173746645450592|-0.02094709873199463|XArbitraryZVertical|-0.5491551175088664|0.005014294153930757|0.005948477177960201|0.8356842808253161|0.01491400692611933|0.9177809357643127|-0.3968070149421692|0|0|0|-1|-1|3
2021-04-08 20:01:01.084 +0100|19191.07071616667|0.0139617919921875|0.777557373046875|-0.3721923828125|19191.05075516667|0.04840578800669071|0.0371033056085375|-1.166308831942335|-0.3548416793346405|-0.4326740801334381|0.2021583467721939|-0.1346552670001984|-0.1904981732368469|0.01884251832962036|XArbitraryZVertical|-0.5507783955983004|0.002156232869421562|0.00998535923780903|0.8345890851567702|0.01459857728332281|0.9193041920661926|-0.3932770192623138|0|0|0|-1|-1|3
2021-04-08 20:01:01.104 +0100|19191.09067716667|0.0955352783203125|0.925811767578125|-0.3716583251953125|19191.07071616667|0.06001073099302764|0.03954728375133286|-1.175262389101347|-0.5106019973754883|-0.4220549762248993|0.2258657962083817|-0.03415508568286896|-0.1707610487937927|0.01891219615936279|XArbitraryZVertical|-0.5545267675959215|-0.0001806932363817459|0.01400684434238192|0.8320481185465057|0.01523364894092083|0.9227909445762634|-0.3850000500679016|0|0|0|-1|-1|3
2021-04-08 20:01:01.124 +0100|19191.11063816667|0.0438690185546875|1.0064697265625|-0.4085693359375|19191.09067716667|0.07321213797764965|0.04216060120293519|-1.183942670842344|-0.3410580158233643|-0.5684328675270081|0.2733702063560486|0.07302619516849518|-0.03233188390731812|0.01273038983345032|XArbitraryZVertical|-0.5581403655730077|-0.002936695943473069|0.01860971858176212|0.8295327110624995|0.01590150035917759|0.9261006712913513|-0.3769414126873016|0|0|0|-1|-1|3
2021-04-08 20:01:01.145 +0100|19191.13059916667|0.0487518310546875|0.985565185546875|-0.4468994140625|19191.11063816667|0.08998701101332682|0.0452836974709651|-1.18733828307325|-0.04384640231728554|-0.6423700451850891|0.3367364704608917|0.03504999354481697|0.0617750883102417|-0.03041225671768188|XArbitraryZVertical|-0.5595407109940197|-0.006407601621259211|0.0246206073029006|0.8284123836921318|0.01693619042634964|0.9273764491081238|-0.3737462759017944|0|0|0|-1|-1|3
2021-04-08 20:01:01.164 +0100|19191.15056016667|0.0725250244140625|0.877227783203125|-0.386383056640625|19191.13059916667|0.1100559983335453|0.05083747249376824|-1.185270239486466|0.2004393935203552|-0.6430337429046631|0.400251716375351|0.02889462001621723|0.08244818449020386|-0.07048299908638|XArbitraryZVertical|-0.5586825817778497|-0.009660439491197027|0.03143181355164806|0.8287294677420802|0.01910903118550777|0.9266007542610168|-0.3755609095096588|0|0|0|-1|-1|3
2021-04-08 20:01:01.184 +0100|19191.17052116667|-0.0026702880859375|0.8553314208984375|-0.242889404296875|19191.15056016667|0.1321981602275124|0.05923316632983874|-1.18070811923653|0.1479820907115936|-0.6054984927177429|0.4803236424922943|0.04487088322639465|-0.02399605512619019|-0.04143130779266357|XArbitraryZVertical|-0.556820724270468|-0.01220499001957979|0.03839953093618233|0.8296549937093597|0.0225114468485117|0.9248754978179932|-0.3796034455299377|0|0|0|-1|-1|3
2021-04-08 20:01:01.204 +0100|19191.19048216667|-0.118804931640625|0.883392333984375|-0.215728759765625|19191.17052116667|0.1600661251934319|0.07212948607804968|-1.180391647133503|-0.2102941125631332|-0.6813836693763733|0.5740432143211365|0.00200771726667881|-0.07268857955932617|0.1114470958709717|XArbitraryZVertical|-0.5567764534082316|-0.01460245650656109|0.04637754672628778|0.8292382622665557|0.02742602117359638|0.9247551560401917|-0.3795734941959381|0|0|0|-1|-1|3
2021-04-08 20:01:01.224 +0100|19191.210442125|-0.231353759765625|0.9744720458984375|-0.2134857177734375|19191.19048216667|0.1936305787437779|0.0886996833706829|-1.186802281055348|-0.5432741641998291|-0.7847534418106079|0.6160663366317749|-0.1267836093902588|-0.06357353925704956|0.1539322733879089|XArbitraryZVertical|-0.5595708452233079|-0.0174160543818532|0.05538447322501627|0.8267466120618668|0.03318574652075768|0.927175760269165|-0.3731543123722076|0|0|0|-1|-1|3
2021-04-08 20:01:01.244 +0100|19191.230403125|-0.4479827880859375|1.243392944335938|-0.1724853515625|19191.210442125|0.2320400009255227|0.1074032602851051|-1.196524133445604|-0.5823307633399963|-0.9733794331550598|0.7466257810592651|-0.2356937974691391|0.004971802234649658|0.1351420283317566|XArbitraryZVertical|-0.5637487045078829|-0.02104780125732584|0.06548894073651677|0.8230769731143461|0.03919069096446037|0.9307739734649658|-0.3634887635707855|0|0|0|-1|-1|3
2021-04-08 20:01:01.264 +0100|19191.250364125|-0.647430419921875|1.392974853515625|-0.2965240478515625|19191.230403125|0.2904115327344963|0.1386431597487197|-1.20578794733534|-0.5442949533462524|-1.344897627830505|1.256940484046936|-0.4346008896827698|0.2391127347946167|0.1900048851966858|XArbitraryZVertical|-0.5679691086283019|-0.02539577473180315|0.08003707905081292|0.818755411783169|0.04933132231235504|0.934120774269104|-0.3535322844982147|0|0|0|-1|-1|3
2021-04-08 20:01:01.284 +0100|19191.270325125|-0.506561279296875|1.090103149414062|-0.4181365966796875|19191.250364125|0.3768148532902932|0.1912340479418208|-1.207196348763008|-0.1223209053277969|-1.346296906471252|1.734431028366089|-0.6809548735618591|0.45108962059021|0.09996819496154785|XArbitraryZVertical|-0.5697385933267123|-0.02861389788301116|0.1002637371117998|0.815184999397162|0.06759700179100037|0.934622585773468|-0.3491583466529846|0|0|0|-1|-1|3
2021-04-08 20:01:01.304 +0100|19191.290286125|-0.0739898681640625|0.9993896484375|-0.53118896484375|19191.270325125|0.4714897935606457|0.2572368511404606|-1.195795538216445|0.2997495234012604|-0.9136595129966736|1.876992106437683|-0.6840345859527588|0.2318466901779175|-0.07380121946334839|XArbitraryZVertical|-0.5675765843081034|-0.02730973329333707|0.1212500768159573|0.813885512634713|0.09318341314792633|0.9305073618888855|-0.3542219996452332|0|0|0|-1|-1|3
2021-04-08 20:01:01.324 +0100|19191.310247125|0.4141387939453125|1.245315551757812|-0.9345703125|19191.290286125|0.5739920550234864|0.3337650287581511|-1.184569072029827|-0.3367488980293274|-1.017905116081238|2.059036254882812|-0.3035370409488678|0.07462501525878906|-0.1146101951599121|XArbitraryZVertical|-0.5669974810439447|-0.02365354883172926|0.142654427622391|0.8109279951873375|0.1234067529439926|0.9263368248939514|-0.3559087216854095|0|0|0|-1|-1|3
2021-04-08 20:01:01.344 +0100|19191.330208125|1.239822387695312|1.485610961914062|-1.74420166015625|19191.310247125|0.6878595903075435|0.4172410176930924|-1.178835461862548|-0.6222704648971558|-1.176868200302124|2.159382820129395|0.1191385984420776|0.2281062006950378|-0.439678966999054|XArbitraryZVertical|-0.5700278899734326|-0.02129051031767439|0.1658303611669228|0.8044348129027622|0.1548022031784058|0.9241617918014526|-0.3492298424243927|0|0|0|-1|-1|3
2021-04-08 20:01:01.364 +0100|19191.350169125|2.058059692382812|1.305252075195312|-2.508926391601562|19191.330208125|0.7883042689058207|0.4856676539694805|-1.164708251555779|0.4683025777339935|-1.285583138465881|1.976868510246277|0.8043597936630249|0.5387095808982849|-1.200417757034302|XArbitraryZVertical|-0.5700404438017439|-0.01959206158518886|0.1892092906828298|0.7992934017968863|0.1843942850828171|0.9186731576919556|-0.3493400812149048|0|0|0|-1|-1|3
2021-04-08 20:01:01.384 +0100|19191.370130125|2.639617919921875|0.152435302734375|-3.0814208984375|19191.350169125|0.8460811321363553|0.5103363915877525|-1.117829783688514|2.497153043746948|-1.393602609634399|2.431704521179199|1.700381994247437|0.505861759185791|-1.943932890892029|XArbitraryZVertical|-0.555719024438134|-0.01550982051665097|0.2147495839385478|0.8030059291208707|0.2137719094753265|0.8991528153419495|-0.3818716108798981|0|0|0|-1|-1|3
2021-04-08 20:01:01.404 +0100|19191.390090125|3.129928588867188|-1.080276489257812|-2.947784423828125|19191.370130125|0.8716640161030398|0.5103712195242108|-1.038315510090425|3.484290838241577|-0.8720775246620178|2.395191192626953|2.215441226959229|-0.3180468082427979|-2.566727161407471|XArbitraryZVertical|-0.5277270684840929|-0.003996514403277141|0.2411365766908943|0.8144578143948066|0.2479986101388931|0.8615502715110779|-0.442976325750351|0|0|0|-1|-1|3
2021-04-08 20:01:01.424 +0100|19191.410051125|2.319992065429688|-0.27728271484375|-2.257064819335938|19191.390090125|0.8868599870077224|0.5101317871925336|-0.9686664344846417|2.023813247680664|-0.4540652632713318|1.665091872215271|2.784680366516113|-1.750369429588318|-2.577887535095215|XArbitraryZVertical|-0.5027791956913379|0.008388831322605768|0.2612923110626763|0.8239352358462542|0.2765683829784393|0.8241311311721802|-0.4942854046821594|0|0|0|-1|-1|3
2021-04-08 20:01:01.444 +0100|19191.430012125|1.124984741210938|0.36798095703125|-1.580703735351562|19191.410051125|0.9021539085492178|0.5210361667263108|-0.9270022276505731|1.621874332427979|0.5674437284469604|1.134528279304504|2.348783493041992|-1.420322179794312|-1.881375551223755|XArbitraryZVertical|-0.4892287960707919|0.01903660165546347|0.2731412571526897|0.8280619830414581|0.2987841069698334|0.7998241782188416|-0.5205855965614319|0|0|0|-1|-1|3
2021-04-08 20:01:01.464 +0100|19191.449973125|0.772430419921875|0.32806396484375|-0.83251953125|19191.430012125|0.8766956024131841|0.5351165362629786|-0.8827668004551986|3.043637990951538|2.941645383834839|-0.3616420030593872|0.9709024429321289|-0.4495914578437805|-1.144502282142639|XArbitraryZVertical|-0.4744978852190414|0.04157258633419914|0.2678497613123808|0.8374844610106414|0.3238210678100586|0.7724987864494324|-0.5462469458580017|0|0|0|-1|-1|3
2021-04-08 20:01:01.484 +0100|19191.469934125|0.237579345703125|0.82666015625|0.1491851806640625|19191.449973125|0.7792111068085652|0.5420591331908242|-0.8247108829082102|4.859543323516846|5.060180187225342|-2.138339519500732|0.5241200923919678|-0.3854280710220337|-0.5107871890068054|XArbitraryZVertical|-0.4503652159042736|0.08023649935539744|0.2360291922228222|0.8573351739005912|0.3501778244972229|0.7343515753746033|-0.5814665555953979|0|0|0|-1|-1|3
2021-04-08 20:01:01.503 +0100|19191.489895125|-0.360565185546875|2.723098754882812|1.027923583984375|19191.469934125|0.6410633178741054|0.5566590341369924|-0.7701295140261232|4.659900188446045|5.982810974121094|-3.275349378585815|0.08780893683433533|-0.1031792759895325|0.4950227737426758|XArbitraryZVertical|-0.4229958538577722|0.1278698947951977|0.182817365963152|0.8782377891162212|0.3792623281478882|0.6962282061576843|-0.6094475984573364|0|0|0|-1|-1|3
2021-04-08 20:01:01.523 +0100|19191.509856125|-2.0633544921875|2.088790893554688|-1.802993774414062|19191.489895125|0.4814373458027607|0.5609681305220479|-0.7282140770289155|4.477904319763184|4.833710670471191|-4.029016494750977|-0.6765049695968628|1.353719711303711|1.440418720245361|XArbitraryZVertical|-0.3939997330361593|0.1696343380068297|0.1183283558222392|0.895537221952168|0.3970704078674316|0.6655377745628357|-0.6319767832756042|0|0|0|-1|-1|3
2021-04-08 20:01:01.543 +0100|19191.529817125|-6.925613403320312|-2.141983032226562|-0.4984130859375|19191.509856125|0.3635474779834548|0.5641187292818662|-0.7402167793599129|0.3196063041687012|4.795518398284912|-5.329585075378418|-1.634659051895142|2.30008602142334|-0.1178175210952759|XArbitraryZVertical|-0.3886077258071122|0.1924073541514605|0.06285472943075181|0.8988954136786645|0.3947598338127136|0.6744479537010193|-0.6239268779754639|0|0|0|-1|-1|3
2021-04-08 20:01:01.563 +0100|19191.549778125|-2.367141723632812|2.265243530273438|1.304046630859375|19191.529817125|0.2622553732919022|0.6248104478818537|-0.8147068201001969|-5.937994956970215|6.204053401947021|-0.8942171335220337|-6.448286533355713|-2.067367553710938|-0.9375091195106506|XArbitraryZVertical|-0.4106659378782458|0.230481977395082|-0.006477921777167651|0.8821505866813795|0.4013190865516663|0.72752445936203|-0.5564630627632141|0|0|0|-1|-1|3
2021-04-08 20:01:01.583 +0100|19191.569738125|-0.7645263671875|2.852996826171875|-0.6520843505859375|19191.549778125|0.5213259641310463|0.9391357032358979|-0.9488774894615962|-12.68143081665039|4.492890357971191|2.716058492660522|-3.759673357009888|0.4848766326904297|1.711553692817688|XArbitraryZVertical|-0.4973691163588336|0.2839306923974663|0.004704972427140408|0.8197471378925294|0.4701829552650452|0.8127620220184326|-0.3440146446228027|0|0|0|-1|-1|3
2021-04-08 20:01:01.603 +0100|19191.589699125|0.86566162109375|1.229888916015625|-0.3787078857421875|19191.569738125|0.8810819231086854|1.312877456820335|-0.9756588654463361|-4.915795803070068|3.501832485198975|3.013892889022827|-1.677119970321655|2.294060707092285|0.3464740514755249|XArbitraryZVertical|-0.5657387081956902|0.3293038349191049|0.03965915039660819|0.7549344343797096|0.5420790314674377|0.8280714154243469|-0.1429973989725113|0|0|0|-1|-1|3
2021-04-08 20:01:01.623 +0100|19191.609660125|1.686203002929688|-0.6489715576171875|0.436126708984375|19191.589699125|0.8820209475387071|1.376782169884044|-0.9269426182616843|4.053762435913086|2.465229272842407|1.764379739761353|-0.07206803560256958|0.7721422910690308|-0.6907228231430054|XArbitraryZVertical|-0.5547848619770817|0.3665334395779469|0.0380316918044498|0.7459361464012828|0.5890198945999146|0.7997884154319763|-0.1157339885830879|0|0|0|-1|-1|3
2021-04-08 20:01:01.643 +0100|19191.629621125|0.979522705078125|-0.325408935546875|0.6764678955078125|19191.609660125|0.7513167485915148|1.288335733705209|-0.883529917396025|3.916914701461792|-0.6962931752204895|0.4772027730941772|1.04685652256012|-0.9507472515106201|0.4908231496810913|XArbitraryZVertical|-0.5171933626336462|0.3796016977867571|0.02635286601528181|0.7666285048976277|0.6092860102653503|0.7729831337928772|-0.176827147603035|0|0|0|-1|-1|3
2021-04-08 20:01:01.663 +0100|19191.649582125|0.8125762939453125|0.6938323974609375|0.4134368896484375|19191.629621125|0.693115820139754|1.219832885225|-0.8770855007069569|0.09742514789104462|-1.611224174499512|-0.6897616982460022|0.5462938547134399|-1.441668272018433|0.9650960564613342|XArbitraryZVertical|-0.5035140862717785|0.3695411981727215|0.02331142622360043|0.7806213547084127|0.600418746471405|0.7688786387443542|-0.2198257297277451|0|0|0|-1|-1|3
2021-04-08 20:01:01.683 +0100|19191.669543125|0.8191070556640625|0.4855194091796875|0.141510009765625|19191.649582125|0.6713489888188406|1.17011940560403|-0.8927447327662825|0.9906551837921143|-1.668309688568115|-1.249845862388611|0.19428551197052|-0.215410590171814|0.6768090128898621|XArbitraryZVertical|-0.5038997470639847|0.3517853506588811|0.02261348499965951|0.7885562319149007|0.5775949358940125|0.778796374797821|-0.2446642220020294|0|0|0|-1|-1|3
2021-04-08 20:01:01.703 +0100|19191.689504125|0.391265869140625|0.121612548828125|-0.0020904541015625|19191.669543125|0.6049261247471328|1.076847099361341|-0.9031267166383511|2.065693378448486|-2.455931186676025|-1.553668141365051|0.345857560634613|-0.1798887252807617|0.5298908948898315|XArbitraryZVertical|-0.4950614309532518|0.3288475885711206|0.01648915522413954|0.8040532585880089|0.5451482534408569|0.7852666974067688|-0.2935468852519989|0|0|0|-1|-1|3
2021-04-08 20:01:01.723 +0100|19191.709465125|0.2025909423828125|0.391693115234375|0.028900146484375|19191.689504125|0.5299481219071004|0.968714678646273|-0.9165116985810615|0.8662906885147095|-2.311634302139282|-1.924033761024475|-0.007893919944763184|-0.6333418488502502|0.3515181839466095|XArbitraryZVertical|-0.4871976356241936|0.3004956782607308|0.009046452591779081|0.8199140162779088|0.5015760660171509|0.7934834957122803|-0.3446816205978394|0|0|0|-1|-1|3
2021-04-08 20:01:01.743 +0100|19191.729426125|0.2211151123046875|0.836517333984375|-0.0591888427734375|19191.709465125|0.4872586966799745|0.8929808694399338|-0.948202314301909|-0.4605622887611389|-1.924290418624878|-2.105591773986816|-0.2487478256225586|-0.5291036367416382|0.405481368303299|XArbitraryZVertical|-0.4922965321486718|0.2734981259106344|0.002267253063080613|0.8263400546533888|0.4542372226715088|0.8123685121536255|-0.3656857907772064|0|0|0|-1|-1|3
2021-04-08 20:01:01.763 +0100|19191.749386125|0.0961151123046875|0.985595703125|-0.203155517578125|19191.729426125|0.4508621988511364|0.824894960433853|-0.9854474018916979|-0.2880226969718933|-1.914024114608765|-2.030506372451782|-0.1775204837322235|-0.0915447473526001|0.3465734720230103|XArbitraryZVertical|-0.5013383806150556|0.2473668819513786|-0.004393705299371158|0.8291262716043525|0.4057912826538086|0.8335193395614624|-0.3749389052391052|0|0|0|-1|-1|3
2021-04-08 20:01:01.783 +0100|19191.769347125|0.01361083984375|0.8123931884765625|-0.21295166015625|19191.749386125|0.4008422094694274|0.7455313066879354|-1.011475877295868|0.4074730277061462|-1.743193030357361|-1.739847660064697|-0.2225567698478699|0.1373701691627502|0.2094807624816895|XArbitraryZVertical|-0.505579068185082|0.2224020442875557|-0.01070272535489083|0.8335543540548127|0.3599462509155273|0.8476158976554871|-0.3898542821407318|0|0|0|-1|-1|3
2021-04-08 20:01:01.803 +0100|19191.789308125|-0.0200347900390625|0.7267608642578125|-0.1538238525390625|19191.769347125|0.3396272293237613|0.6620409639185856|-1.022513235703767|0.6385059356689453|-1.419277787208557|-1.389086484909058|-0.2976143658161163|0.003040552139282227|0.1803052425384521|XArbitraryZVertical|-0.5039584862603017|0.201174917948944|-0.01734335134611325|0.839793951250034|0.3204103112220764|0.8534206748008728|-0.4111090004444122|0|0|0|-1|-1|3
2021-04-08 20:01:01.823 +0100|19191.809269125|0.0616607666015625|0.8246917724609375|-0.1159515380859375|19191.789308125|0.2962116703663879|0.5973447852860195|-1.032552079170417|-0.1929782032966614|-1.364820957183838|-1.045923233032227|-0.3030838668346405|-0.1193210482597351|0.2402348518371582|XArbitraryZVertical|-0.5043871202946034|0.1834786889175863|-0.02101522713038612|0.8434973133679792|0.2883279323577881|0.8586100339889526|-0.4238584041595459|0|0|0|-1|-1|3
2021-04-08 20:01:01.843 +0100|19191.829230125|0.1999053955078125|0.9835662841796875|-0.30126953125|19191.809269125|0.2810814647442833|0.5561932182547261|-1.052155566908609|-0.8802872896194458|-1.463490724563599|-0.6499350070953369|-0.2349147200584412|-0.09177500009536743|0.3261207044124603|XArbitraryZVertical|-0.5113473818504909|0.1674273512052005|-0.02000926735068687|0.8426693775564278|0.2617084383964539|0.8684937357902527|-0.4209838807582855|0|0|0|-1|-1|3
2021-04-08 20:01:01.863 +0100|19191.849191125|0.2645111083984375|0.916015625|-0.3677520751953125|19191.829230125|0.278427461936629|0.5246921509642263|-1.069255440513045|-0.3839461505413055|-1.430307030677795|-0.3549233675003052|-0.0731656551361084|0.0856974720954895|0.1634328067302704|XArbitraryZVertical|-0.5182925899596469|0.1527141846598448|-0.01554857983564749|0.8413141723627904|0.2408437877893448|0.8768427968025208|-0.4161023497581482|0|0|0|-1|-1|3
2021-04-08 20:01:01.883 +0100|19191.869152125|0.2516326904296875|0.900634765625|-0.330718994140625|19191.849191125|0.2710217191052978|0.4905246439235633|-1.071938638872239|0.2260674834251404|-1.340965628623962|-0.09379564970731735|0.03304252028465271|0.06497097015380859|0.04496628046035767|XArbitraryZVertical|-0.5190534969583674|0.1399228504412782|-0.01018407912168152|0.8431497689112202|0.2253796756267548|0.8781296610832214|-0.4220101237297058|0|0|0|-1|-1|3
2021-04-08 20:01:01.903 +0100|19191.889113125|0.176788330078125|0.9559783935546875|-0.3249969482421875|19191.869152125|0.2654704248476893|0.4596431097934479|-1.066673792984941|0.3692480325698853|-1.264989256858826|0.0817774161696434|0.04346086084842682|0.01524055004119873|0.09770086407661438|XArbitraryZVertical|-0.5166490749927202|0.1289230546849157|-0.003830322717729488|0.8464265888079885|0.2142899334430695|0.875598669052124|-0.4329051673412323|0|0|0|-1|-1|3
