loggingTime(txt)|accelerometerTimestamp_sinceReboot(s)|accelerometerAccelerationX(G)|accelerometerAccelerationY(G)|accelerometerAccelerationZ(G)|motionTimestamp_sinceReboot(s)|motionYaw(rad)|motionRoll(rad)|motionPitch(rad)|motionRotationRateX(rad/s)|motionRotationRateY(rad/s)|motionRotationRateZ(rad/s)|motionUserAccelerationX(G)|motionUserAccelerationY(G)|motionUserAccelerationZ(G)|motionAttitudeReferenceFrame(txt)|motionQuaternionX(R)|motionQuaternionY(R)|motionQuaternionZ(R)|motionQuaternionW(R)|motionGravityX(G)|motionGravityY(G)|motionGravityZ(G)|motionMagneticFieldX(µT)|motionMagneticFieldY(µT)|motionMagneticFieldZ(µT)|motionHeading(°)|motionMagneticFieldCalibrationAccuracy(Z)|label
2021-04-22 22:01:21.494 +0100|141022.1092971667|0.0153045654296875|-0.25482177734375|-0.9385986328125|141022.0893361667|0.9941716766342231|-0.04975831839038018|0.2813893156615064|-0.01603631861507893|0.1072834581136703|0.2124187648296356|0.03256909176707268|0.0922514796257019|0.02715402841567993|XArbitraryZVertical|-0.1349670633182367|-0.04520081538763989|-0.4689416853517766|-0.8716848833962076|-0.04778162762522697|-0.277690589427948|-0.9594815373420715|0|0|0|-1|-1|3
2021-04-22 22:01:21.506 +0100|141022.1292581667|0.0304412841796875|-0.2608642578125|-0.9339447021484375|141022.1092971667|0.9980687214093916|-0.04525180389779633|0.2817045465774578|-0.07191706448793411|0.2000431269407272|0.1949848383665085|0.03287941962480545|0.02033442258834839|0.02879798412322998|XArbitraryZVertical|-0.1339546637299171|-0.04750076169238767|-0.4709283167034581|-0.8706471878975475|-0.04345327988266945|-0.2779934108257294|-0.9595996737480164|0|0|0|-1|-1|3
2021-04-22 22:01:21.507 +0100|141022.1492191667|0.018463134765625|-0.279876708984375|-0.9295654296875|141022.1292581667|1.00154215593024|-0.0411032181389424|0.2805348205720898|-0.1127631291747093|0.1861843913793564|0.199873149394989|0.07036954909563065|0.006789952516555786|0.02825665473937988|XArbitraryZVertical|-0.1323846283679892|-0.04925806384305968|-0.4727661188950564|-0.8697932559837298|-0.03948527202010155|-0.2768695950508118|-0.9600958824157715|0|0|0|-1|-1|3
2021-04-22 22:01:21.520 +0100|141022.1691811667|0.0516510009765625|-0.259613037109375|-0.95135498046875|141022.1492191667|1.005929328174106|-0.0375654379596979|0.2775032137001289|-0.170145109295845|0.2236192226409912|0.264601081609726|0.05728421360254288|0.005615085363388062|0.029774010181427|XArbitraryZVertical|-0.1301233704995831|-0.05035809987954199|-0.4750324766438421|-0.8688361396401545|-0.03611978143453598|-0.273955225944519|-0.9610639214515686|0|0|0|-1|-1|3
2021-04-22 22:01:21.539 +0100|141022.1891421667|0.020263671875|-0.2410125732421875|-0.954376220703125|141022.1691811667|1.011196958039059|-0.03458791472624247|0.2713531003159051|-0.2824228405952454|0.1857781559228897|0.2892159819602966|0.08856824785470963|0.007370293140411377|0.007601916790008545|XArbitraryZVertical|-0.1266184201855675|-0.05051072978630411|-0.4777619620205159|-0.8678478998746915|-0.03331566974520683|-0.2680352628231049|-0.9628328680992126|0|0|0|-1|-1|3
2021-04-22 22:01:21.559 +0100|141022.2091031667|0.024383544921875|-0.2274932861328125|-0.9488372802734375|141022.1891421667|1.016646791358699|-0.03157906215102158|0.2663429161966353|-0.2439728975296021|0.209722101688385|0.2598767280578613|0.04469747096300125|0.02030131220817566|0.01206445693969727|XArbitraryZVertical|-0.1235920897948984|-0.05094640164547223|-0.4805123365095073|-0.8667396162516522|-0.03046051785349846|-0.2632050812244415|-0.9642589092254639|0|0|0|-1|-1|3
2021-04-22 22:01:21.579 +0100|141022.2290651667|0.0348052978515625|-0.2339324951171875|-0.9532928466796875|141022.2091031667|1.021669437827701|-0.02711840958989697|0.2623044913449376|-0.1811280846595764|0.2590456008911133|0.2663658857345581|0.04921364039182663|0.02741998434066772|0.01829606294631958|XArbitraryZVertical|-0.1206427527719239|-0.05220525237504444|-0.4831153977587838|-0.8656325278308649|-0.02618761360645294|-0.2593069076538086|-0.9654398560523987|0|0|0|-1|-1|3
2021-04-22 22:01:21.599 +0100|141022.2490261667|0.056488037109375|-0.253204345703125|-0.95635986328125|141022.2290651667|1.026884907698277|-0.02215969014784145|0.2588145746038091|-0.1825107038021088|0.281913161277771|0.2699926793575287|0.05537121742963791|0.02526858448982239|0.01340776681900024|XArbitraryZVertical|-0.1177966741447789|-0.05381064286622646|-0.4857964198122054|-0.8644248850098051|-0.02141988836228848|-0.2559347748756409|-0.9664567112922668|0|0|0|-1|-1|3
2021-04-22 22:01:21.619 +0100|141022.2689871667|0.08062744140625|-0.2441864013671875|-0.956817626953125|141022.2490261667|1.032083466796463|-0.01666937970735042|0.2551979761288144|-0.1952243447303772|0.2921418845653534|0.2751715481281281|0.06866530328989029|0.00495561957359314|0.01168340444564819|XArbitraryZVertical|-0.114757376064382|-0.05559937726632197|-0.4884901670126917|-0.8632015062747547|-0.01612876728177071|-0.2524369657039642|-0.9674789309501648|0|0|0|-1|-1|3
2021-04-22 22:01:21.639 +0100|141022.2889481667|0.0714263916015625|-0.2359161376953125|-0.961700439453125|141022.2689871667|1.037649891248278|-0.01185134398291702|0.2508498930046652|-0.2439192086458206|0.2662604153156281|0.2937874794006348|0.09297788143157959|-0.002458393573760986|0.009389758110046387|XArbitraryZVertical|-0.111547267453448|-0.05692375842720256|-0.4913124807532773|-0.8619334213608971|-0.01148014981299639|-0.2482273429632187|-0.968633770942688|0|0|0|-1|-1|3
2021-04-22 22:01:21.659 +0100|141022.3089101667|0.078033447265625|-0.23712158203125|-0.9469451904296875|141022.2889481667|1.043530175174163|-0.007539969200998126|0.2461401137001537|-0.2046976983547211|0.2343623042106628|0.2911970913410187|0.07727473974227905|0.01026469469070435|0.008147180080413818|XArbitraryZVertical|-0.1082893469424291|-0.05794069422553595|-0.4942366280690357|-0.8606082331198004|-0.007312646601349115|-0.2436622381210327|-0.9698325991630554|0|0|0|-1|-1|3
2021-04-22 22:01:21.679 +0100|141022.3288711667|0.093048095703125|-0.2342376708984375|-0.950531005859375|141022.3089101667|1.048968930274926|-0.003239908209271291|0.2419242695167469|-0.2040494084358215|0.2622606754302979|0.2579348683357239|0.08073704689741135|0.001077324151992798|0.02553045749664307|XArbitraryZVertical|-0.1052526774405338|-0.05903416653455244|-0.4969378553968486|-0.8593542768619553|-0.003145552705973387|-0.2395713031291962|-0.9708736538887024|0|0|0|-1|-1|3
2021-04-22 22:01:21.699 +0100|141022.3488321667|0.12310791015625|-0.245361328125|-0.9633941650390625|141022.3288711667|1.054029877065213|0.001863534779325024|0.2378273074481952|-0.2149240523576736|0.2790252864360809|0.2623256742954254|0.08899453282356262|0.001782134175300598|0.02075469493865967|XArbitraryZVertical|-0.1020711025036864|-0.06046704346456019|-0.4994990424093328|-0.8581527158177576|0.00181107921525836|-0.2355916500091553|-0.9718504548072815|0|0|0|-1|-1|3
2021-04-22 22:01:21.719 +0100|141022.3687931667|0.14617919921875|-0.23480224609375|-0.9742431640625|141022.3488321667|1.059261727946696|0.007603260454100656|0.2348386865779809|-0.1329439282417297|0.2742518484592438|0.2812382280826569|0.1073979362845421|-0.01293373107910156|0.01480567455291748|XArbitraryZVertical|-0.09919131036674768|-0.06244351322847143|-0.5021167319271665|-0.856820202566517|0.007394494023174047|-0.2326861023902893|-0.9725238084793091|0|0|0|-1|-1|3
2021-04-22 22:01:21.739 +0100|141022.3887551667|0.1247100830078125|-0.2198028564453125|-0.980712890625|141022.3687931667|1.064905840605323|0.01261996936745114|0.2327375811176307|-0.1189234331250191|0.2460805922746658|0.3054050803184509|0.1362044513225555|-0.01026271283626556|-0.002304553985595703|XArbitraryZVertical|-0.09684952628096367|-0.06433965011689034|-0.5048360448771408|-0.8553485703392321|0.0122793922200799|-0.2306421548128128|-0.9729611277580261|0|0|0|-1|-1|3
2021-04-22 22:01:21.759 +0100|141022.4087161667|0.125518798828125|-0.20550537109375|-0.983612060546875|141022.3887551667|1.071144346370833|0.01764381568509775|0.2302156452123779|-0.1734657436609268|0.2749291658401489|0.3165882229804993|0.1084182411432266|0.008843287825584412|-0.002654492855072021|XArbitraryZVertical|-0.09429549173535293|-0.06614774700468951|-0.5078076019570842|-0.8537355508921928|0.01717743091285229|-0.2281874865293503|-0.9734656810760498|0|0|0|-1|-1|3
2021-04-22 22:01:21.779 +0100|141022.4286771667|0.11053466796875|-0.1973724365234375|-1.007232666015625|141022.4087161667|1.07735353126491|0.02299429783528025|0.2263361108325661|-0.2489853501319885|0.2654410898685455|0.3121244311332703|0.1104224845767021|0.01231233775615692|-0.008367598056793213|XArbitraryZVertical|-0.09106831634839477|-0.06773327459351201|-0.5107998427823482|-0.8521751019618405|0.02240585722029209|-0.2244085967540741|-0.9742375016212463|0|0|0|-1|-1|3
2021-04-22 22:01:21.799 +0100|141022.4486381667|0.0927581787109375|-0.18792724609375|-1.003280639648438|141022.4286771667|1.08315842181127|0.02847384962506418|0.2217095712051005|-0.2852332293987274|0.238332599401474|0.2713688313961029|0.08146512508392334|0.02328905463218689|-0.02848899364471436|XArbitraryZVertical|-0.08749324684742078|-0.06914602383011439|-0.5136233452093319|-0.8507379184857091|0.02777313999831676|-0.219897672533989|-0.9751275181770325|0|0|0|-1|-1|3
2021-04-22 22:01:21.819 +0100|141022.4686001667|0.0875396728515625|-0.1657867431640625|-1.005859375|141022.4486381667|1.087320564577745|0.03410626670922565|0.2160286806240824|-0.3440040349960327|0.2162077575922012|0.1698025912046432|0.06523480266332626|0.02096331119537354|-0.02393388748168945|XArbitraryZVertical|-0.08347860615626873|-0.07026475674587479|-0.5157558597976876|-0.8497589885879558|0.03330705687403679|-0.2143523097038269|-0.9761883616447449|0|0|0|-1|-1|3
2021-04-22 22:01:21.838 +0100|141022.4885611667|0.0974884033203125|-0.156005859375|-1.010986328125|141022.4686001667|1.090150376485875|0.03901465767909344|0.2095521498735254|-0.3323847055435181|0.1378616690635681|0.1214825585484505|0.05149448662996292|0.03980985283851624|-0.03090584278106689|XArbitraryZVertical|-0.07935384215361779|-0.07080283354677834|-0.5172853025028914|-0.8491796596754615|0.03815149888396263|-0.2080218642950058|-0.9773798584938049|0|0|0|-1|-1|3
2021-04-22 22:01:21.858 +0100|141022.5085221667|0.078887939453125|-0.111328125|-1.006088256835938|141022.4885611667|1.091782591849066|0.04249963603703749|0.2036532405202239|-0.2839284241199493|0.05076665058732033|0.0497257262468338|0.04686224460601807|0.04171158373355865|-0.02840143442153931|XArbitraryZVertical|-0.07588319690344306|-0.07082914962314615|-0.5182201359140401|-0.8489246512985842|0.04160882160067558|-0.2022484093904495|-0.9784499406814575|0|0|0|-1|-1|3
2021-04-22 22:01:21.879 +0100|141022.5284841667|0.040618896484375|-0.1299591064453125|-1.032577514648438|141022.5085221667|1.092213994362375|0.04389640938064042|0.1982501741806614|-0.215336799621582|-0.0286143496632576|-0.001745541114360094|0.04804227873682976|0.07808901369571686|-0.02755087614059448|XArbitraryZVertical|-0.07320635959929669|-0.07004772586829082|-0.5185464133266607|-0.8490251965464307|0.04302277788519859|-0.1969540864229202|-0.9794682860374451|0|0|0|-1|-1|3
2021-04-22 22:01:21.899 +0100|141022.5484451667|-0.101287841796875|-0.1800384521484375|-0.8145294189453125|141022.5284841667|1.091252461926761|0.04253219659150942|0.1969427350365587|0.1606159657239914|-0.2855168879032135|-0.07293254882097244|0.009374320507049561|0.07877539098262787|-0.0522000789642334|XArbitraryZVertical|-0.07303677286372036|-0.06909684932104625|-0.5181096973999821|-0.8493843822383391|0.04169744998216629|-0.1956720799207687|-0.9797825217247009|0|0|0|-1|-1|3
2021-04-22 22:01:21.919 +0100|141022.5684061667|-0.359344482421875|-0.26483154296875|-0.3717803955078125|141022.5484451667|1.086417546222402|0.03644346477741797|0.2047637363633714|0.6568506956100464|-0.478564590215683|-0.2552717328071594|-0.05641032755374908|0.06043818593025208|0.07724416255950928|XArbitraryZVertical|-0.07810818968226145|-0.06833478849116531|-0.5156876851745704|-0.8504679244857833|0.03567422926425934|-0.2033358365297318|-0.9784589409828186|0|0|0|-1|-1|3
2021-04-22 22:01:21.938 +0100|141022.5883671667|-0.446533203125|-0.68304443359375|0.214202880859375|141022.5684061667|1.074732087217003|0.02949843863278185|0.2230201305614198|0.8792480826377869|-0.8976331353187561|-1.041661024093628|-0.3074038624763489|-0.0318596363067627|0.4330156445503235|XArbitraryZVertical|-0.08808243110277628|-0.06954610676403612|-0.5100504437178968|-0.8527916063809505|0.02876370586454868|-0.221175953745842|-0.9748096466064453|0|0|0|-1|-1|3
2021-04-22 22:01:21.959 +0100|141022.6083291667|-0.3249969482421875|-1.06353759765625|0.3944854736328125|141022.5883671667|1.043356470907628|0.0223969621182696|0.2407592715846825|0.7069642543792725|-0.7290579676628113|-1.884237766265869|-0.4940996766090393|-0.3006062507629395|1.024776935577393|XArbitraryZVertical|-0.09856870862571201|-0.06947938657069096|-0.4958643213690807|-0.8599857489482157|0.02174915373325348|-0.238440066576004|-0.9709136486053467|0|0|0|-1|-1|3
2021-04-22 22:01:21.979 +0100|141022.6282901667|-0.282501220703125|-0.84765625|0.658599853515625|141022.6083291667|1.002502888760352|0.01354224584442667|0.2442227244729795|-0.3881732821464539|-1.366894483566284|-1.963662624359131|-0.3614823818206787|-0.771273672580719|1.378134250640869|XArbitraryZVertical|-0.1035916306006234|-0.06442418557835608|-0.4776576233633413|-0.8700354449813834|0.0131399855017662|-0.2418021857738495|-0.970236599445343|0|0|0|-1|-1|3
2021-04-22 22:01:21.998 +0100|141022.6482511667|-0.3348236083984375|-0.5768585205078125|0.8509368896484375|141022.6282901667|0.9630828685432066|-0.01738284264303185|0.2204275384284848|-1.825634479522705|-2.69184947013855|-1.998533487319946|-0.2629300951957703|-0.7381240129470825|1.495782852172852|XArbitraryZVertical|-0.1014800889295475|-0.0432836268365762|-0.459471130945161|-0.8813141805638856|-0.01696139387786388|-0.218646839261055|-0.9756566286087036|0|0|0|-1|-1|3
2021-04-22 22:01:22.018 +0100|141022.6682121667|-0.5282745361328125|-0.7449951171875|0.9946136474609375|141022.6482511667|0.9112997439256957|-0.0726519134787323|0.1827597689144081|-2.049145460128784|-3.886611938476562|-3.052074193954468|-0.2499705851078033|-0.4230828285217285|1.837105393409729|XArbitraryZVertical|-0.09780355713142161|-0.007652348637803608|-0.4349449044469159|-0.8950971441487379|-0.07137912511825562|-0.1817440688610077|-0.9807518124580383|0|0|0|-1|-1|3
2021-04-22 22:01:22.038 +0100|141022.6881741667|-1.2191162109375|-0.7346954345703125|1.04595947265625|141022.6682121667|0.8309640404940376|-0.1541691130827956|0.1401896573046111|-3.527511119842529|-5.681951999664307|-4.279425144195557|-0.2867440581321716|-0.5356220602989197|1.922826886177063|XArbitraryZVertical|-0.09489508242128918|0.04209817216616501|-0.396509555961979|-0.9121419388548642|-0.1520526260137558|-0.1397309154272079|-0.9784453511238098|0|0|0|-1|-1|3
2021-04-22 22:01:22.058 +0100|141022.7081351667|-2.461883544921875|-0.0047607421875|0.639862060546875|141022.6881741667|0.7204101828049702|-0.2747499257931056|0.06353483854259392|-6.372808456420898|-7.358502388000488|-4.69110631942749|-0.720162034034729|-0.7345872521400452|1.980799436569214|XArbitraryZVertical|-0.07768719676898275|0.1170006298236634|-0.3448988843988741|-0.9280736185847839|-0.2707588374614716|-0.06349210441112518|-0.9605510830879211|0|0|0|-1|-1|3
2021-04-22 22:01:22.078 +0100|141022.7280961667|-3.38446044921875|1.138290405273438|-0.1629791259765625|141022.7081351667|0.5775988915719648|-0.4186529885538066|-0.04620050174402165|-8.60451602935791|-6.677188396453857|-5.065912246704102|-1.693238377571106|-0.2773993909358978|1.827701568603516|XArbitraryZVertical|-0.03750800570028265|0.2055770148303314|-0.2831114000233086|-0.9360445040587592|-0.4060963690280914|0.04618406668305397|-0.9126625061035156|0|0|0|-1|-1|3
2021-04-22 22:01:22.098 +0100|141022.7480571667|-2.804718017578125|1.582351684570312|-0.6580047607421875|141022.7280961667|0.3986354509561412|-0.5458300794375087|-0.1558078726167437|-8.979556083679199|-4.299328804016113|-5.707540988922119|-2.806633949279785|0.680974006652832|0.8073562383651733|XArbitraryZVertical|0.02025387019392213|0.2782411336854458|-0.2106558153105117|-0.9369076177568539|-0.5128392577171326|0.1551782339811325|-0.8443433046340942|0|0|0|-1|-1|3
2021-04-22 22:01:22.118 +0100|141022.7680191667|-2.43255615234375|0.8657989501953125|-0.85870361328125|141022.7480571667|0.202274658616954|-0.6549949759556964|-0.2160304823132298|-6.921619892120361|-3.060838937759399|-6.646499633789062|-2.409871578216553|1.440050601959229|0.2350975275039673|XArbitraryZVertical|0.06926530641944414|0.3284716698978414|-0.1295426001049756|-0.9330206568325317|-0.5949960947036743|0.2143540680408478|-0.7746173739433289|0|0|0|-1|-1|3
2021-04-22 22:01:22.138 +0100|141022.7879801667|-2.31085205078125|0.928436279296875|-0.9837799072265625|141022.7680191667|0.01481956499122673|-0.7530193893273045|-0.2283812508574152|-6.28549861907959|-2.571503400802612|-6.393192768096924|-1.798938870429993|0.7650244235992432|-0.1214706897735596|XArbitraryZVertical|0.103251795630618|0.3660574141180583|-0.04873871682319724|-0.9235615004605975|-0.666088342666626|0.2264011055231094|-0.7106820940971375|0|0|0|-1|-1|3
2021-04-22 22:01:22.158 +0100|141022.8079411667|-1.958786010742188|0.4479522705078125|-0.7047576904296875|141022.7879801667|-0.168689536995059|-0.8383254317720692|-0.2309774393525839|-6.698356628417969|-1.76111376285553|-6.047793388366699|-1.632773876190186|0.6467736959457397|-0.3316847681999207|XArbitraryZVertical|0.1389412173797452|0.393980112470367|0.02970683812430197|-0.908070786842164|-0.7237786650657654|0.2289291173219681|-0.650950014591217|0|0|0|-1|-1|3
2021-04-22 22:01:22.178 +0100|141022.8279031667|-2.111251831054688|-0.6677398681640625|0.0469818115234375|141022.8079411667|-0.3568173088554505|-0.9127593674419866|-0.218835439150897|-6.592669486999512|-1.669457077980042|-6.71037769317627|-1.282485008239746|0.4497015476226807|-0.2148023247718811|XArbitraryZVertical|0.1742082337028191|0.4137168786902112|0.1109878445628529|-0.8866632365121546|-0.7723250985145569|0.2170929759740829|-0.5969796776771545|0|0|0|-1|-1|3
2021-04-22 22:01:22.198 +0100|141022.8478641667|-2.966598510742188|-0.8806304931640625|0.683685302734375|141022.8279031667|-0.5409950839893555|-0.9918659782615539|-0.1765060093867447|-5.605217456817627|-2.62730884552002|-7.111108779907227|-1.146919727325439|-0.5924452543258667|0.3668610453605652|XArbitraryZVertical|0.2013593364140351|0.4360507588644643|0.1936882176958444|-0.855452599700088|-0.8240433931350708|0.1755909472703934|-0.5386282801628113|0|0|0|-1|-1|3
2021-04-22 22:01:22.218 +0100|141022.8678251667|-3.28314208984375|0.3061676025390625|0.3051300048828125|141022.8478641667|-0.7073741287949992|-1.07039285770276|-0.1143631177692857|-5.807831764221191|-2.467550277709961|-6.588076591491699|-1.892731904983521|-1.088189005851746|1.002159237861633|XArbitraryZVertical|0.2224739624012801|0.4606328045473866|0.2700970276024799|-0.8157024049239985|-0.87165766954422|0.114113986492157|-0.4766454994678497|0|0|0|-1|-1|3
2021-04-22 22:01:22.238 +0100|141022.8877861667|-2.967941284179688|1.8328857421875|-0.1830291748046875|141022.8678251667|-0.8734595656505827|-1.125233317887927|-0.0638383597559715|-6.174246311187744|-1.426807880401611|-5.385308742523193|-2.364088296890259|-0.1605050265789032|0.8413136005401611|XArbitraryZVertical|0.2499632687653131|0.4716718106407607|0.3421742039801266|-0.77327933565792|-0.9005300998687744|0.06379500776529312|-0.4300881326198578|0|0|0|-1|-1|3
2021-04-22 22:01:22.258 +0100|141022.9077481667|-2.011215209960938|1.79351806640625|-0.2276611328125|141022.8877861667|-1.009382863914468|-1.145047280091627|-0.02008838089096533|-4.071728229522705|0.005229581613093615|-4.220172882080078|-2.191200256347656|1.490670442581177|0.3236722052097321|XArbitraryZVertical|0.2693353427725052|0.4701048689833486|0.4016473003611946|-0.7383355796607296|-0.9105459451675415|0.02008702978491783|-0.4129197597503662|0|0|0|-1|-1|3
2021-04-22 22:01:22.281 +0100|141022.9277091667|-1.847335815429688|0.7961578369140625|0.0836944580078125|141022.9077481667|-1.085095767392777|-1.135601641815683|0.02856332341821093|-0.6035780310630798|0.5012222528457642|-3.453415155410767|-1.353973627090454|2.063563108444214|0.1968372166156769|XArbitraryZVertical|0.2673264421327239|0.4667216242899055|0.4418345492495997|-0.7179761835550422|-0.9064181447029114|-0.02855943888425827|-0.4214150011539459|0|0|0|-1|-1|3
2021-04-22 22:01:22.298 +0100|141022.9476701667|-1.960296630859375|0.4761199951171875|-0.2451171875|141022.9277091667|-1.104441669967175|-1.134261599592387|0.0888636621321351|0.8282963037490845|-0.378985732793808|-2.872424125671387|-0.890811026096344|1.068711876869202|0.4727245271205902|XArbitraryZVertical|0.2496382924021493|0.4765647883875629|0.4623323249238873|-0.7048515217554352|-0.902646541595459|-0.08874675631523132|-0.4211334586143494|0|0|0|-1|-1|3
2021-04-22 22:01:22.318 +0100|141022.9676311667|-1.533843994140625|0.5711212158203125|-0.528350830078125|141022.9476701667|-1.119019107482729|-1.1393793086255|0.1422390224156794|-0.04466212168335915|-0.1874537467956543|-2.646694660186768|-1.083969593048096|0.6492671370506287|0.276424378156662|XArbitraryZVertical|0.2348456078953981|0.4877292325643859|0.4782984229263906|-0.6915189293691942|-0.8992005586624146|-0.1417598724365234|-0.4139354825019836|0|0|0|-1|-1|3
2021-04-22 22:01:22.338 +0100|141022.9875931667|-1.164260864257812|0.725067138671875|-0.538421630859375|141022.9676311667|-1.153733459721768|-1.132648037887377|0.1836801055021511|-1.250609040260315|0.2493935525417328|-2.543837785720825|-0.7722920775413513|0.713608980178833|-0.06534001231193542|XArbitraryZVertical|0.2265234753480351|0.4900243341043458|0.4995555554982934|-0.6775009849719847|-0.8903060555458069|-0.1826490014791489|-0.4171265363693237|0|0|0|-1|-1|3
2021-04-22 22:01:22.358 +0100|141023.0075541667|-1.056503295898438|0.7239990234375|-0.4197998046875|141022.9875931667|-1.204057959129583|-1.116750707517823|0.2143981484452248|-1.769808530807495|0.2825085520744324|-2.372264623641968|-0.3500454425811768|0.9094907641410828|-0.1207677125930786|XArbitraryZVertical|0.2235273115338695|0.4855451734875932|0.5242652438736156|-0.6628933185214476|-0.8781045079231262|-0.2127593904733658|-0.4285628497600555|0|0|0|-1|-1|3
2021-04-22 22:01:22.378 +0100|141023.02751675|-0.9530487060546875|0.64556884765625|-0.36309814453125|141023.0075541667|-1.259282514222861|-1.099699037235569|0.2398334504712339|-1.927565455436707|0.1705955862998962|-2.340601444244385|-0.2087903618812561|0.9734262228012085|-0.005505889654159546|XArbitraryZVertical|0.2230639899374031|0.4793804717977221|0.5489798394554125|-0.6473469378071255|-0.8655662536621094|-0.2375408411026001|-0.4408736526966095|0|0|0|-1|-1|3
2021-04-22 22:01:22.398 +0100|141023.04747775|-0.7943878173828125|0.640106201171875|-0.42218017578125|141023.02751675|-1.319462318135862|-1.082018991374437|0.2617546956113491|-2.261402130126953|0.1281876713037491|-2.285624265670776|-0.1326863765716553|0.9249438047409058|0.08845680952072144|XArbitraryZVertical|0.2245549930384227|0.4720155189162041|0.5739882558702242|-0.6303285657485245|-0.8528335690498352|-0.2587758898735046|-0.4535528123378754|0|0|0|-1|-1|3
2021-04-22 22:01:22.418 +0100|141023.06743975|-0.637725830078125|0.72735595703125|-0.4731292724609375|141023.04747775|-1.385345647593549|-1.061794465541132|0.2774038142106053|-2.51856803894043|0.1350748240947723|-2.124076128005981|0.004077315330505371|0.8995764255523682|0.06610450148582458|XArbitraryZVertical|0.2284707188443397|0.4620206767977244|0.5992754003906635|-0.6125415370883587|-0.8398474454879761|-0.2738596498966217|-0.4686760604381561|0|0|0|-1|-1|3
2021-04-22 22:01:22.438 +0100|141023.08740075|-0.5688629150390625|0.691162109375|-0.4753875732421875|141023.06743975|-1.449696914729324|-1.041343697076739|0.2887633936439681|-2.209681510925293|0.08529213815927505|-1.94023323059082|0.1543446779251099|0.9899057149887085|0.01958179473876953|XArbitraryZVertical|0.2329610932586392|0.4512806080946664|0.6227584831824881|-0.5951865476612987|-0.8273493051528931|-0.2847670316696167|-0.4841498732566833|0|0|0|-1|-1|3
2021-04-22 22:01:22.458 +0100|141023.10736175|-0.5202789306640625|0.5114898681640625|-0.4663238525390625|141023.08740075|-1.50465679382195|-1.024637175187052|0.3001774002687338|-1.763423442840576|0.00876077264547348|-1.735248923301697|0.2380826473236084|1.021229267120361|0.01864510774612427|XArbitraryZVertical|0.2360547075331889|0.4429295845234434|0.6424252326958786|-0.5791212696151532|-0.8163148760795593|-0.2956896722316742|-0.4961831271648407|0|0|0|-1|-1|3
2021-04-22 22:01:22.478 +0100|141023.12732375|-0.4174652099609375|0.482391357421875|-0.449676513671875|141023.10736175|-1.553683960543155|-1.009368028685198|0.3097060333294342|-1.825019121170044|0.04559644684195518|-1.552610516548157|0.266487717628479|0.8552389144897461|0.03073352575302124|XArbitraryZVertical|0.2386369900857125|0.4353381518779241|0.659472270440348|-0.5644728627822561|-0.8062220811843872|-0.304778665304184|-0.5070661902427673|0|0|0|-1|-1|3
2021-04-22 22:01:22.498 +0100|141023.14728475|-0.3110198974609375|0.6436767578125|-0.474090576171875|141023.12732375|-1.606253729343371|-0.9922814638340984|0.3124981836290304|-2.24645209312439|0.0378224104642868|-1.379433989524841|0.3514580130577087|0.7733175158500671|0.07689553499221802|XArbitraryZVertical|0.2433117165486021|0.4250288770485935|0.6765101278477788|-0.5499856265025886|-0.7967252135276794|-0.3074367940425873|-0.5202997326850891|0|0|0|-1|-1|3
2021-04-22 22:01:22.518 +0100|141023.16724575|-0.27313232421875|0.7888031005859375|-0.529022216796875|141023.14728475|-1.661056193260064|-0.9757466314494468|0.3081603711301152|-2.23986029624939|-0.07802098989486694|-1.152808666229248|0.453493058681488|0.9003972411155701|0.06364041566848755|XArbitraryZVertical|0.2505338694439099|0.4125053681997653|0.6929490770797805|-0.5356246803212853|-0.789110541343689|-0.3033061921596527|-0.5341442227363586|0|0|0|-1|-1|3
2021-04-22 22:01:22.538 +0100|141023.18720675|-0.3581695556640625|0.818634033203125|-0.5679779052734375|141023.16724575|-1.707830521189043|-0.965421817340761|0.3026202698189494|-1.692854285240173|-0.2978383004665375|-0.9108584523200989|0.5142167210578918|1.061113834381104|0.03672683238983154|XArbitraryZVertical|0.2582081280735729|0.4021481084084446|0.7060649218366152|-0.5225685937933139|-0.7849233746528625|-0.2980224192142487|-0.5432109236717224|0|0|0|-1|-1|3
2021-04-22 22:01:22.557 +0100|141023.20716875|-0.4657135009765625|0.752532958984375|-0.4996795654296875|141023.18720675|-1.7394210062055|-0.9631874545585019|0.3006265500033822|-0.8930020928382874|-0.3912044763565063|-0.6546280384063721|0.4566636085510254|1.118032693862915|-0.02629184722900391|XArbitraryZVertical|0.2643460122167383|0.3968254433089874|0.7143326479874188|-0.512230206249717|-0.7841939330101013|-0.2961187064647675|-0.5453014969825745|0|0|0|-1|-1|3
2021-04-22 22:01:22.577 +0100|141023.22712975|-0.499359130859375|0.6981353759765625|-0.4718475341796875|141023.20716875|-1.755124785466088|-0.9664258582180096|0.3032616110018237|-0.2348367869853973|-0.408430814743042|-0.4112934470176697|0.338090717792511|1.072941064834595|0.02508759498596191|XArbitraryZVertical|0.2678085398213902|0.3963857469138466|0.7181503397153567|-0.5053882010927123|-0.7853109240531921|-0.2986345589160919|-0.5423138737678528|0|0|0|-1|-1|3
2021-04-22 22:01:22.597 +0100|141023.24709075|-0.5369415283203125|0.6432647705078125|-0.5505828857421875|141023.22712975|-1.758756006028184|-0.974669995656267|0.3067870061954837|0.06589026004076004|-0.5329697132110596|-0.05514520406723022|0.2969962954521179|1.011636972427368|0.06034374237060547|XArbitraryZVertical|0.2704113614590875|0.3990792706341269|0.7182916739390325|-0.5016679180437776|-0.7888789772987366|-0.3019972145557404|-0.5352268815040588|0|0|0|-1|-1|3
2021-04-22 22:01:22.617 +0100|141023.26705275|-0.6113128662109375|0.5416107177734375|-0.56707763671875|141023.24709075|-1.75602833332073|-0.9878520874738468|0.3040611306364428|-0.01757972128689289|-0.7065636515617371|0.4309729337692261|0.2727611064910889|0.9559671878814697|-0.004185259342193604|XArbitraryZVertical|0.2754238794385921|0.4019020928833602|0.7155451121454445|-0.5006113694653798|-0.796549916267395|-0.2993974983692169|-0.5252327919006348|0|0|0|-1|-1|3
2021-04-22 22:01:22.637 +0100|141023.28701375|-0.622528076171875|0.4307861328125|-0.5452728271484375|141023.26705275|-1.750669322617337|-1.004398265220062|0.2904854176133961|-0.3416662216186523|-0.7555845975875854|1.001865983009338|0.2140038013458252|0.8585602045059204|-0.05727958679199219|XArbitraryZVertical|0.2843868581392054|0.4025747234761809|0.7105130799386717|-0.5022241101117316|-0.8084866404533386|-0.2864173352718353|-0.5141153931617737|0|0|0|-1|-1|3
2021-04-22 22:01:22.657 +0100|141023.30697475|-0.648193359375|0.4994964599609375|-0.548675537109375|141023.28701375|-1.748443093839464|-1.020261602357056|0.2618146312575204|-1.037498235702515|-0.7984802722930908|1.533640623092651|0.1999869346618652|0.7069379091262817|-0.05567312240600586|XArbitraryZVertical|0.2982497101931294|0.3979817058979778|0.7045516498494374|-0.5062260843145845|-0.8232020735740662|-0.2588337659835815|-0.505315363407135|0|0|0|-1|-1|3
2021-04-22 22:01:22.677 +0100|141023.32693575|-0.69561767578125|0.607574462890625|-0.6441497802734375|141023.30697475|-1.755622505604149|-1.03679365123285|0.216028697888962|-1.911584973335266|-1.009466052055359|2.003643751144409|0.2105503082275391|0.6783714294433594|-0.03046524524688721|XArbitraryZVertical|0.3191575729196248|0.3867328923232011|0.6984915725577945|-0.5105738216742118|-0.8407691121101379|-0.2143523246049881|-0.4971522390842438|0|0|0|-1|-1|3
2021-04-22 22:01:22.697 +0100|141023.34689775|-0.78125|0.691925048828125|-0.5894012451171875|141023.32693575|-1.770442369824945|-1.05582240346348|0.1574157326819207|-2.177218198776245|-1.196085095405579|2.357732534408569|0.1737229824066162|0.7400023341178894|-0.1629600822925568|XArbitraryZVertical|0.3457046380983788|0.3705091062300416|0.6916816198155241|-0.5145754786691082|-0.8595448732376099|-0.156766414642334|-0.486422598361969|0|0|0|-1|-1|3
2021-04-22 22:01:22.717 +0100|141023.36685875|-0.9108428955078125|0.7063140869140625|-0.531494140625|141023.34689775|-1.783944725403992|-1.079811550626485|0.09104341992482365|-2.211178302764893|-1.366968154907227|2.846061229705811|0.1275906562805176|0.7721913456916809|-0.1298378109931946|XArbitraryZVertical|0.375172599470409|0.3528095641481161|0.6815985152650016|-0.5198024239125189|-0.8782166838645935|-0.09091769903898239|-0.4695418775081635|0|0|0|-1|-1|3
2021-04-22 22:01:22.737 +0100|141023.38681975|-0.9594573974609375|0.816192626953125|-0.435211181640625|141023.36685875|-1.795480154450591|-1.107804600503367|0.01595093692736789|-2.239813089370728|-1.545567750930786|3.300702571868896|0.003477573394775391|0.7177164554595947|-0.120995044708252|XArbitraryZVertical|0.4070564059591217|0.3331966984719146|0.6676001857659066|-0.5268730436167213|-0.8946065902709961|-0.01595026068389416|-0.446570098400116|0|0|0|-1|-1|3
2021-04-22 22:01:22.757 +0100|141023.40678075|-1.0556640625|0.9689788818359375|-0.347686767578125|141023.38681975|-1.803738342451892|-1.143033697008103|-0.06600486644617937|-2.019133806228638|-1.974419236183167|3.741092681884766|-0.03526186943054199|0.7223723530769348|-0.02175068855285645|XArbitraryZVertical|0.4413154616893951|0.3134872573661822|0.648390238529556|-0.5353099386499154|-0.907914936542511|0.06595695018768311|-0.4139328002929688|0|0|0|-1|-1|3
2021-04-22 22:01:22.777 +0100|141023.42674275|-1.18719482421875|1.076034545898438|-0.212310791015625|141023.40678075|-1.805994287952775|-1.186176154626804|-0.1533297594838661|-1.711817860603333|-2.309441804885864|4.224679470062256|-0.1113848686218262|0.7772622108459473|-0.0159432590007782|XArbitraryZVertical|0.47689974177939|0.2952355901285875|0.6226695796958608|-0.5456053588156476|-0.9160661697387695|0.1527296751737595|-0.3708051741123199|0|0|0|-1|-1|3
2021-04-22 22:01:22.797 +0100|141023.44670375|-1.281524658203125|1.16436767578125|-0.1048126220703125|141023.42674275|-1.806021587478709|-1.235667149632804|-0.2484346307045431|-1.718988180160522|-2.641090393066406|4.677523136138916|-0.2339181303977966|0.8019333481788635|0.06153139472007751|XArbitraryZVertical|0.5138759482982583|0.2766489391764949|0.5906647775048681|-0.5572361589503398|-0.9153744578361511|0.2458869516849518|-0.3187937438488007|0|0|0|-1|-1|3
2021-04-22 22:01:22.817 +0100|141023.46666475|-1.307785034179688|1.206771850585938|-0.031005859375|141023.44670375|-1.810776739937428|-1.293254353613436|-0.3504443499820686|-1.718543410301208|-3.005870819091797|4.884744644165039|-0.3668335676193237|0.7967293262481689|0.1300055384635925|XArbitraryZVertical|0.5526050630231633|0.2568228405483962|0.5533952370881761|-0.5678234776518338|-0.903278112411499|0.3433151841163635|-0.2573393583297729|0|0|0|-1|-1|3
2021-04-22 22:01:22.837 +0100|141023.48662675|-1.348358154296875|1.165771484375|0.058349609375|141023.46666475|-1.818896777572305|-1.36073044678115|-0.4529178907250102|-1.478422045707703|-3.414129734039307|4.874573230743408|-0.4218775629997253|0.7725827693939209|0.1367802768945694|XArbitraryZVertical|0.590966502770098|0.2387650379375189|0.511038710238412|-0.5767056473130538|-0.8794078230857849|0.4375910758972168|-0.1874997019767761|0|0|0|-1|-1|3
2021-04-22 22:01:22.857 +0100|141023.50658775|-1.335098266601562|1.156875610351562|0.014678955078125|141023.48662675|-1.830326263609173|-1.437421759866077|-0.553271068472564|-1.238580942153931|-3.664916276931763|4.856659889221191|-0.4930959343910217|0.6409996747970581|0.1519442796707153|XArbitraryZVertical|0.6273831739147739|0.223204361822572|0.4642849396624685|-0.5839604658576256|-0.8432541489601135|0.5254731178283691|-0.1131403297185898|0|0|0|-1|-1|3
2021-04-22 22:01:22.877 +0100|141023.52654875|-1.289520263671875|1.07476806640625|0.0201568603515625|141023.50658775|-1.845632960535839|-1.519644247023338|-0.6500586314577887|-0.8849670886993408|-3.706890821456909|4.647789001464844|-0.5542517304420471|0.5643982887268066|0.0804213285446167|XArbitraryZVertical|0.6601548679970048|0.2093911625491476|0.4149882471421846|-0.5900303557858786|-0.7950072884559631|0.6052330732345581|-0.04070178419351578|0|0|0|-1|-1|3
2021-04-22 22:01:22.897 +0100|141023.54650975|-1.27069091796875|0.9860687255859375|-0.0278167724609375|141023.52654875|-1.862522321886586|-1.604698697983085|-0.7411255194823029|-0.5502433180809021|-3.671530723571777|4.483859062194824|-0.5534255504608154|0.4155333638191223|-0.02796458825469017|XArbitraryZVertical|0.687958169343825|0.1980308363980942|0.3644150095859325|-0.5955663439398378|-0.7372855544090271|0.675118625164032|0.02500531077384949|0|0|0|-1|-1|3
2021-04-22 22:01:22.917 +0100|141023.56647175|-1.188995361328125|0.8856964111328125|-0.0811309814453125|141023.54650975|-1.882724204491773|-1.690360621796337|-0.8272832654060445|-0.2047645896673203|-3.516995429992676|4.203737258911133|-0.6181463003158569|0.2744176983833313|-0.09860491752624512|XArbitraryZVertical|0.7107471511049425|0.1876363218222617|0.3141710922063243|-0.6007727268683879|-0.6720460057258606|0.7360951900482178|0.08073780685663223|0|0|0|-1|-1|3
2021-04-22 22:01:22.937 +0100|141023.58643275|-1.085052490234375|0.746795654296875|-0.078125|141023.56647175|-1.903224437678214|-1.775153708804464|-0.9067168936709618|0.1881961822509766|-3.390909671783447|3.889382362365723|-0.610464870929718|0.1259366273880005|-0.1899722963571548|XArbitraryZVertical|0.7282377727722441|0.1794675219747591|0.2650222882739568|-0.6059904577195883|-0.6035096645355225|0.7874844670295715|0.1250776946544647|0|0|0|-1|-1|3
2021-04-22 22:01:22.957 +0100|141023.60639375|-1.014495849609375|0.647247314453125|-0.04248046875|141023.58643275|-1.922944138491128|-1.857523171805888|-0.9810076104661747|0.4411279857158661|-3.271508455276489|3.617416381835938|-0.5738972425460815|-0.0457955002784729|-0.2428523302078247|XArbitraryZVertical|0.7407587048553347|0.1729889552907008|0.2172437838517841|-0.6116835043826171|-0.5334794521331787|0.8310582041740417|0.1572972685098648|0|0|0|-1|-1|3
2021-04-22 22:01:22.977 +0100|141023.62635475|-0.9407958984375|0.5657196044921875|-0.0018310546875|141023.60639375|-1.947055284325758|-1.94233017041991|-1.050045777025327|0.5887104868888855|-3.148669481277466|3.321990966796875|-0.5646587014198303|-0.203399121761322|-0.2401346117258072|XArbitraryZVertical|0.7497599558588077|0.1678487437095058|0.1710772821122559|-0.6167815502414878|-0.4635857939720154|0.8674460053443909|0.1806263774633408|0|0|0|-1|-1|3
2021-04-22 22:01:22.997 +0100|141023.64631675|-0.8468017578125|0.5787353515625|-0.01507568359375|141023.62635475|-1.975577397619705|-2.027903472862671|-1.112452877382665|0.7062735557556152|-2.886061906814575|2.944504499435425|-0.5673646926879883|-0.3180516362190247|-0.1948394924402237|XArbitraryZVertical|0.7554852504328364|0.1639620453898043|0.1279334017349414|-0.6212822382288656|-0.397036999464035|0.8967866897583008|0.1952830255031586|0|0|0|-1|-1|3
2021-04-22 22:01:23.017 +0100|141023.66627775|-0.779998779296875|0.590911865234375|0.0072784423828125|141023.64631675|-2.00559430690037|-2.109680119288178|-1.168955143980449|0.885985255241394|-2.583480834960938|2.622043371200562|-0.5303118228912354|-0.3516172170639038|-0.2128712236881256|XArbitraryZVertical|0.7579642826622421|0.1607659403199208|0.08867928699470942|-0.6259237291895514|-0.3356859087944031|0.9203424453735352|0.2007110863924026|0|0|0|-1|-1|3
2021-04-22 22:01:23.036 +0100|141023.68623875|-0.7529754638671875|0.542755126953125|0.12469482421875|141023.66627775|-2.032519339925989|-2.183289985071144|-1.219060296539885|0.9734407067298889|-2.278719902038574|2.122525215148926|-0.5153578519821167|-0.3399450182914734|-0.2111026048660278|XArbitraryZVertical|0.7575229020420349|0.1587306561851344|0.053863549683713|-0.6309219214575398|-0.2818990349769592|0.9387760162353516|0.1980727314949036|0|0|0|-1|-1|3
2021-04-22 22:01:23.056 +0100|141023.70620075|-0.655426025390625|0.55078125|0.2278900146484375|141023.68623875|-2.060672037301282|-2.25223025378601|-1.259919722618779|0.7274926900863647|-1.964090466499329|1.694306373596191|-0.5212562680244446|-0.3967221975326538|-0.09591254591941833|XArbitraryZVertical|0.7558887449606807|0.1580339525278029|0.02441932250908438|-0.6348711757180617|-0.2375789880752563|0.9520657658576965|0.1926850527524948|0|0|0|-1|-1|3
2021-04-22 22:01:23.076 +0100|141023.72616175|-0.5349273681640625|0.582366943359375|0.2362213134765625|141023.70620075|-2.099308984765494|-2.325721353649145|-1.289844819199954|0.4207832515239716|-1.714522123336792|1.322539091110229|-0.4849172234535217|-0.4255445003509521|0.02066907286643982|XArbitraryZVertical|0.7549216003578788|0.1584009532356366|0.0002186311679853497|-0.6363980783656847|-0.2019422203302383|0.960792064666748|0.1899949759244919|0|0|0|-1|-1|3
2021-04-22 22:01:23.096 +0100|141023.74612275|-0.5069580078125|0.5663604736328125|0.185546875|141023.72616175|-2.13733257382737|-2.395124017243915|-1.311732211037389|0.4729938209056854|-1.566872835159302|0.9475185871124268|-0.3848199844360352|-0.383286714553833|0.04937052726745605|XArbitraryZVertical|0.7538876682055311|0.160256267443569|-0.02000270052076929|-0.6368449019424799|-0.1739571988582611|0.9666301608085632|0.1880573779344559|0|0|0|-1|-1|3
2021-04-22 22:01:23.116 +0100|141023.76608375|-0.46221923828125|0.533843994140625|0.0969390869140625|141023.74612275|-2.155801329660057|-2.441550152596284|-1.330214202583448|0.6282082796096802|-1.269326329231262|0.6296818852424622|-0.3536670804023743|-0.398369312286377|0.02390050888061523|XArbitraryZVertical|0.7512965410415153|0.1633074464306806|-0.03660573420121556|-0.6383920379454169|-0.1535048186779022|0.9711994528770447|0.1822316348552704|0|0|0|-1|-1|3
2021-04-22 22:01:23.136 +0100|141023.78604575|-0.4291839599609375|0.442230224609375|0.068695068359375|141023.76608375|-2.141368498087257|-2.4487246071448|-1.34807922660749|0.9688519835472107|-0.879953145980835|0.2427119612693787|-0.3452568650245667|-0.4246266484260559|-0.05469860136508942|XArbitraryZVertical|0.7465101136752111|0.1664251493982079|-0.04871315359143519|-0.642380250895788|-0.1410867273807526|0.9753009080886841|0.1699493676424026|0|0|0|-1|-1|3
2021-04-22 22:01:23.156 +0100|141023.80600675|-0.502899169921875|0.56195068359375|0.0711517333984375|141023.78604575|-2.078273646653537|-2.401824935736145|-1.365833376467332|1.22369658946991|-0.594205915927887|-0.03770265355706215|-0.2793154120445251|-0.5249212384223938|-0.07832610607147217|XArbitraryZVertical|0.7390914762114489|0.1700311006451788|-0.0565625495294362|-0.6493335207710824|-0.1372039914131165|0.9790685176849365|0.1503335684537888|0|0|0|-1|-1|3
2021-04-22 22:01:23.176 +0100|141023.82596775|-0.4658660888671875|0.5839996337890625|0.098541259765625|141023.80600675|-1.97027584969123|-2.303578822824222|-1.383585038002497|1.521950721740723|-0.1715528666973114|-0.2565580606460571|-0.3575948774814606|-0.4795210957527161|-0.05808091163635254|XArbitraryZVertical|0.7297079328475926|0.1725635515000693|-0.06100097280085228|-0.6588074190860298|-0.1383465081453323|0.9825270771980286|0.1245036944746971|0|0|0|-1|-1|3
2021-04-22 22:01:23.196 +0100|141023.84592875|-0.365936279296875|0.5592803955078125|0.1637420654296875|141023.82596775|-1.778140721031648|-2.116542508102109|-1.397184642554814|2.055226564407349|-0.04211641475558281|-0.6899693012237549|-0.33899986743927|-0.3767063021659851|-0.01065123826265335|XArbitraryZVertical|0.7169267359333643|0.1756338715991557|-0.06161556324849172|-0.6718425320024631|-0.1476489156484604|0.9849672913551331|0.08966240286827087|0|0|0|-1|-1|3
2021-04-22 22:01:23.216 +0100|141023.86589075|-0.2885894775390625|0.6201629638671875|0.212066650390625|141023.84592875|-1.503725533552723|-1.847415193803123|-1.39962221218302|2.320743560791016|-0.1157390773296356|-0.9367919564247131|-0.2205196619033813|-0.4301028251647949|0.1030013561248779|XArbitraryZVertical|0.7004631879699031|0.180587063049784|-0.06035872327076023|-0.6878201849646881|-0.1638647317886353|0.9853854775428772|0.04652072861790657|0|0|0|-1|-1|3
2021-04-22 22:01:23.236 +0100|141023.88585175|-0.2569580078125|0.7275543212890625|0.2831268310546875|141023.86589075|-1.215370859687552|-1.568035122519301|-1.385910222174066|2.554605007171631|-0.3511466979980469|-1.070854783058167|-0.1236906349658966|-0.3714458346366882|0.19260174036026|XArbitraryZVertical|0.6815419195818215|0.1877413324673294|-0.05928037927058862|-0.7047977626362087|-0.1838352084159851|0.9829571843147278|-0.0005076078814454377|0|0|0|-1|-1|3
2021-04-22 22:01:23.256 +0100|141023.90581275|-0.0649566650390625|0.8019256591796875|0.22991943359375|141023.88585175|-0.9667608915431413|-1.333043214598994|-1.358730758567697|2.615921258926392|-0.5218057632446289|-1.036245822906494|-0.0667879730463028|-0.2803630232810974|0.318967342376709|XArbitraryZVertical|0.6608002378921082|0.1963592327395744|-0.05974952933543765|-0.7219530519809495|-0.2045592814683914|0.977598249912262|-0.04957219585776329|0|0|0|-1|-1|3
2021-04-22 22:01:23.276 +0100|141023.92577475|0.320281982421875|0.8620147705078125|-0.0091552734375|141023.90581275|-0.7812163638150267|-1.164408123961125|-1.323034620500711|2.515957355499268|-0.721014142036438|-1.005998492240906|0.08369055390357971|-0.1781275272369385|0.3629629611968994|XArbitraryZVertical|0.6396589499833224|0.2058310355367799|-0.06140788749444278|-0.7380374016081939|-0.2252617925405502|0.9694637656211853|-0.09694002568721771|0|0|0|-1|-1|3
2021-04-22 22:01:23.302 +0100|141023.94573575|0.5340728759765625|1.019363403320312|-0.27020263671875|141023.92577475|-0.6495743980479362|-1.056835020464795|-1.28336986701531|2.363636493682861|-1.300528049468994|-0.9952308535575867|0.4713478684425354|-0.1199716925621033|0.1948678344488144|XArbitraryZVertical|0.6187649128061991|0.2178181874535914|-0.06522406831075368|-0.7519516823293558|-0.2468607723712921|0.9589766263961792|-0.1393704414367676|0|0|0|-1|-1|3
2021-04-22 22:01:23.316 +0100|141023.96569675|0.6370849609375|1.443923950195312|-0.6705474853515625|141023.94573575|-0.5464903599212514|-0.9908409889789437|-1.244529242767017|2.390710115432739|-1.81389331817627|-0.6490520238876343|0.7885795831680298|-0.00409930944442749|-0.01325219869613647|XArbitraryZVertical|0.5980160594094737|0.2335791627208954|-0.07390808357365736|-0.7631221468161971|-0.2681024372577667|0.9472453594207764|-0.1756351292133331|0|0|0|-1|-1|3
2021-04-22 22:01:23.336 +0100|141023.98565775|0.816864013671875|1.765975952148438|-1.06109619140625|141023.96569675|-0.4396294508809965|-0.9255601514614771|-1.206916681432521|2.819427013397217|-1.729810953140259|-0.3835863769054413|0.8710058331489563|0.410539448261261|-0.3327621817588806|XArbitraryZVertical|0.5757344991193034|0.2480163617496592|-0.08660209066320862|-0.7742853824952663|-0.284351259469986|0.9345231056213379|-0.2140353471040726|0|0|0|-1|-1|3
2021-04-22 22:01:23.356 +0100|141024.00561975|0.60638427734375|1.901519775390625|-1.3138427734375|141023.98565775|-0.318466167723872|-0.8487360696505764|-1.161450973443111|3.59043288230896|-1.866435408592224|-0.2300722748041153|1.089531898498535|0.7818681001663208|-0.7170443534851074|XArbitraryZVertical|0.5482254698412127|0.2606152667964227|-0.1022295621916837|-0.7880848782317177|-0.2986842095851898|0.9173815846443176|-0.2630570232868195|0|0|0|-1|-1|3
2021-04-22 22:01:23.376 +0100|141024.0255799167|0.4253387451171875|1.72821044921875|-1.517013549804688|141024.00561975|-0.1843426201948888|-0.7641423807089291|-1.104790475162601|4.398717880249023|-1.735116004943848|0.03575842455029488|0.9895131587982178|0.9761829972267151|-0.9409496784210205|XArbitraryZVertical|0.5140380188171594|0.2712289982924164|-0.1221086035841218|-0.804542901473416|-0.3108938038349152|0.8933700919151306|-0.3243995010852814|0|0|0|-1|-1|3
2021-04-22 22:01:23.396 +0100|141024.0455409167|0.27734375|1.267257690429688|-1.60223388671875|141024.0255799167|-0.04993738614501046|-0.6779709973164375|-1.035487901740304|5.06601095199585|-1.420924186706543|0.2771339416503906|0.7953945398330688|0.9532132744789124|-1.078442573547363|XArbitraryZVertical|0.4738246885447226|0.27720519269813|-0.1440655374796851|-0.8233423978495277|-0.3199459612369537|0.8601113557815552|-0.3972948789596558|0|0|0|-1|-1|3
2021-04-22 22:01:23.416 +0100|141024.0655019167|0.1075592041015625|0.88433837890625|-1.773696899414062|141024.0455409167|0.07567440071554325|-0.594155113600926|-0.9556846345791455|5.30427360534668|-0.7447097301483154|0.4276185035705566|0.6121154427528381|0.5830414295196533|-1.090049624443054|XArbitraryZVertical|0.4295725897013576|0.2763861706433517|-0.1666378592153798|-0.843392034101589|-0.3230376839637756|0.8167089819908142|-0.4781561493873596|0|0|0|-1|-1|3
2021-04-22 22:01:23.436 +0100|141024.0854639167|-0.1861572265625|0.630279541015625|-1.925552368164062|141024.0655019167|0.1750661580324777|-0.5240422069646584|-0.8734636497632211|4.84940767288208|-0.1363518983125687|0.3019173145294189|0.4856562614440918|0.1839129328727722|-1.166230201721191|XArbitraryZVertical|0.3864595908751463|0.2695367609795871|-0.1856585080501942|-0.862281893145854|-0.3213343024253845|0.7665578126907349|-0.5559978485107422|0|0|0|-1|-1|3
2021-04-22 22:01:23.456 +0100|141024.1054249167|-0.2118072509765625|0.335052490234375|-1.884918212890625|141024.1054249167|0.2899534773745716|-0.4167252159507644|-0.7156364802106531|3.827933549880981|1.452569365501404|-0.3851692080497742|0.05496522784233093|-0.2474361062049866|-1.180499076843262|XArbitraryZVertical|0.3110696949565915|0.2412271373076127|-0.2040805404283562|-0.8963238234355703|-0.3054687082767487|0.6560978889465332|-0.6900902390480042|0|0|0|-1|-1|3
2021-04-22 22:01:23.476 +0100|141024.1253859167|-0.1734771728515625|0.2154388427734375|-1.63800048828125||||||||||||||||||||||||3
2021-04-22 22:01:23.496 +0100|141024.1453479167|-0.4136962890625|0.2785797119140625|-1.21734619140625|141024.1253859167|0.305675620921602|-0.3711660251408833|-0.6448463513403259|3.143035650253296|2.214295625686646|-1.271901369094849|0.1549200713634491|-0.3556675910949707|-0.9753055572509766|XArbitraryZVertical|0.2811502386358818|0.2203836405468494|-0.1997053166775721|-0.9124162295703987|-0.2898688316345215|0.6010756492614746|-0.7447711825370789|0|0|0|-1|-1|3
2021-04-22 22:01:23.516 +0100|141024.1653089167|-0.5950775146484375|0.5168609619140625|-0.670379638671875|141024.1653089167|0.2268810972036885|-0.2832470331304382|-0.5172751612250991|1.888717651367188|3.744165658950806|-3.975395679473877|-0.2639098465442657|-0.0648404061794281|0.02817076444625854|XArbitraryZVertical|0.2361290999573679|0.1642406380194138|-0.1442058869325198|-0.9468225118060307|-0.2429110556840897|0.4945136308670044|-0.8345361351966858|0|0|0|-1|-1|3
2021-04-22 22:01:23.536 +0100|141024.1852699167|-1.121658325195312|0.5425872802734375|-0.2462005615234375||||||||||||||||||||||||3
2021-04-22 22:01:23.556 +0100|141024.2052309167|-2.08270263671875|-0.274017333984375|0.162384033203125|141024.1852699167|0.1361771729330388|-0.2541997053471863|-0.4705722667096988|0.1001438125967979|3.402849435806274|-4.977985858917236|-0.7485030293464661|0.1641887724399567|0.5519372820854187|XArbitraryZVertical|0.2223185025005328|0.1387125174935696|-0.09510924638290053|-0.9603580791434545|-0.2241382896900177|0.4533964395523071|-0.8626666665077209|0|0|0|-1|-1|3
2021-04-22 22:01:23.576 +0100|141024.2251929167|-4.324050903320312|-1.013687133789062|1.495391845703125|141024.2052309167|0.005383852327984374|-0.2530907856016359|-0.480832946606111|-4.602004528045654|2.577568769454956|-6.115442276000977|-1.520076274871826|-0.4946366846561432|0.9741191864013672|XArbitraryZVertical|0.2358723312830259|0.123213417951652|-0.03264447824977883|-0.9633884498417165|-0.2220049053430557|0.4625178277492523|-0.8583654165267944|0|0|0|-1|-1|3
2021-04-22 22:01:23.595 +0100|141024.2451539167|-3.501296997070312|1.177459716796875|2.235107421875|141024.2251929167|-0.1725775316982894|-0.295973617974519|-0.6115102112331109|-11.8693380355835|2.994834423065186|-4.193885326385498|-3.445862531661987|-1.595496654510498|1.779671430587769|XArbitraryZVertical|0.3087334182175673|0.1144271814312292|0.037067873267213|-0.9435126846265415|-0.2388151735067368|0.5741046667098999|-0.7831801772117615|0|0|0|-1|-1|3
2021-04-22 22:01:23.615 +0100|141024.2651149167|-1.186874389648438|1.371429443359375|1.639877319335938|141024.2451539167|-0.3802499823081871|-0.3385342685068961|-0.861229816980246|-15.41109180450439|5.973807811737061|-2.822839260101318|-3.989183902740479|-0.01735657453536987|2.989726543426514|XArbitraryZVertical|0.432979091271084|0.07256361659963885|0.100222019982314|-0.8928714207265936|-0.2163680344820023|0.7586443424224854|-0.6145272850990295|0|0|0|-1|-1|3
2021-04-22 22:01:23.635 +0100|141024.2850769167|-0.57281494140625|1.151412963867188|1.48297119140625|141024.2651149167|-0.6507797458289825|-0.4609541408168102|-1.122403792980187|-13.98344421386719|4.057795524597168|-0.6714844107627869|-1.438701629638672|0.5943843126296997|2.147091388702393|XArbitraryZVertical|0.552769532856178|0.01761884037847652|0.1482901006240308|-0.8198448688258826|-0.1928299367427826|0.9011451601982117|-0.3882708251476288|0|0|0|-1|-1|3
2021-04-22 22:01:23.655 +0100|141024.3050379167|-0.8523406982421875|1.702011108398438|0.61376953125|141024.2850769167|-1.146600758778392|-0.886213147791867|-1.344255494738756|-13.19840812683105|0.7902441024780273|0.9931381940841675|-0.337810754776001|0.1067124009132385|1.674487590789795|XArbitraryZVertical|0.6545558273765786|-0.02326021515270155|0.1591653007076625|-0.7387030272173188|-0.1740003675222397|0.9744491577148438|-0.142031267285347|0|0|0|-1|-1|3
2021-04-22 22:01:23.675 +0100|141024.3249989167|-0.8857879638671875|1.527053833007812|-0.4267578125|141024.3050379167|-2.422420359564242|-2.142854642639526|-1.395072700294887|-10.26211166381836|-0.6713760495185852|1.489721059799194|-0.6827553510665894|0.6171604990959167|0.8114563226699829|XArbitraryZVertical|0.7380404495418682|-0.05115952396146663|0.1451201992797972|-0.6569773593115292|-0.1469878554344177|0.984600305557251|0.09464200586080551|0|0|0|-1|-1|3
2021-04-22 22:01:23.695 +0100|141024.3449599167|-1.031097412109375|1.080886840820312|-0.87109375|141024.3249989167|-2.974758057282279|-2.706810038373896|-1.288859579707789|-5.584051132202148|-1.729792475700378|1.004350781440735|-0.7316586971282959|0.6951361894607544|-0.4553796648979187|XArbitraryZVertical|0.7887077878660285|-0.06407723664636189|0.1229505259494559|-0.5989301486779663|-0.1171884983778|0.9605184197425842|0.2523317337036133|0|0|0|-1|-1|3
2021-04-22 22:01:23.715 +0100|141024.3649219167|-0.8415679931640625|0.61328125|-0.7904205322265625|141024.3449599167|-3.091895092006657|-2.855483941723804|-1.232308968862802|-1.043332576751709|-1.870518088340759|0.303495317697525|-0.9520930647850037|0.2411288022994995|-1.139041662216187|XArbitraryZVertical|0.8095681231748129|-0.06229410576006467|0.1021019400864265|-0.5747121882909987|-0.09371458739042282|0.9432580471038818|0.3185622096061707|0|0|0|-1|-1|3
2021-04-22 22:01:23.735 +0100|141024.3848829167|-0.79736328125|0.4873504638671875|-0.396759033203125|141024.3649219167|-3.077717909021722|-2.878488590219938|-1.246916823848814|2.309270143508911|-1.751032710075378|-0.3162630200386047|-0.797586977481842|-0.2396339774131775|-1.170500040054321|XArbitraryZVertical|0.8068846276414674|-0.05084538325452212|0.08795814828867167|-0.5819068503165964|-0.08276960253715515|0.9480079412460327|0.307296097278595|0|0|0|-1|-1|3
2021-04-22 22:01:23.755 +0100|141024.4048439167|-0.7592315673828125|0.4580841064453125|-0.072113037109375|141024.3848829167|-2.974697546688601|-2.813088794407187|-1.307255905339796|4.076538562774658|-1.585488438606262|-0.7689747214317322|-0.7167068123817444|-0.4816025495529175|-0.7479583024978638|XArbitraryZVertical|0.7887602688353271|-0.0338021452048782|0.07935862840594707|-0.608618869424586|-0.08404462039470673|0.9654737710952759|0.2465706914663315|0|0|0|-1|-1|3
2021-04-22 22:01:23.775 +0100|141024.4248049167|-0.73248291015625|0.453704833984375|0.1711578369140625|141024.4048439167|-2.7407924063241|-2.615996847031587|-1.37995949556897|4.480729103088379|-1.553534030914307|-1.005608916282654|-0.6722579002380371|-0.5080148577690125|-0.30029296875|XArbitraryZVertical|0.7627903932662217|-0.01379155839687015|0.07399384983625919|-0.6422503979602149|-0.0951683297753334|0.9818458557128906|0.1640787869691849|0|0|0|-1|-1|3
2021-04-22 22:01:23.795 +0100|141024.4447669167|-0.7134857177734375|0.5071258544921875|0.158294677734375|141024.4248049167|-2.313113437002092|-2.225131814978596|-1.428424182287986|3.597050428390503|-1.570681810379028|-1.156843423843384|-0.6278178691864014|-0.5397022366523743|0.03403257578611374|XArbitraryZVertical|0.7369693833571596|0.007503690180466686|0.06953855031480723|-0.6722977968532827|-0.1125849932432175|0.9898821711540222|0.08636035770177841|0|0|0|-1|-1|3
2021-04-22 22:01:23.815 +0100|141024.4647279167|-0.66119384765625|0.5995941162109375|0.0788116455078125|141024.4447669167|-1.856349589063119|-1.80384639144439|-1.431532415201923|2.265952348709106|-1.502264142036438|-1.294727802276611|-0.5765771865844727|-0.5068894624710083|0.1557472944259644|XArbitraryZVertical|0.7177647779353272|0.02903762054715548|0.06606878111842697|-0.6925356571980764|-0.1350628584623337|0.9903184175491333|0.03205892071127892|0|0|0|-1|-1|3
2021-04-22 22:01:23.835 +0100|141024.4846889167|-0.4678955078125|0.8077850341796875|0.02557373046875|141024.4647279167|-1.62024027042103|-1.596797321868119|-1.409533824877801|0.9907115697860718|-1.13290274143219|-1.31491231918335|-0.5264402627944946|-0.4087324738502502|0.09108734130859375|XArbitraryZVertical|0.7069089079410189|0.04865172027502374|0.06517415436911758|-0.7026131764699481|-0.1605110615491867|0.9870253801345825|0.004174388013780117|0|0|0|-1|-1|3
2021-04-22 22:01:23.855 +0100|141024.5046509167|-0.3912353515625|1.088348388671875|-0.0555267333984375|141024.4846889167|-1.566648762099623|-1.562908254198973|-1.383503183782419|-0.0196373276412487|-0.8138240575790405|-1.304144859313965|-0.3368317782878876|-0.2361435890197754|0.04308056831359863|XArbitraryZVertical|0.7036093600552144|0.06480351972086627|0.06743686753031869|-0.7044051713421852|-0.1861942857503891|0.9825118780136108|-0.001468744594603777|0|0|0|-1|-1|3
2021-04-22 22:01:23.875 +0100|141024.5246119167|-0.3883209228515625|1.356201171875|-0.1068878173828125|141024.5046509167|-1.599403811481803|-1.609910546291706|-1.357598572587138|-0.583745002746582|-0.6381161212921143|-1.278118371963501|-0.1803451478481293|0.03251302242279053|-0.04962408542633057|XArbitraryZVertical|0.7056303386847768|0.07888468106430332|0.07149750269912698|-0.7005363665966073|-0.2114247828722|0.9773592948913574|0.008273935876786709|0|0|0|-1|-1|3
2021-04-22 22:01:23.895 +0100|141024.5445729167|-0.3338775634765625|1.499298095703125|-0.1105194091796875|141024.5246119167|-1.646227165880967|-1.66560576488777|-1.332535855949394|-0.536608099937439|-0.3472782969474792|-1.144780278205872|-0.1470969617366791|0.3205472826957703|-0.1209287643432617|XArbitraryZVertical|0.7092068654649716|0.09053729605899019|0.07693188902499574|-0.694917416977291|-0.2349531352519989|0.971750020980835|0.02234276011586189|0|0|0|-1|-1|3
2021-04-22 22:01:23.915 +0100|141024.5645339167|-0.2211151123046875|1.408096313476562|-0.052459716796875|141024.5445729167|-1.662159692181031|-1.684407140682055|-1.31092560608328|-0.05381453782320023|-0.005157493054866791|-0.9592370986938477|-0.1019393801689148|0.5209272503852844|-0.1416016817092896|XArbitraryZVertical|0.710476100287242|0.09893860545097005|0.08334021403735961|-0.6917293445633286|-0.2552999258041382|0.9664232134819031|0.02913027256727219|0|0|0|-1|-1|3
2021-04-22 22:01:23.935 +0100|141024.5844959167|-0.146453857421875|1.310150146484375|0.00543212890625|141024.5645339167|-1.643058300031811|-1.663055812017882|-1.293050863312692|0.2898631989955902|0.2567518651485443|-0.8854882717132568|0.01325586438179016|0.486169159412384|-0.09602976590394974|XArbitraryZVertical|0.708307036615204|0.1045534890509878|0.09054948040646234|-0.6922214002680291|-0.2730219960212708|0.9616760611534119|0.02526058070361614|0|0|0|-1|-1|3
2021-04-22 22:01:23.955 +0100|141024.6044569167|-0.1966400146484375|1.353744506835938|0.03900146484375|141024.5844959167|-1.621321554433287|-1.635958080618134|-1.276388551510043|0.1480599492788315|0.3557521402835846|-0.822035551071167|0.1319034397602081|0.3644827008247375|-0.03496122360229492|XArbitraryZVertical|0.7054365151129359|0.1086588495532955|0.09842128356767074|-0.6934449973699099|-0.2895578145980835|0.9569741487503052|0.01889484561979771|0|0|0|-1|-1|3
2021-04-22 22:01:23.975 +0100|141024.6244179167|-0.244293212890625|1.35546875|0.078338623046875|141024.6044569167|-1.617769985308423|-1.625115551279139|-1.260744145352316|-0.07938273251056671|0.4308851361274719|-0.7389360666275024|0.1301742792129517|0.3815293908119202|0.0108407735824585|XArbitraryZVertical|0.7041493530140661|0.1116076120315553|0.1064758137834364|-0.693094915618645|-0.3046590983867645|0.9523176550865173|0.01656514033675194|0|0|0|-1|-1|3
2021-04-22 22:01:23.995 +0100|141024.6443799167|-0.1740875244140625|1.2762451171875|0.09674072265625|141024.6244179167|-1.621239217680798|-1.618411083305446|-1.246745872656224|-0.1210229024291039|0.5820581912994385|-0.6586657762527466|0.07949218153953552|0.419295072555542|0.05068755149841309|XArbitraryZVertical|0.7034352011489792|0.1129448994195997|0.1149184998642173|-0.6922545336892427|-0.3180486857891083|0.9479535222053528|0.01515526510775089|0|0|0|-1|-1|3
2021-04-22 22:01:24.015 +0100|141024.6643409167|-0.0773162841796875|1.172119140625|0.0747833251953125|141024.6443799167|-1.631096731840386|-1.61485700724352|-1.235125114159007|-0.2970765233039856|0.6817685961723328|-0.4920834898948669|0.1288423836231232|0.3509461283683777|0.08757328987121582|XArbitraryZVertical|0.7033087890844884|0.1122999412388868|0.1236216825113057|-0.6909872685624893|-0.3290840983390808|0.9441894292831421|0.01450905948877335|0|0|0|-1|-1|3
2021-04-22 22:01:24.034 +0100|141024.6843019167|-0.101043701171875|1.119659423828125|0.0495147705078125|141024.6643409167|-1.655014085256913|-1.624540128790836|-1.226120193590201|-0.5450512766838074|0.5751228928565979|-0.381403386592865|0.2417925596237183|0.2593154907226562|0.06113481521606445|XArbitraryZVertical|0.7049090886166494|0.1103567965270585|0.1315851126115879|-0.6881933944312165|-0.337404727935791|0.941184937953949|0.01815089210867882|0|0|0|-1|-1|3
2021-04-22 22:01:24.054 +0100|141024.7042629167|-0.0751190185546875|1.239501953125|0.0025177001953125|141024.6843019167|-1.69403965263512|-1.651187714939701|-1.218949602194203|-0.8318342566490173|0.4693562090396881|-0.2265576124191284|0.2582529485225677|0.1780681610107422|0.02722645178437233|XArbitraryZVertical|0.7086117669481978|0.1081998147174066|0.1380307485379068|-0.6834544115619802|-0.3435197174549103|0.9387378692626953|0.02767567150294781|0|0|0|-1|-1|3
2021-04-22 22:01:24.074 +0100|141024.7242249167|-0.0537261962890625|1.302001953125|-0.030670166015625|141024.7042629167|-1.743596260202537|-1.68785470927172|-1.214093290932363|-0.8466066122055054|0.5110488533973694|-0.0990159884095192|0.2483623921871185|0.2642558813095093|-0.02631557360291481|XArbitraryZVertical|0.7137372330992201|0.1047385235726002|0.1435235093543303|-0.6775028726200101|-0.3467974364757538|0.9370531439781189|0.04078199341893196|0|0|0|-1|-1|3
2021-04-22 22:01:24.094 +0100|141024.7441859167|-0.1136474609375|1.163497924804688|0.0102996826171875|141024.7242249167|-1.78075153726286|-1.712951900420935|-1.211445348343249|-0.434473067522049|0.4556314647197723|-0.01043570227921009|0.3043875992298126|0.3694471120834351|-0.08047699928283691|XArbitraryZVertical|0.7174567544167065|0.1008336870829506|0.1479944656624291|-0.6731910386594322|-0.3481199145317078|0.9361252784729004|0.04982325434684753|0|0|0|-1|-1|3
2021-04-22 22:01:24.114 +0100|141024.7641469167|-0.0049896240234375|0.9699249267578125|0.0379638671875|141024.7441859167|-1.792316988027843|-1.714420109013949|-1.210629847552894|-0.02908953651785851|0.4903232753276825|-0.02524891495704651|0.2446751296520233|0.2778152227401733|-0.04923713579773903|XArbitraryZVertical|0.7181391124416814|0.09745761987063745|0.15163460307855|-0.6721497566754874|-0.3488017022609711|0.9358381628990173|0.05044354498386383|0|0|0|-1|-1|3
2021-04-22 22:01:24.134 +0100|141024.7841079167|0.13275146484375|0.8996429443359375|0.06195068359375|141024.7641469167|-1.793072984555353|-1.705501825427331|-1.208729492574742|-0.1015799641609192|0.4224400222301483|-0.1807708591222763|0.2980813980102539|0.07325595617294312|-0.0164865255355835|XArbitraryZVertical|0.7174882790058138|0.09484403486320596|0.155734820320385|-0.6722812054613403|-0.3509995341300964|0.9351667165756226|0.0475696437060833|0|0|0|-1|-1|3
2021-04-22 22:01:24.154 +0100|141024.8040699167|0.01019287109375|1.032730102539062|0.046600341796875|141024.7841079167|-1.806623730742208|-1.713622599952102|-1.202781940807663|-0.4665148258209229|0.02009742334485054|-0.3218110799789429|0.4808405041694641|-0.0399620532989502|0.001861929893493652|XArbitraryZVertical|0.7187672156186722|0.0947538415747886|0.1593821165688235|-0.6700692871020941|-0.3561005592346191|0.9330435395240784|0.05120920017361641|0|0|0|-1|-1|3
2021-04-22 22:01:24.174 +0100|141024.8240309167|-0.080718994140625|1.071197509765625|0.0152130126953125|141024.8040699167|-1.83134603935395|-1.738632700673993|-1.194561007811189|-0.4431099593639374|-0.1615325510501862|-0.3527338206768036|0.4101865887641907|0.06458956003189087|-0.007284164428710938|XArbitraryZVertical|0.72199374764844|0.09702513873354979|0.1614037355446006|-0.6657778487927498|-0.3622593581676483|0.9300544261932373|0.06137769669294357|0|0|0|-1|-1|3
2021-04-22 22:01:24.194 +0100|141024.8439919167|-0.141357421875|0.974578857421875|-0.0236053466796875|141024.8240309167|-1.838968591513859|-1.749381599290463|-1.186437938054568|0.036540437489748|-0.2102623879909515|-0.4017869532108307|0.305218905210495|0.1553122401237488|-0.04248262196779251|XArbitraryZVertical|0.7233114163825664|0.1006205612995888|0.1627811377542474|-0.6634745712725042|-0.3690012693405151|0.9270392060279846|0.06660780310630798|0|0|0|-1|-1|3
2021-04-22 22:01:24.214 +0100|141024.8639539167|-0.0728759765625|0.8441619873046875|-0.00677490234375|141024.8439919167|-1.823690101206622|-1.73943759622108|-1.179382579062739|0.3584642708301544|-0.1888024806976318|-0.3899446725845337|0.2428740859031677|0.07921499013900757|-0.07785487174987793|XArbitraryZVertical|0.7217603546024796|0.1052507031090716|0.1636716736708022|-0.6642258448933938|-0.3760839104652405|0.9243706464767456|0.06403143703937531|0|0|0|-1|-1|3
2021-04-22 22:01:24.234 +0100|141024.8839149167|-0.0712890625|0.7713470458984375|0.0603790283203125|141024.8639539167|-1.802082681871193|-1.723959576665016|-1.173003396505722|0.3026200532913208|-0.3052642643451691|-0.3567669987678528|0.2909610271453857|-0.04977178573608398|-0.07400822639465332|XArbitraryZVertical|0.7193292866367677|0.1100731424464371|0.164211685421237|-0.6659459260854637|-0.3828500807285309|0.9219182133674622|0.05910144001245499|0|0|0|-1|-1|3
2021-04-22 22:01:24.254 +0100|141024.9038759167|-0.198486328125|0.863983154296875|-0.043548583984375|141024.8839149167|-1.787157634838633|-1.719276111244611|-1.167576368740419|0.2122426629066467|-0.5942163467407227|-0.2760771512985229|0.3291502892971039|-0.1388424634933472|-0.01751864328980446|XArbitraryZVertical|0.7180726525299882|0.1157375263304649|0.1627557795786079|-0.6666987037323191|-0.3880650699138641|0.9198023080825806|0.05804701894521713|0|0|0|-1|-1|3
2021-04-22 22:01:24.274 +0100|141024.9238369167|-0.207672119140625|0.9312896728515625|-0.2098541259765625|141024.9038759167|-1.774944776011079|-1.721960013681496|-1.163271329924441|0.2945840358734131|-0.7449467182159424|-0.2252966016530991|0.2271454036235809|-0.1001116037368774|-0.05910325422883034|XArbitraryZVertical|0.7175220148236358|0.1224916148700409|0.1591781215208017|-0.6669485553820964|-0.3918188214302063|0.9181045889854431|0.05968407541513443|0|0|0|-1|-1|3
2021-04-22 22:01:24.294 +0100|141024.9437989167|-0.2027130126953125|0.8369293212890625|-0.2521209716796875|141024.9238369167|-1.741903988945753|-1.706574781461826|-1.160931595632877|1.008160948753357|-0.7673627734184265|-0.2086135894060135|0.1779444217681885|0.02594035863876343|-0.2366931438446045|XArbitraryZVertical|0.7141958146799792|0.1299776101442247|0.1544351184687549|-0.6702090164986777|-0.3948181569576263|0.917174756526947|0.05393968150019646|0|0|0|-1|-1|3
2021-04-22 22:01:24.314 +0100|141024.9637599167|-0.2978668212890625|0.80987548828125|-0.348114013671875|141024.9437989167|-1.672353842257946|-1.659004350493047|-1.160218866302902|1.691497206687927|-0.8404051661491394|-0.1643019616603851|0.2065620124340057|-0.06114727258682251|-0.2851758003234863|XArbitraryZVertical|0.705899873781157|0.1388747098990646|0.1481159484900282|-0.6785874619888901|-0.3975873291492462|0.9168905019760132|0.03516163304448128|0|0|0|-1|-1|3
2021-04-22 22:01:24.334 +0100|141024.9837209167|-0.3770294189453125|0.8011932373046875|-0.4163055419921875|141024.9637599167|-1.5753960577055|-1.587037534288791|-1.158739154188506|2.204325914382935|-0.8550436496734619|-0.2233622670173645|0.1218777298927307|-0.1008387207984924|-0.3218259811401367|XArbitraryZVertical|0.6936478377447851|0.1486768303978339|0.1406192014817641|-0.6906332412498968|-0.4004427194595337|0.9162988662719727|0.006504245568066835|0|0|0|-1|-1|3
2021-04-22 22:01:24.354 +0100|141025.0036829167|-0.517822265625|0.8392333984375|-0.544830322265625|141024.9837209167|-1.453665372925113|-1.493898455834848|-1.151337244720357|2.670036792755127|-0.9857797026634216|-0.3475745916366577|0.06187045574188232|-0.1145727038383484|-0.3650435209274292|XArbitraryZVertical|0.6772124132639856|0.1604362427787246|0.1326124309927911|-0.7057320814602551|-0.406063586473465|0.9133093953132629|-0.03128711879253387|0|0|0|-1|-1|3
2021-04-22 22:01:24.374 +0100|141025.023645125|-0.5814361572265625|0.8222503662109375|-0.63629150390625|141025.0036829167|-1.318088293660076|-1.391312037048293|-1.136035061594824|3.14774489402771|-1.09629487991333|-0.4427408576011658|-0.07470831274986267|-0.07284897565841675|-0.4343736171722412|XArbitraryZVertical|0.657303251347701|0.1742302972347736|0.1236831213005323|-0.7227024313429792|-0.4144279658794403|0.9069706201553345|-0.07519248127937317|0|0|0|-1|-1|3
2021-04-22 22:01:24.394 +0100|141025.043606125|-0.5078125|0.8133392333984375|-0.6821746826171875|141025.023645125|-1.169996690143529|-1.280556035309959|-1.111566882420956|3.64795994758606|-1.19696569442749|-0.4166084825992584|-0.1493328511714935|-0.06262356042861938|-0.4906999468803406|XArbitraryZVertical|0.6329885046013954|0.189470990743429|0.1133843255412808|-0.7420043115685186|-0.4247185289859772|0.8963943123817444|-0.1268525868654251|0|0|0|-1|-1|3
2021-04-22 22:01:24.414 +0100|141025.063567125|-0.3330078125|0.7761383056640625|-0.8547515869140625|141025.043606125|-1.015819143504888|-1.168175319491496|-1.079730446277388|4.071366310119629|-1.25888466835022|-0.1531224697828293|-0.1032664775848389|-0.06380695104598999|-0.4828270077705383|XArbitraryZVertical|0.604722983771196|0.2047508717941509|0.1003509520218938|-0.7630970222086704|-0.4338586032390594|0.8818307518959045|-0.1847743839025497|0|0|0|-1|-1|3
2021-04-22 22:01:24.434 +0100|141025.083529125|-0.0710601806640625|0.8671417236328125|-1.245285034179688|141025.063567125|-0.8646985378270473|-1.061649297423064|-1.042846992543647|4.105924606323242|-1.328237652778625|0.09513288736343384|0.04443418979644775|-0.08605551719665527|-0.5391620397567749|XArbitraryZVertical|0.5739727528438621|0.2185863190651413|0.08436237133175811|-0.7846390368851168|-0.4398661255836487|0.8638419508934021|-0.2455506026744843|0|0|0|-1|-1|3
2021-04-22 22:01:24.454 +0100|141025.103490125|0.2591094970703125|0.97308349609375|-1.45654296875|141025.083529125|-0.7271701775195338|-0.9731789615435722|-1.004400515768006|4.063371658325195|-1.614362478256226|0.3817328810691833|0.3017450273036957|-0.02038431167602539|-0.8508571982383728|XArbitraryZVertical|0.5434336541616833|0.2317668771323626|0.06516246508568663|-0.8041878102320908|-0.4435911476612091|0.8438404202461243|-0.3019279539585114|0|0|0|-1|-1|3
2021-04-22 22:01:24.474 +0100|141025.123451125|0.6160125732421875|1.006622314453125|-1.669937133789062|141025.103490125|-0.5980045212081002|-0.9017719556758779|-0.9632680737712863|4.145548820495605|-1.973305106163025|0.5432164072990417|0.6237767934799194|0.1510000228881836|-1.058137655258179|XArbitraryZVertical|0.5121934607862487|0.2462406166154046|0.04206567441873896|-0.8217383817300089|-0.4477822482585907|0.8210614919662476|-0.3540468215942383|0|0|0|-1|-1|3
2021-04-22 22:01:24.494 +0100|141025.143413125|0.798736572265625|1.16925048828125|-1.980819702148438|141025.123451125|-0.4750677745804631|-0.8421609462973901|-0.9199574437196273|4.195570945739746|-2.005324125289917|0.8504580855369568|0.9700992703437805|0.1962001323699951|-1.198503017425537|XArbitraryZVertical|0.479958616161213|0.2606436141128247|0.01607153556429812|-0.8375240041748763|-0.4520179033279419|0.7955758571624756|-0.4034092724323273|0|0|0|-1|-1|3
2021-04-22 22:01:24.514 +0100|141025.163374125|0.89678955078125|1.243026733398438|-2.343353271484375|141025.143413125|-0.3522378330181371|-0.7856028972919333|-0.8766771488595523|4.375967025756836|-1.872886419296265|1.257209062576294|1.238536953926086|0.3567950129508972|-1.458912491798401|XArbitraryZVertical|0.4467711892047974|0.2725264023450105|-0.013388681031309|-0.8520244250818255|-0.4524349570274353|0.7686174511909485|-0.4522497355937958|0|0|0|-1|-1|3
2021-04-22 22:01:24.534 +0100|141025.183335125|0.928314208984375|1.30950927734375|-2.652069091796875|141025.163374125|-0.2267856892131764|-0.7214471732827381|-0.8302887656294811|4.690574169158936|-1.116349577903748|1.589067459106445|1.300667643547058|0.4931365847587585|-1.726017713546753|XArbitraryZVertical|0.4114855904040338|0.2781979872941839|-0.0445635917165302|-0.8667754532058122|-0.4455958306789398|0.7381262183189392|-0.5065709948539734|0|0|0|-1|-1|3
2021-04-22 22:01:24.554 +0100|141025.203296125|0.9407196044921875|1.234771728515625|-2.459564208984375|141025.183335125|-0.09861323081296904|-0.6400389081056722|-0.7754803633512828|5.215490341186523|0.1071615442633629|1.807968974113464|1.357393741607666|0.6104121208190918|-2.041173219680786|XArbitraryZVertical|0.3728187075893249|0.2731890996573753|-0.07548785890459181|-0.8835584728670219|-0.4264705181121826|0.700059175491333|-0.5727478265762329|0|0|0|-1|-1|3
2021-04-22 22:01:24.573 +0100|141025.223258125|0.566314697265625|0.9726409912109375|-1.617950439453125|141025.203296125|0.0237604026756011|-0.5402118671375307|-0.703973342191306|5.696182727813721|1.649255633354187|1.616105914115906|1.350899219512939|0.6146663427352905|-1.939792156219482|XArbitraryZVertical|0.3292640925640503|0.254403459429632|-0.1027351709647494|-0.9034984702910791|-0.3920522630214691|0.6472515463829041|-0.6537280678749084|0|0|0|-1|-1|3
2021-04-22 22:01:24.593 +0100|141025.243219125|0.2713775634765625|0.52593994140625|-0.675567626953125|141025.223258125|0.1163074044993083|-0.4321287807997253|-0.6151926286026383|5.439131259918213|3.507671117782593|0.5220018029212952|1.012874603271484|0.5241271257400513|-1.120864868164062|XArbitraryZVertical|0.2833534334192165|0.2211673626508159|-0.1189050010774046|-0.9255579298792942|-0.3420221209526062|0.5771158337593079|-0.7415916323661804|0|0|0|-1|-1|3
2021-04-22 22:01:24.613 +0100|141025.263180125|-0.1448211669921875|0.46453857421875|0.036773681640625|141025.243219125|0.1527031284092137|-0.3228726845916826|-0.526022253493782|3.607460737228394|5.246555805206299|-1.018284678459167|0.5964800119400024|0.03467726707458496|-0.06813472509384155|XArbitraryZVertical|0.2440222662649355|0.1743298302727365|-0.1143645366387082|-0.9470918978214403|-0.2743977606296539|0.5020973086357117|-0.8201245069503784|0|0|0|-1|-1|3
2021-04-22 22:01:24.633 +0100|141025.283142125|-0.885009765625|-0.227020263671875|0.45257568359375|141025.263180125|0.1240540448545416|-0.2347960285522578|-0.473761536704135|0.2433616071939468|4.708388805389404|-2.732278823852539|0.2197767794132233|0.02647602558135986|0.7298380732536316|XArbitraryZVertical|0.2255504253803441|0.1280852389918738|-0.08727536257728354|-0.9618234331754925|-0.2070207744836807|0.4562367498874664|-0.8654423356056213|0|0|0|-1|-1|3
2021-04-22 22:01:24.653 +0100|141025.303103125|-2.560455322265625|-0.5472259521484375|1.432815551757812|141025.283142125|0.03471489285594097|-0.1943349572839647|-0.5203746694776787|-7.324053287506104|3.31813383102417|-4.196661949157715|-0.5092061758041382|-0.4342770576477051|1.210554480552673|XArbitraryZVertical|0.2543823092819023|0.09817929596080489|-0.0416476415960247|-0.9612055520672831|-0.1675521284341812|0.4972052574157715|-0.8513009548187256|0|0|0|-1|-1|3
2021-04-22 22:01:24.673 +0100|141025.323064125|-3.381607055664062|3.05120849609375|2.394134521484375|141025.303103125|-0.1155721980698301|-0.2203092501271279|-0.7510980995532396|-16.96547317504883|3.087352275848389|-1.786026835441589|-1.959285736083984|-1.521369218826294|1.756685137748718|XArbitraryZVertical|0.3698583297912942|0.08104492751370793|0.01314929839410199|-0.925453246342876|-0.1597333401441574|0.6824418306350708|-0.7132730484008789|0|0|0|-1|-1|3
2021-04-22 22:01:24.693 +0100|141025.343025125|-1.855621337890625|3.363479614257812|0.7651824951171875|141025.343025125|-0.4576774087643667|-0.3229645420127783|-1.389080744375216|-10.35777759552002|5.344109058380127|0.5763625502586365|-2.376589298248291|2.751420021057129|1.344959855079651|XArbitraryZVertical|0.6432606574578094|-0.02298458453228759|0.07180706880817436|-0.7619261200447922|-0.05735621228814125|0.98353511095047|-0.1713748723268509|0|0|0|-1|-1|3
2021-04-22 22:01:24.713 +0100|141025.362987125|-1.15264892578125|1.347869873046875|0.41925048828125||||||||||||||||||||||||3
2021-04-22 22:01:24.733 +0100|141025.382948125|-1.549606323242188|0.1788330078125|0.61053466796875|141025.362987125|-0.9079147245919178|-0.6975553045742089|-1.528813861639964|-4.956544399261475|2.335933446884155|1.511614561080933|-1.037324547767639|0.7904320359230042|0.4187972545623779|XArbitraryZVertical|0.6927320199337332|-0.06354363822253387|0.08489576709440834|-0.7133564390545777|-0.02696150541305542|0.9991188645362854|-0.03216910734772682|0|0|0|-1|-1|3
2021-04-22 22:01:24.753 +0100|141025.402909125|-1.33258056640625|0.7629547119140625|0.4977874755859375|141025.382948125|2.901234378417207|-3.138116339611044|-1.516918594287344|-4.382888793945312|1.04076623916626|1.182415843009949|-1.490536212921143|-0.6755813360214233|0.4882912635803223|XArbitraryZVertical|0.7205174270646961|-0.08821492103347664|0.08371346441226547|-0.6826895199014924|-0.0001872158027254045|0.9985489249229431|0.05385446920990944|0|0|0|-1|-1|3
2021-04-22 22:01:24.773 +0100|141025.422871125|-1.027755737304688|1.126296997070312|0.187744140625|141025.402909125|2.736020304387452|2.992004162981416|-1.421402879113761|-4.462154865264893|0.04696141928434372|1.134306192398071|-1.471645474433899|-0.4713138937950134|0.4581699371337891|XArbitraryZVertical|0.750117097213327|-0.1044660106421122|0.07554496298352718|-0.6486172491534864|0.02218177542090416|0.9888615608215332|0.1471776068210602|0|0|0|-1|-1|3
2021-04-22 22:01:24.793 +0100|141025.442832125|-0.969970703125|0.709930419921875|0.0265045166015625|141025.422871125|2.693652363190121|2.938679088598469|-1.356087535798489|-1.726875424385071|-1.159383058547974|0.7466190457344055|-1.102920532226562|0.1783417463302612|0.01542983949184418|XArbitraryZVertical|0.7695553486251201|-0.1101392810766638|0.06169280315419823|-0.6259776383986948|0.04293740168213844|0.9770385026931763|0.208692193031311|0|0|0|-1|-1|3
2021-04-22 22:01:24.813 +0100|141025.462793125|-0.72735595703125|0.4024200439453125|-0.0623016357421875|141025.442832125|2.657227966669328|2.87548582400759|-1.341983052264366|0.2305761873722076|-1.510478377342224|0.3183907568454742|-1.066455245018005|-0.1447585225105286|-0.1459004133939743|XArbitraryZVertical|0.7734102636589458|-0.1060930200197719|0.04692555075136665|-0.6232004891613695|0.0596490390598774|0.9739362597465515|0.2188383340835571|0|0|0|-1|-1|3
2021-04-22 22:01:24.833 +0100|141025.482754125|-0.5912322998046875|0.5363311767578125|-0.0715484619140625|141025.462793125|2.636447708429768|2.824699890085717|-1.350471577910734|0.5303999781608582|-1.550433158874512|-0.07606291025876999|-0.856082558631897|-0.5338862538337708|-0.2546766996383667|XArbitraryZVertical|0.7709741139478343|-0.09711638759690291|0.03499589075174352|-0.6284446919379784|0.06810270249843597|0.9758265018463135|0.207665354013443|0|0|0|-1|-1|3
2021-04-22 22:01:24.853 +0100|141025.502716125|-0.509246826171875|0.7632598876953125|-0.1004180908203125|141025.482754125|2.636730501917644|2.793627465702745|-1.360140807563675|0.4649251699447632|-1.552011489868164|-0.2254753112792969|-0.683194100856781|-0.5077097415924072|-0.2571464776992798|XArbitraryZVertical|0.7687092234032981|-0.08585541807514166|0.02435960885841762|-0.6333417218618552|0.07130072265863419|0.9778940677642822|0.1965700387954712|0|0|0|-1|-1|3
2021-04-22 22:01:24.873 +0100|141025.522677125|-0.375518798828125|0.7240753173828125|-0.1223907470703125|141025.502716125|2.639827723397175|2.767904999629223|-1.375561842174791|1.01720666885376|-1.316122770309448|-0.3939276039600372|-0.6113620400428772|-0.2531733512878418|-0.2944076061248779|XArbitraryZVertical|0.7647166260183745|-0.0742481252513422|0.01582345330335313|-0.6398791725747679|0.07081874459981918|0.9810022115707397|0.1806086003780365|0|0|0|-1|-1|3
2021-04-22 22:01:24.893 +0100|141025.542638125|-0.2384033203125|0.469268798828125|-0.02484130859375|141025.522677125|2.635359944090907|2.739054294699477|-1.403525890350685|1.532414317131042|-1.122204422950745|-0.6138553619384766|-0.4678888916969299|-0.221776008605957|-0.2740937471389771|XArbitraryZVertical|0.7567647274943632|-0.06244352152650577|0.01059045497325353|-0.650611902465889|0.06522402912378311|0.9860429167747498|0.1531840860843658|0|0|0|-1|-1|3
2021-04-22 22:01:24.913 +0100|141025.562599125|-0.0707855224609375|0.5987091064453125|0.0069732666015625|141025.542638125|2.658323784764484|2.741297587988544|-1.434491115926527|0.90020751953125|-0.9497009515762329|-0.9091880321502686|-0.3285726308822632|-0.474840521812439|-0.1814759075641632|XArbitraryZVertical|0.7483889045013444|-0.04984741563625209|0.008670930137688026|-0.6613275301180253|0.05295247957110405|0.9907248020172119|0.125141441822052|0|0|0|-1|-1|3
2021-04-22 22:01:24.933 +0100|141025.582561125|0.0297088623046875|1.000152587890625|-0.05242919921875|141025.562599125|2.793236193283331|2.857541728143908|-1.445184724340526|-0.4130573272705078|-0.81069016456604|-1.107691049575806|-0.1496735960245132|-0.472849428653717|-0.1040409952402115|XArbitraryZVertical|0.7475290889611411|-0.03648764184478564|0.008885804689033052|-0.6631666919821895|0.0351099818944931|0.9921212196350098|0.1202621757984161|0|0|0|-1|-1|3
2021-04-22 22:01:24.953 +0100|141025.602522125|-0.01458740234375|1.206710815429688|-0.145477294921875|141025.582561125|2.990974765547989|3.039240275954493|-1.437674037638816|-0.5985551476478577|-0.6264932155609131|-1.223605036735535|0.004427957348525524|-0.08137756586074829|-0.1690676361322403|XArbitraryZVertical|0.7519911868531703|-0.02295792834996059|0.01109208690266924|-0.6586799290539741|0.01356154959648848|0.991152286529541|0.1320356279611588|0|0|0|-1|-1|3
2021-04-22 22:01:24.973 +0100|141025.622483125|0.0660858154296875|1.0968017578125|-0.111297607421875|141025.602522125|-3.109471615250426|-3.072571543392489|-1.431399777249225|-0.02714243344962597|-0.266695648431778|-1.241726875305176|0.008895322680473328|0.194880485534668|-0.2673979103565216|XArbitraryZVertical|0.7544511860214445|-0.01052445961651446|0.01550300417532043|-0.6560886377596449|-0.009582563303411007|0.9902999997138977|0.1386147141456604|0|0|0|-1|-1|3
2021-04-22 22:01:24.993 +0100|141025.642445125|0.077789306640625|1.040054321289062|0.005126953125|141025.622483125|-2.923973494520363|-2.889776711938781|-1.432918308069541|0.4671428203582764|0.1180043891072273|-1.264312267303467|0.06596819311380386|0.1500083208084106|-0.2809954881668091|XArbitraryZVertical|0.7526976058582022|-0.0007328823981320372|0.02338931565812448|-0.6579505391997287|-0.03424576297402382|0.9905098676681519|0.133108451962471|0|0|0|-1|-1|3
2021-04-22 22:01:25.013 +0100|141025.662406125|-0.090850830078125|1.19500732421875|0.0972900390625|141025.642445125|-2.735535771971311|-2.700772804874075|-1.431619383428174|0.2632356882095337|0.1282353401184082|-1.206449270248413|0.1687965393066406|0.03400725126266479|-0.1429984569549561|XArbitraryZVertical|0.7501136948405837|0.00794250438611387|0.03246293575734285|-0.6604640026726349|-0.05919326096773148|0.9903305172920227|0.1254672706127167|0|0|0|-1|-1|3
2021-04-22 22:01:25.033 +0100|141025.682367125|-0.184661865234375|1.251266479492188|0.1790313720703125|141025.662406125|-2.575311853961185|-2.537830555009508|-1.425608545013966|0.4240967035293579|0.3084138333797455|-1.056944727897644|0.02319546043872833|0.1670001149177551|-0.04700207710266113|XArbitraryZVertical|0.747878499898628|0.01510556753382311|0.0415375203494164|-0.6623627040707391|-0.08214076608419418|0.9894787669181824|0.1191008612513542|0|0|0|-1|-1|3
2021-04-22 22:01:25.053 +0100|141025.702328125|-0.245880126953125|1.13714599609375|0.17236328125|141025.682367125|-2.415476904761432|-2.372167657587969|-1.422962233041058|0.849434494972229|0.4524657726287842|-0.9350998997688293|-0.06124924123287201|0.2640813589096069|0.05871593952178955|XArbitraryZVertical|0.7432987367313273|0.02024084537626277|0.05077912588500867|-0.6667225459450702|-0.1024781763553619|0.9890924096107483|0.105805404484272|0|0|0|-1|-1|3
2021-04-22 22:01:25.073 +0100|141025.722290125|-0.342498779296875|0.999786376953125|0.2790069580078125|141025.702328125|-2.231834629606589|-2.18027901157621|-1.422022885562954|1.160104513168335|0.5620260834693909|-0.9222335815429688|-0.1096187010407448|0.1988210082054138|0.08049415796995163|XArbitraryZVertical|0.7361002686030425|0.02412413482055674|0.06047464404540961|-0.6737339109928612|-0.1215372979640961|0.9889536499977112|0.08485116064548492|0|0|0|-1|-1|3
2021-04-22 22:01:25.092 +0100|141025.742251125|-0.46258544921875|1.0367431640625|0.316436767578125|141025.722290125|-2.04212038397023|-1.981153408153104|-1.416024160498942|0.9680643081665039|0.5684416890144348|-0.9852641820907593|-0.175766721367836|0.03690135478973389|0.1970934867858887|XArbitraryZVertical|0.7279888968079655|0.0279521499476636|0.07092664531358661|-0.6813371652512308|-0.1413573026657104|0.9880467057228088|0.06149831414222717|0|0|0|-1|-1|3
2021-04-22 22:01:25.112 +0100|141025.762212125|-0.4322509765625|1.1419677734375|0.2334442138671875|141025.742251125|-1.908227261189415|-1.836872869208227|-1.403345633416534|0.6569059491157532|0.6948413252830505|-0.9539309144020081|-0.2731708288192749|0.02077728509902954|0.2788988351821899|XArbitraryZVertical|0.7217557346493034|0.03132817586231698|0.08159595872986793|-0.6866071989423519|-0.1608050018548965|0.986012876033783|0.04382558912038803|0|0|0|-1|-1|3
2021-04-22 22:01:25.132 +0100|141025.782174125|-0.381683349609375|1.139190673828125|0.243621826171875|141025.762212125|-1.811699618144401|-1.726223816947044|-1.38577642462398|0.6853992342948914|0.8348729610443115|-1.114811420440674|-0.274398148059845|0.1377032995223999|0.2206070423126221|XArbitraryZVertical|0.7163001283320586|0.033960993896377|0.09412475416915303|-0.6905804499906917|-0.1817487478256226|0.9829325675964355|0.02847844548523426|0|0|0|-1|-1|3
2021-04-22 22:01:25.152 +0100|141025.802135125|-0.3832244873046875|1.033309936523438|0.26177978515625|141025.782174125|-1.720538927579353|-1.620577777417529|-1.365802683708917|0.8801803588867188|0.7933565378189087|-1.037929058074951|-0.1737818866968155|0.1689783930778503|0.230380654335022|XArbitraryZVertical|0.7097231154677325|0.03684830631574616|0.1071312881649744|-0.6953116434377533|-0.2033092230558395|0.9790622591972351|0.01012939680367708|0|0|0|-1|-1|3
2021-04-22 22:01:25.172 +0100|141025.822096125|-0.13568115234375|0.98577880859375|0.12969970703125|141025.802135125|-1.638906977213203|-1.523943248897474|-1.34448387801576|0.7792629599571228|0.9043154120445251|-1.13707447052002|-0.1810731440782547|0.09497278928756714|0.278714120388031|XArbitraryZVertical|0.7022727805509723|0.03947496956464038|0.1202022443883989|-0.7005756445765651|-0.224139928817749|0.9745004773139954|-0.01050933729857206|0|0|0|-1|-1|3
2021-04-22 22:01:25.192 +0100|141025.842057125|0.0892333984375|1.056915283203125|-0.0263824462890625|141025.822096125|-1.606399341152115|-1.474911832049199|-1.31946046552926|0.1422431021928787|0.7689095735549927|-1.267987966537476|0.03756436705589294|0.01788437366485596|0.1990732550621033|XArbitraryZVertical|0.6973441895581789|0.04249893505706557|0.134675021745723|-0.7026861086671171|-0.2475565075874329|0.9685810804367065|-0.02380984276533127|0|0|0|-1|-1|3
2021-04-22 22:01:25.212 +0100|141025.862019125|0.150146484375|1.200042724609375|-0.183563232421875|141025.842057125|-1.624668559490949|-1.481119349255258|-1.295143538493713|-0.3212120532989502|0.369236946105957|-1.177496194839478|0.3210691511631012|0.06602674722671509|0.03241759538650513|XArbitraryZVertical|0.6968587988020597|0.04690647884109801|0.1473622272824012|-0.7003371543752696|-0.2710820436477661|0.9622477293014526|-0.02437519282102585|0|0|0|-1|-1|3
2021-04-22 22:01:25.232 +0100|141025.881980125|0.1140899658203125|1.279312133789062|-0.30615234375|141025.862019125|-1.653653415024922|-1.505184589990652|-1.273554474900709|-0.2416073977947235|0.03218396753072739|-1.032983660697937|0.4398370087146759|0.2100202441215515|-0.1276924610137939|XArbitraryZVertical|0.698288595534406|0.05283546242137421|0.1565661361691014|-0.6964831141571302|-0.2922547161579132|0.9561479687690735|-0.01920290291309357|0|0|0|-1|-1|3
2021-04-22 22:01:25.252 +0100|141025.901941125|0.1230926513671875|1.213302612304688|-0.395599365234375|141025.881980125|-1.660875787134658|-1.512392584182193|-1.255168412401052|0.1374615281820297|-0.04279147461056709|-0.82749342918396|0.4339532256126404|0.3181666135787964|-0.2560193538665771|XArbitraryZVertical|0.6981560262865939|0.05931818322387548|0.1629117093932996|-0.6946362059494976|-0.3098846971988678|0.9506016373634338|-0.01811903156340122|0|0|0|-1|-1|3
2021-04-22 22:01:25.272 +0100|141025.921903125|0.2231903076171875|1.026275634765625|-0.3433380126953125|141025.901941125|-1.640792060629338|-1.494125848987697|-1.239523703656224|0.5986811518669128|-0.02666528709232807|-0.7289690971374512|0.4359090626239777|0.2981603741645813|-0.3630870580673218|XArbitraryZVertical|0.6951654817008429|0.06548844615908973|0.1676860723684474|-0.6959437853341676|-0.3242917060852051|0.9456291794776917|-0.02491243369877338|0|0|0|-1|-1|3
2021-04-22 22:01:25.292 +0100|141025.941864125|0.2873687744140625|0.9042510986328125|-0.31524658203125|141025.921903125|-1.604209146057161|-1.461448171643011|-1.223454191689489|0.7280644774436951|-0.2066909819841385|-0.7598392367362976|0.5337091684341431|0.1420096158981323|-0.3235688209533691|XArbitraryZVertical|0.6900581835767555|0.07242736732156249|0.1717716624819245|-0.6993342962955912|-0.3383667767047882|0.9402807950973511|-0.03714795783162117|0|0|0|-1|-1|3
2021-04-22 22:01:25.312 +0100|141025.961825125|0.22418212890625|0.87322998046875|-0.3633880615234375|141025.941864125|-1.571305670730087|-1.438960758676571|-1.205946512018151|0.6195684671401978|-0.6518291234970093|-0.8519611358642578|0.6334975957870483|-0.0131569504737854|-0.2705082297325134|XArbitraryZVertical|0.685434407040489|0.08202231720046833|0.1739843182678099|-0.7022689137955416|-0.3537131249904633|0.9341773390769958|-0.04690402746200562|0|0|0|-1|-1|3
2021-04-22 22:01:25.332 +0100|141025.981786125|0.2253570556640625|0.9608612060546875|-0.6015472412109375|141025.961825125|-1.543887648928818|-1.431162639593911|-1.186646225383388|0.6776740550994873|-1.086432218551636|-0.93015056848526|0.6192619204521179|-0.05841922760009766|-0.2798998355865479|XArbitraryZVertical|0.6817737090087954|0.09541576177185968|0.1736171381908375|-0.704228467154647|-0.3711241781711578|0.9271172881126404|-0.05216088518500328|0|0|0|-1|-1|3
2021-04-22 22:01:25.352 +0100|141026.001748125|0.322509765625|1.006637573242188|-0.621490478515625|141025.981786125|-1.503464525179913|-1.417567346759052|-1.165100357785152|1.297837615013123|-1.275280237197876|-0.9678945541381836|0.5941202640533447|0.01328563690185547|-0.4857826828956604|XArbitraryZVertical|0.676292091116985|0.1118508704502321|0.1713257259949343|-0.7076482377108342|-0.3900346159934998|0.9188279509544373|-0.06023678183555603|0|0|0|-1|-1|3
2021-04-22 22:01:25.372 +0100|141026.021707875|0.425201416015625|1.019760131835938|-0.5197906494140625|141026.001748125|-1.425446132692707|-1.374693533823231|-1.140045069657842|2.29703164100647|-1.577926516532898|-0.9328702688217163|0.7154890298843384|0.1018304824829102|-0.5631704926490784|XArbitraryZVertical|0.6648726013120294|0.131394731524899|0.166449336398672|-0.7162225108180403|-0.4095509350299835|0.9086523056030273|-0.08135969936847687|0|0|0|-1|-1|3
2021-04-22 22:01:25.392 +0100|141026.041668875|0.5952911376953125|1.103164672851562|-0.460968017578125|141026.021707875|-1.305547487570594|-1.301959862418844|-1.111154947062623|3.402553081512451|-2.014914989471436|-0.6758261322975159|0.8177215456962585|0.1099224090576172|-0.4110978245735168|XArbitraryZVertical|0.6460077778726343|0.1541365953887645|0.1566067276894639|-0.7310200718042904|-0.4276922047138214|0.8962116241455078|-0.1178317219018936|0|0|0|-1|-1|3
2021-04-22 22:01:25.412 +0100|141026.061630875|0.7635650634765625|1.06561279296875|-0.351898193359375|141026.041668875|-1.152331241905446|-1.212159308747831|-1.076864030090717|4.308151245117188|-2.66136360168457|-0.4004563391208649|0.9904823303222656|0.2082543969154358|-0.3252164125442505|XArbitraryZVertical|0.6198571150538759|0.180483921045567|0.139468796839102|-0.7508336429878778|-0.4439282417297363|0.8804754018783569|-0.1664054244756699|0|0|0|-1|-1|3
2021-04-22 22:01:25.432 +0100|141026.081591875|0.7616119384765625|1.10546875|-0.4986419677734375|141026.061630875|-0.9852899222660988|-1.127659537914065|-1.036199333259818|4.787497043609619|-3.456441402435303|-0.1208342015743256|1.198289155960083|0.2199399471282959|-0.1417238712310791|XArbitraryZVertical|0.5883902936753308|0.2111101732826427|0.1140966598646415|-0.7721473056926539|-0.4602830410003662|0.8604740500450134|-0.2184587121009827|0|0|0|-1|-1|3
2021-04-22 22:01:25.452 +0100|141026.101552875|0.665191650390625|1.252166748046875|-0.8519287109375|141026.081591875|-0.8202149996696469|-1.062445544947182|-0.9921950156850519|4.931147575378418|-3.976125955581665|0.2438017278909683|1.248195171356201|0.2388978600502014|-0.1676017940044403|XArbitraryZVertical|0.5539992671143428|0.2449446000873839|0.08118068821016755|-0.7915153872346987|-0.4777029156684875|0.8372283577919006|-0.2661738991737366|0|0|0|-1|-1|3
2021-04-22 22:01:25.472 +0100|141026.121513875|0.4972076416015625|1.282455444335938|-1.221817016601562|141026.101552875|-0.6570226058069235|-1.00938509938429|-0.9504629938184538|5.152079105377197|-4.094645023345947|0.8835896849632263|1.207944512367249|0.4057064652442932|-0.4742745161056519|XArbitraryZVertical|0.517800392315219|0.2777487366344371|0.04170555832325299|-0.8080836534318964|-0.4920787513256073|0.8136847615242004|-0.3094767928123474|0|0|0|-1|-1|3
2021-04-22 22:01:25.492 +0100|141026.141475875|0.4562835693359375|1.30987548828125|-1.662933349609375|141026.121513875|-0.4919191144269138|-0.9542394367900789|-0.9122106819442072|5.175779819488525|-3.590078115463257|1.37525200843811|1.020127058029175|0.4976704120635986|-0.7651262283325195|XArbitraryZVertical|0.4798743792606909|0.304602356185537|-0.001995316755108513|-0.8227601678603282|-0.4993143677711487|0.7908586263656616|-0.3538759648799896|0|0|0|-1|-1|3
2021-04-22 22:01:25.512 +0100|141026.161436875|0.12939453125|1.404159545898438|-1.8941650390625|141026.141475875|-0.3323707778527391|-0.8961438191891919|-0.8762317880948846|4.953447341918945|-3.044805765151978|1.743996858596802|0.977660059928894|0.5137725472450256|-1.182680130004883|XArbitraryZVertical|0.4419843679976685|0.323656558235963|-0.04624776823619312|-0.8353188014271774|-0.4998312294483185|0.7683324813842773|-0.399792492389679|0|0|0|-1|-1|3
2021-04-22 22:01:25.532 +0100|141026.181397875|-0.2397918701171875|1.500167846679688|-2.19952392578125|141026.161436875|-0.181670295073194|-0.8331095717173341|-0.8430287958274533|4.78800106048584|-1.93055784702301|2.098764181137085|0.7363330721855164|0.6292091012001038|-1.384552121162415|XArbitraryZVertical|0.4061036821329885|0.3337347860549723|-0.08916905889838003|-0.8460200025476139|-0.492268830537796|0.7466613054275513|-0.4474017918109894|0|0|0|-1|-1|3
2021-04-22 22:01:25.552 +0100|141026.201359875|-0.4096832275390625|1.364120483398438|-2.368484497070312|141026.181397875|-0.03401968961766727|-0.7450958149602775|-0.8058331604347755|5.016101360321045|-0.04370312765240669|2.242965459823608|0.3007586598396301|0.7624337673187256|-1.609624981880188|XArbitraryZVertical|0.3708483938850466|0.3285816564949366|-0.1281271635135822|-0.8591211460721458|-0.4695513844490051|0.7214078903198242|-0.5090111494064331|0|0|0|-1|-1|3
2021-04-22 22:01:25.572 +0100|141026.221320875|-0.552978515625|0.8230438232421875|-1.978912353515625|141026.201359875|0.103928902913409|-0.6285300806252687|-0.7525729034792722|5.255395889282227|1.947068691253662|1.852543592453003|0.05101001262664795|0.7395622134208679|-1.783875226974487|XArbitraryZVertical|0.3340677265420563|0.3052542404960397|-0.1593790074531687|-0.8773921937065683|-0.4291686117649078|0.6835190653800964|-0.5904372334480286|0|0|0|-1|-1|3
2021-04-22 22:01:25.592 +0100|141026.241281875|-0.9078826904296875|0.29522705078125|-1.208038330078125|141026.221320875|0.2060607353820261|-0.50582420043829|-0.6829098982321009|4.576240062713623|3.529584646224976|0.7748636603355408|-0.1210649013519287|0.3585261702537537|-1.443715572357178|XArbitraryZVertical|0.2982371579535293|0.2678722527319973|-0.1771730550466036|-0.8988375712022306|-0.3758681118488312|0.6310530304908752|-0.6785981059074402|0|0|0|-1|-1|3
2021-04-22 22:01:25.612 +0100|141026.261242875|-1.604217529296875|0.1442413330078125|-0.383819580078125|141026.241281875|0.2463134505678903|-0.3991956518168874|-0.6208410070633947|2.182639122009277|4.550065040588379|-0.6355247497558594|-0.4833992421627045|-0.164131224155426|-0.6514269709587097|XArbitraryZVertical|0.2739338272256582|0.2241479360897231|-0.1747580815434727|-0.9187914304314955|-0.3161461055278778|0.5817194581031799|-0.7494359016418457|0|0|0|-1|-1|3
2021-04-22 22:01:25.631 +0100|141026.281204875|-2.610336303710938|1.230972290039062|0.4504241943359375|141026.261242875|0.2227374964933514|-0.3183446660533331|-0.6096739024600132|-2.213483810424805|4.782112121582031|-1.510676264762878|-1.108279466629028|-0.4816721081733704|0.2413808107376099|XArbitraryZVertical|0.277704223228247|0.1831920743116758|-0.151951987554287|-0.9307156708724674|-0.2566040456295013|0.5726001262664795|-0.7786420583724976|0|0|0|-1|-1|3
2021-04-22 22:01:25.651 +0100|141026.301165875|-2.70166015625|1.632568359375|0.33697509765625|141026.281204875|0.1563226719249839|-0.2645531077899525|-0.6885123606785177|-6.684073448181152|4.804351806640625|-1.280762910842896|-2.153054237365723|0.2779570817947388|1.102826118469238|XArbitraryZVertical|0.3238328023997106|0.1498957216673406|-0.1172352666753317|-0.9267792023254027|-0.2019112259149551|0.6353891491889954|-0.7453271746635437|0|0|0|-1|-1|3
2021-04-22 22:01:25.671 +0100|141026.321126875|-1.67962646484375|1.136383056640625|-0.0515899658203125|141026.301165875|0.07963476306378486|-0.2084756770246916|-0.8545996190016126|-10.22036933898926|6.306910514831543|0.1287357658147812|-2.695251941680908|0.9242509603500366|1.173510551452637|XArbitraryZVertical|0.4080693532247455|0.111025865907641|-0.07911645468914241|-0.9027144119473017|-0.1358792930841446|0.7543081045150757|-0.642305314540863|0|0|0|-1|-1|3
2021-04-22 22:01:25.691 +0100|141026.341088875|-1.777999877929688|0.9770355224609375|0.1729736328125|141026.321126875|0.05713206326939496|-0.09598168200608738|-1.058133933558234|-10.17013549804688|6.242822647094727|1.579495906829834|-1.85988461971283|0.4671666622161865|0.4143747389316559|XArbitraryZVertical|0.5027584251467661|0.05579617613129886|-0.0488318429467131|-0.8612410978057681|-0.04700667783617973|0.8714417219161987|-0.4882414937019348|0|0|0|-1|-1|3
2021-04-22 22:01:25.711 +0100|141026.361049875|-1.61419677734375|1.6038818359375|0.50103759765625|141026.341088875|0.1763466254228285|0.123651401540381|-1.262948681594547|-10.15469455718994|4.757391929626465|2.774187564849854|-1.692310214042664|-0.1443175077438354|0.3606782853603363|XArbitraryZVertical|0.5913101214755875|0.002207480931111594|-0.03460886177091929|-0.8056983353441187|0.03737201169133186|0.9529879689216614|-0.3006949424743652|0|0|0|-1|-1|3
2021-04-22 22:01:25.731 +0100|141026.381010875|-0.902923583984375|0.8594512939453125|0.5666046142578125|141026.361049875|0.6902984617068053|0.7110511808164126|-1.399835076404274|-6.258009433746338|3.800563097000122|2.750388383865356|-1.889719009399414|0.6539217829704285|0.6172314286231995|XArbitraryZVertical|0.6583394367784514|-0.04623311549172532|-0.03161257181379117|-0.7506346461621209|0.1110319644212723|0.9854216575622559|-0.1289033740758896|0|0|0|-1|-1|3
2021-04-22 22:01:25.751 +0100|141026.400971875|-0.471923828125|0.383941650390625|0.3691253662109375|141026.381010875|1.301258575609669|1.379447232026856|-1.404101185148388|-3.110038280487061|2.6594398021698|1.928314447402954|-1.235300779342651|0.07524788379669189|0.6188681125640869|XArbitraryZVertical|0.6906677004896863|-0.08485262478309688|-0.0297708694937273|-0.7175598188597599|0.1628972291946411|0.9861385226249695|-0.03155631944537163|0|0|0|-1|-1|3
2021-04-22 22:01:25.771 +0100|141026.420933875|-0.46807861328125|0.357818603515625|0.31982421875|141026.400971875|1.559294099821249|1.670306574334763|-1.376058680308592|-1.481338977813721|1.059084296226501|1.095071196556091|-0.7298153638839722|-0.5259590744972229|0.3823573589324951|XArbitraryZVertical|0.7056975644224951|-0.1077180689779596|-0.02963231173364476|-0.6996498157993065|0.1925527602434158|0.981098473072052|0.01922447048127651|0|0|0|-1|-1|3
2021-04-22 22:01:25.791 +0100|141026.440894875|-0.5232696533203125|0.3780670166015625|0.195281982421875|141026.420933875|1.634132032618946|1.752307998877932|-1.359684352971782|-0.2649465799331665|-0.06688237935304642|0.3303610980510712|-0.6502135992050171|-0.6362759470939636|0.2989202737808228|XArbitraryZVertical|0.7110418642852161|-0.1154684137922918|-0.03241881741702685|-0.6928461293895292|0.206105962395668|0.9777985215187073|0.03782697394490242|0|0|0|-1|-1|3
2021-04-22 22:01:25.811 +0100|141026.460855875|-0.47503662109375|0.3208770751953125|0.2165985107421875|141026.440894875|1.602567587530921|1.715224732595638|-1.361107388188605|0.9011817574501038|-0.4770987033843994|-0.3377950191497803|-0.7267113924026489|-0.5949472784996033|0.1959939002990723|XArbitraryZVertical|0.7086196106096935|-0.1133044765281395|-0.034123151666208|-0.6955976860837924|0.2059893310070038|0.9780957102775574|0.02995931357145309|0|0|0|-1|-1|3
2021-04-22 22:01:25.831 +0100|141026.480817875|-0.37030029296875|0.3884429931640625|0.174652099609375|141026.460855875|1.482437133811334|1.587477018409707|-1.37504880865139|1.498991966247559|-0.5305993556976318|-0.8171528577804565|-0.6936653256416321|-0.6533113718032837|0.2003700733184814|XArbitraryZVertical|0.7002764917219922|-0.1059950996310706|-0.03211012548248921|-0.7052282884269017|0.1944734156131744|0.9809025526046753|0.003244251944124699|0|0|0|-1|-1|3
2021-04-22 22:01:25.851 +0100|141026.500778875|-0.292510986328125|0.5073089599609375|0.0992584228515625|141026.480817875|1.305486894698585|1.402384212227186|-1.392179030329755|1.630446434020996|-0.5928358435630798|-1.136989951133728|-0.5690321922302246|-0.6241809725761414|0.225872278213501|XArbitraryZVertical|0.6898923927301768|-0.09569852424602711|-0.02748154594061908|-0.7170322460790119|0.1751564741134644|0.984090268611908|-0.02978055737912655|0|0|0|-1|-1|3
2021-04-22 22:01:25.871 +0100|141026.520739875|-0.2894439697265625|0.6376953125|0.0485076904296875|141026.500778875|1.076939315718238|1.164669486111941|-1.407234558521918|1.66205883026123|-0.6511711478233337|-1.39221978187561|-0.4521559774875641|-0.5099839568138123|0.173597514629364|XArbitraryZVertical|0.6789408092245306|-0.08291698890156986|-0.02110956467351776|-0.7291904077623632|0.1495888382196426|0.9866535663604736|-0.06432829797267914|0|0|0|-1|-1|3
2021-04-22 22:01:25.891 +0100|141026.540700875|-0.275390625|0.668975830078125|0.0547332763671875|141026.520739875|0.8040585981200113|0.8826169928733251|-1.415863386681628|1.612687110900879|-0.5991408824920654|-1.584392905235291|-0.405875951051712|-0.3711392879486084|0.1692698001861572|XArbitraryZVertical|0.6680532695395741|-0.06855463957366607|-0.01318633151555028|-0.7408315285662302|0.1191932186484337|0.9880219101905823|-0.09801018238067627|0|0|0|-1|-1|3
2021-04-22 22:01:25.911 +0100|141026.560662875|-0.1902618408203125|0.752410888671875|0.030792236328125|141026.540700875|0.5062479865735012|0.5782274660544499|-1.414590580363797|1.499780774116516|-0.4028424918651581|-1.751025199890137|-0.3716330528259277|-0.3281869292259216|0.1853209137916565|XArbitraryZVertical|0.6572373072328329|-0.05383689531382771|-0.003105883162462017|-0.7517521302479087|0.08502660691738129|0.9878246784210205|-0.1302814185619354|0|0|0|-1|-1|3
2021-04-22 22:01:25.931 +0100|141026.580623875|-0.0803070068359375|0.8373260498046875|0.027923583984375|141026.560662875|0.2284743665770171|0.2978795219418919|-1.404689202345196|1.295037388801575|-0.2304895222187042|-1.856364727020264|-0.2650505304336548|-0.2652578353881836|0.1962112933397293|XArbitraryZVertical|0.6476044475149312|-0.03970940368688129|0.009188438476707087|-0.7608858864617616|0.04852770268917084|0.9862359166145325|-0.1580632925033569|0|0|0|-1|-1|3
2021-04-22 22:01:25.951 +0100|141026.600584875|-0.036376953125|0.92291259765625|0.03485107421875|141026.580623875|-0.0107687921954409|0.05796138770678777|-1.386238174738537|1.230432271957397|-0.2236785441637039|-1.921811819076538|-0.1156423315405846|-0.1685334444046021|0.2019438147544861|XArbitraryZVertical|0.638541708200851|-0.02572897717022123|0.02265424318144285|-0.7688234593408529|0.0106307240203023|0.9830174446105957|-0.1832050085067749|0|0|0|-1|-1|3
2021-04-22 22:01:25.971 +0100|141026.620546875|-0.0714263916015625|0.9705047607421875|-0.0447998046875|141026.600584875|-0.2005970927799966|-0.133724443621133|-1.361220995254915|1.15254020690918|-0.3358623385429382|-1.885717511177063|-0.01030293665826321|-0.06828325986862183|0.2426570653915405|XArbitraryZVertical|0.6299053100285491|-0.01120314355205171|0.03581480081873733|-0.7757649130799155|-0.02773785591125488|0.9781193733215332|-0.2061875760555267|0|0|0|-1|-1|3
2021-04-22 22:01:25.996 +0100|141026.640507875|-0.1660919189453125|0.9807281494140625|-0.1371002197265625|141026.620546875|-0.3438992987581246|-0.2813047945657212|-1.331800546670361|1.056875467300415|-0.433603823184967|-1.842003583908081|0.01229618489742279|-0.01567375659942627|0.2105019092559814|XArbitraryZVertical|0.6215085698795987|0.003955266918443077|0.04789341652767813|-0.7819321408694289|-0.06571783870458603|0.9715762138366699|-0.227422907948494|0|0|0|-1|-1|3
2021-04-22 22:01:26.011 +0100|141026.660468875|-0.243621826171875|0.9588623046875|-0.1321563720703125|141026.640507875|-0.4532917747778683|-0.3959276335892558|-1.299498164583641|1.092049241065979|-0.4110056459903717|-1.858586668968201|-0.03872395306825638|0.02633774280548096|0.1141345053911209|XArbitraryZVertical|0.6131899080205839|0.01930176467748661|0.05948620335888601|-0.7874560462199364|-0.1033512651920319|0.9634238481521606|-0.2472511529922485|0|0|0|-1|-1|3
2021-04-22 22:01:26.031 +0100|141026.680429875|-0.253814697265625|1.007705688476562|-0.19561767578125|141026.660468875|-0.5401046456022712|-0.4865185933581304|-1.265928506266648|0.8660322427749634|-0.3343654274940491|-1.787830591201782|-0.08460210263729095|0.003495752811431885|0.1455571353435516|XArbitraryZVertical|0.6051239818557274|0.0340021063061204|0.0714493108804007|-0.7921893031047029|-0.1403435915708542|0.9538866281509399|-0.2653376460075378|0|0|0|-1|-1|3
2021-04-22 22:01:26.051 +0100|141026.700391875|-0.1728057861328125|1.035690307617188|-0.313079833984375|141026.680429875|-0.610021649640214|-0.5583398274825023|-1.236007280166307|0.6305489540100098|-0.2264251112937927|-1.594494462013245|-0.08984702825546265|0.05434572696685791|0.1047383546829224|XArbitraryZVertical|0.598714024960421|0.04696142555261323|0.08299115481087443|-0.7952664959890313|-0.1740696281194687|0.9444796442985535|-0.2786722779273987|0|0|0|-1|-1|3
2021-04-22 22:01:26.071 +0100|141026.720352875|-0.1423187255859375|1.024185180664062|-0.38043212890625|141026.700391875|-0.6625156385079409|-0.6127346384012579|-1.210889429007041|0.5197623372077942|-0.2985722124576569|-1.268659830093384|0.009688898921012878|0.08834737539291382|0.006440699100494385|XArbitraryZVertical|0.5937798560839377|0.05802597749832362|0.09265445560444328|-0.7971661030130339|-0.2025453895330429|0.9359295964241028|-0.2881169319152832|0|0|0|-1|-1|3
2021-04-22 22:01:26.091 +0100|141026.740313875|-0.1859130859375|0.8872222900390625|-0.38311767578125|141026.720352875|-0.6924289798947472|-0.6476653383735902|-1.187872746348776|0.7156286835670471|-0.3949258625507355|-0.9915894269943237|0.08299712836742401|0.1140957474708557|-0.07757705450057983|XArbitraryZVertical|0.5885461358368174|0.06802802466727338|0.09909970876967117|-0.7994779933623636|-0.2254233211278915|0.9275762438774109|-0.2979712784290314|0|0|0|-1|-1|3
2021-04-22 22:01:26.111 +0100|141026.760275875|-0.2413787841796875|0.8628387451171875|-0.3611602783203125|141026.740313875|-0.705545836689381|-0.6681353553025839|-1.164436028113656|0.7855072617530823|-0.4302282631397247|-0.8586063981056213|0.07201096415519714|0.001844882965087891|-0.07676059007644653|XArbitraryZVertical|0.5821096046434399|0.07752161278809507|0.1034291492356325|-0.8027711149521151|-0.244878426194191|0.918565571308136|-0.3102776110172272|0|0|0|-1|-1|3
2021-04-22 22:01:26.130 +0100|141026.780236875|-0.2342987060546875|0.9448394775390625|-0.410064697265625|141026.760275875|-0.716457681756866|-0.6863876668435036|-1.144854846328234|0.4536957442760468|-0.3913803994655609|-0.7230011224746704|0.03264790773391724|-0.05254131555557251|-0.04115206003189087|XArbitraryZVertical|0.5768789534878525|0.08605485848850883|0.1068363960580183|-0.8052276075899576|-0.2618508338928223|0.9106501340866089|-0.3196104764938354|0|0|0|-1|-1|3
2021-04-22 22:01:26.150 +0100|141026.800197875|-0.1317901611328125|0.9528961181640625|-0.39373779296875|141026.780236875|-0.7315225070640954|-0.7073848812245421|-1.129967712034472|0.3308952748775482|-0.3513428270816803|-0.7447301745414734|0.02763354778289795|0.01970463991165161|-0.07832157611846924|XArbitraryZVertical|0.5736664159099775|0.09354849605307956|0.1102030439261145|-0.8062325467514418|-0.277283251285553|0.9043984413146973|-0.3243110477924347|0|0|0|-1|-1|3
2021-04-22 22:01:26.170 +0100|141026.820158875|-0.136810302734375|0.9275970458984375|-0.39263916015625|141026.800197875|-0.7466013442200153|-0.7293790582704426|-1.114121848464365|0.4288438260555267|-0.5299567580223083|-0.7957287430763245|0.1411521434783936|0.06135392189025879|-0.06604099273681641|XArbitraryZVertical|0.5703120650125642|0.1017575356793833|0.1136192917470903|-0.8071433113917376|-0.2938627302646637|0.8975238800048828|-0.3287791013717651|0|0|0|-1|-1|3
2021-04-22 22:01:26.190 +0100|141026.840120875|-0.17999267578125|0.9297943115234375|-0.41326904296875|141026.820158875|-0.7625261517216309|-0.7580483617104314|-1.096884016096502|0.3317138850688934|-0.9230403304100037|-0.8871129751205444|0.1877651512622833|0.0478326678276062|-0.05921682715415955|XArbitraryZVertical|0.5670638740923409|0.1128495567198477|0.1159273544324438|-0.8076288938343779|-0.3137575685977936|0.8897896409034729|-0.3314070701599121|0|0|0|-1|-1|3
2021-04-22 22:01:26.210 +0100|141026.860081875|-0.0963134765625|0.9770050048828125|-0.484649658203125|141026.840120875|-0.7831110315817095|-0.7973548163624327|-1.0810459503153|0.1378587484359741|-1.137967228889465|-0.8897426724433899|0.1591504812240601|0.04186630249023438|-0.07019168138504028|XArbitraryZVertical|0.5653645162592569|0.1266879354968009|0.116916610155464|-0.8066248695412418|-0.3365802764892578|0.8824502825737|-0.328626275062561|0|0|0|-1|-1|3
2021-04-22 22:01:26.230 +0100|141026.880042875|-0.024566650390625|0.933319091796875|-0.5842437744140625|141026.860081875|-0.8035883930363369|-0.8384528081279865|-1.06694070332785|0.1289358139038086|-1.205340504646301|-0.8176354765892029|0.2370396256446838|0.08597314357757568|-0.1300995349884033|XArbitraryZVertical|0.5645641673602857|0.1409322833437958|0.1170588326556952|-0.8047998339282788|-0.359019011259079|0.8757275342941284|-0.3228107988834381|0|0|0|-1|-1|3
2021-04-22 22:01:26.250 +0100|141026.900003875|-0.0463714599609375|0.775787353515625|-0.5937042236328125|141026.880042875|-0.8170342491835407|-0.8755735772750066|-1.051777203265468|0.4105303287506104|-1.359522700309753|-0.7493127584457397|0.3441928625106812|0.09369969367980957|-0.2476024925708771|XArbitraryZVertical|0.5628813587148114|0.1558759251941476|0.1158741129046684|-0.8033931975808214|-0.3809060752391815|0.8683061599731445|-0.3177345395088196|0|0|0|-1|-1|3
2021-04-22 22:01:26.270 +0100|141026.919965875|-0.0255126953125|0.640594482421875|-0.5475616455078125|141026.900003875|-0.8188504622622556|-0.9057733476782943|-1.033843489656161|0.5824027061462402|-1.498239278793335|-0.7158046364784241|0.3643080294132233|-0.04379570484161377|-0.2823280990123749|XArbitraryZVertical|0.5590835160266521|0.1720520306107329|0.112808797569556|-0.8031799299062782|-0.4025165438652039|0.8592713475227356|-0.3156474530696869|0|0|0|-1|-1|3
2021-04-22 22:01:26.290 +0100|141026.939926875|-0.0239410400390625|0.7401123046875|-0.625091552734375|141026.919965875|-0.8192200986766144|-0.9375214900130217|-1.016426574845452|0.3931180536746979|-1.693814516067505|-0.6826180815696716|0.3881549835205078|-0.1880617141723633|-0.2529455423355103|XArbitraryZVertical|0.5553956859282392|0.1891421897158731|0.1087304212230185|-0.802457976305604|-0.4243341386318207|0.8502323627471924|-0.3115217387676239|0|0|0|-1|-1|3
2021-04-22 22:01:26.310 +0100|141026.959887875|-0.05694580078125|1.003738403320312|-0.7789306640625|141026.939926875|-0.8262536633387557|-0.9796849151254623|-1.004395676354057|0.1030021533370018|-1.90403950214386|-0.4795549213886261|0.4322890043258667|-0.1596487760543823|-0.2694882452487946|XArbitraryZVertical|0.5545811982630363|0.2071733218167869|0.103104874647855|-0.7993049560039067|-0.4455493688583374|0.8438378572463989|-0.2990378141403198|0|0|0|-1|-1|3
2021-04-22 22:01:26.330 +0100|141026.979849875|0.0272369384765625|0.840179443359375|-0.7762603759765625|141026.959887875|-0.8191540700563862|-1.01188463492191|-0.9937627016021799|0.8592173457145691|-1.908118367195129|-0.2549967169761658|0.4087851643562317|0.1088456511497498|-0.4848731458187103|XArbitraryZVertical|0.5521316461825775|0.2247452716730352|0.09429923301353389|-0.7973381269933013|-0.4625271260738373|0.8380846381187439|-0.2892804145812988|0|0|0|-1|-1|3
2021-04-22 22:01:26.350 +0100|141026.999810875|0.1873321533203125|0.631622314453125|-0.6694793701171875|141026.979849875|-0.7808477870052284|-1.016949832936678|-0.9743398415868414|1.891535043716431|-1.901726126670837|-0.3003407418727875|0.4645432531833649|0.1007848381996155|-0.5007005929946899|XArbitraryZVertical|0.5418605984336242|0.2422120922096607|0.08300252224132242|-0.8005192476365076|-0.477742463350296|0.8273312449455261|-0.2954407930374146|0|0|0|-1|-1|3
2021-04-22 22:01:26.370 +0100|141027.01977225|0.2322540283203125|0.8623809814453125|-0.680450439453125|141026.999810875|-0.7266141439498486|-1.012991189128989|-0.9503627720515562|1.886671662330627|-2.209189891815186|-0.04644687473773956|0.654118537902832|-0.1716887950897217|-0.3523505628108978|XArbitraryZVertical|0.5272419629898732|0.2610443407836855|0.06886930526557399|-0.8056854480977265|-0.4932608306407928|0.8136264681816101|-0.3077435195446014|0|0|0|-1|-1|3
2021-04-22 22:01:26.390 +0100|141027.03973425|0.44830322265625|1.071258544921875|-0.784942626953125|141027.01977225|-0.673772286940919|-1.016444101384481|-0.9331361472823705|1.748803734779358|-2.365853786468506|0.2314461767673492|0.7149947881698608|-0.01464176177978516|-0.3609294593334198|XArbitraryZVertical|0.5145428873103828|0.2802862273041654|0.05131630527925276|-0.8087347224449611|-0.5061632990837097|0.8034908771514893|-0.3133704960346222|0|0|0|-1|-1|3
2021-04-22 22:01:26.410 +0100|141027.05969525|0.5596160888671875|1.230056762695312|-1.03692626953125|141027.03973425|-0.6125277733262865|-1.016056489255196|-0.9194375978876672|2.111096382141113|-2.52961802482605|0.5336833596229553|0.9047083854675293|0.2351197600364685|-0.4429628551006317|XArbitraryZVertical|0.5010589528468272|0.2987853038364455|0.03027706964360486|-0.8116345012697591|-0.5153501033782959|0.7952607870101929|-0.3193345367908478|0|0|0|-1|-1|3
2021-04-22 22:01:26.430 +0100|141027.07965625|0.517730712890625|1.462661743164062|-1.343124389648438|141027.05969525|-0.5389512035344713|-1.010869342128575|-0.9076690808019652|2.311547517776489|-2.758863687515259|0.8512869477272034|1.077275395393372|0.3962861895561218|-0.6398438215255737|XArbitraryZVertical|0.4856084524632865|0.3173459416830401|0.004744161317957571|-0.8145266841480696|-0.5215811133384705|0.7880709767341614|-0.3269519805908203|0|0|0|-1|-1|3
2021-04-22 22:01:26.450 +0100|141027.09961725|0.420745849609375|1.727096557617188|-1.645584106445312|141027.07965625|-0.4568476855804835|-1.002111391958548|-0.9004671998195807|2.411326169967651|-2.778971672058105|1.294820666313171|1.060819864273071|0.6017591953277588|-0.9233936071395874|XArbitraryZVertical|0.4697003292349442|0.3348194393315658|-0.02479237212448861|-0.8164943222115978|-0.5234663486480713|0.7836172580718994|-0.3345550894737244|0|0|0|-1|-1|3
2021-04-22 22:01:26.470 +0100|141027.11957925|0.123992919921875|1.740829467773438|-1.933883666992188|141027.09961725|-0.3613847918365336|-0.9817754177070038|-0.8985968797274948|2.715040683746338|-2.657302379608154|1.793763160705566|0.9777642488479614|0.9071065187454224|-1.226457834243774|XArbitraryZVertical|0.4531183233391117|0.3488721514360232|-0.05865555631629039|-0.8182491491005459|-0.5177728533744812|0.7824539542198181|-0.3459440171718597|0|0|0|-1|-1|3
2021-04-22 22:01:26.490 +0100|141027.13954025|-0.1070404052734375|1.779312133789062|-2.1573486328125|141027.11957925|-0.2467010833508938|-0.9403301421859633|-0.8978763398013309|3.161103963851929|-2.043162822723389|2.212388277053833|0.7201551795005798|0.9521569013595581|-1.498548626899719|XArbitraryZVertical|0.4341934258490638|0.3574351690966426|-0.09630822300589793|-0.8212436226438603|-0.5034499168395996|0.7820050716400146|-0.3674323260784149|0|0|0|-1|-1|3
2021-04-22 22:01:26.510 +0100|141027.15950125|0.0526885986328125|1.585205078125|-2.2576904296875|141027.13954025|-0.1166857441579089|-0.8665822674276991|-0.8927000052115801|3.602078199386597|-0.6976948380470276|2.347939968109131|0.3860767483711243|1.007319331169128|-1.700056552886963|XArbitraryZVertical|0.4132011416026825|0.3552365884741701|-0.1331985889172402|-0.8278465803502567|-0.4780871868133545|0.7787683010101318|-0.4061435759067535|0|0|0|-1|-1|3
2021-04-22 22:01:26.530 +0100|141027.17946325|-0.1580963134765625|1.304855346679688|-2.170806884765625|141027.15950125|0.02068934782596361|-0.7617284969568181|-0.8730962901710666|4.018910884857178|0.4874894917011261|2.171808958053589|0.4624954462051392|0.8925381302833557|-1.783852815628052|XArbitraryZVertical|0.3890109158681072|0.3409038139949486|-0.1658637876432213|-0.8396096585653101|-0.4434066116809845|0.7663218379020691|-0.4649101793766022|0|0|0|-1|-1|3
2021-04-22 22:01:26.550 +0100|141027.19942425|-0.5134124755859375|1.230392456054688|-1.909164428710938|141027.17946325|0.1460863745916666|-0.6455827661738124|-0.8387855171305434|3.863338708877563|1.72759473323822|1.836053013801575|0.3397086262702942|0.6043286323547363|-1.669587016105652|XArbitraryZVertical|0.3640019039503344|0.3171338236045749|-0.192038616309929|-0.8544296894450645|-0.4021322727203369|0.7438319325447083|-0.533857524394989|0|0|0|-1|-1|3
2021-04-22 22:01:26.570 +0100|141027.21938525|-0.636749267578125|0.926910400390625|-1.419692993164062|141027.19942425|0.2425105792754368|-0.5245905821436541|-0.7930175247429334|3.6392662525177|3.365224838256836|1.049808382987976|-0.1003150045871735|0.5428369641304016|-1.380924463272095|XArbitraryZVertical|0.3413217037677838|0.2825405740659809|-0.2071633456975403|-0.8722120480426341|-0.3514519035816193|0.7124739289283752|-0.6073406338691711|0|0|0|-1|-1|3
2021-04-22 22:01:26.590 +0100|141027.23934625|-0.9863128662109375|0.556884765625|-0.651947021484375|141027.21938525|0.2949151710611149|-0.4081820592501356|-0.7386659755073086|2.717232227325439|4.493668079376221|-0.1904210895299911|-0.3024922013282776|0.3518299460411072|-0.8883918523788452|XArbitraryZVertical|0.3218948967326019|0.2388968319204449|-0.2065438789882732|-0.8925534793101082|-0.293485552072525|0.673302173614502|-0.6786239743232727|0|0|0|-1|-1|3
2021-04-22 22:01:26.609 +0100|141027.25930825|-1.731719970703125|0.744110107421875|-0.2124786376953125|141027.23934625|0.2885633500954052|-0.3195459089908922|-0.7009787120538834|0.4615701735019684|4.696587562561035|-1.590981364250183|-0.6333014369010925|-0.02022445201873779|-0.1522659659385681|XArbitraryZVertical|0.3139778635808189|0.1966089828455787|-0.1873789139084912|-0.9097539186196709|-0.2400659173727036|0.6449659466743469|-0.7255256175994873|0|0|0|-1|-1|3
