loggingTime(txt)|accelerometerTimestamp_sinceReboot(s)|accelerometerAccelerationX(G)|accelerometerAccelerationY(G)|accelerometerAccelerationZ(G)|motionTimestamp_sinceReboot(s)|motionYaw(rad)|motionRoll(rad)|motionPitch(rad)|motionRotationRateX(rad/s)|motionRotationRateY(rad/s)|motionRotationRateZ(rad/s)|motionUserAccelerationX(G)|motionUserAccelerationY(G)|motionUserAccelerationZ(G)|motionAttitudeReferenceFrame(txt)|motionQuaternionX(R)|motionQuaternionY(R)|motionQuaternionZ(R)|motionQuaternionW(R)|motionGravityX(G)|motionGravityY(G)|motionGravityZ(G)|motionMagneticFieldX(µT)|motionMagneticFieldY(µT)|motionMagneticFieldZ(µT)|motionHeading(°)|motionMagneticFieldCalibrationAccuracy(Z)|label
2021-04-08 20:05:45.381 +0100|19403.40314325|-0.0238494873046875|-0.29998779296875|-0.867645263671875|19403.38318225|0.8492257845457621|-0.02911399242235769|0.3738698043493049|-0.242016926407814|0.05445365607738495|-0.05020890384912491|-0.03611782193183899|-0.02641052007675171|0.05393922328948975|XArbitraryZVertical|0.1752188240252131|0.06352258045583604|0.4022830062645037|0.8963435641108716|-0.02709899842739105|-0.3652206361293793|-0.9305264949798584|0|0|0|-1|-1|3
2021-04-08 20:05:45.392 +0100|19403.423104875|-0.0247344970703125|-0.38153076171875|-0.87445068359375|19403.40314325|0.848072743987849|-0.02543356166403081|0.3712241875651974|-0.1837908774614334|0.08270350843667984|0.005370645318180323|-0.01041974127292633|0.09481310844421387|0.07029986381530762|XArbitraryZVertical|0.173332361946033|0.06453369210195588|0.4022038566442458|0.8966735959591925|-0.02369857393205166|-0.3627564907073975|-0.9315825700759888|0|0|0|-1|-1|3
2021-04-08 20:05:45.393 +0100|19403.443065875|-0.0519866943359375|-0.363128662109375|-0.9097747802734375|19403.423104875|0.8485050570143358|-0.02373124743105186|0.3657075509528544|-0.3807311654090881|0.0867791548371315|0.06035169214010239|0.0002638194710016251|-0.02871093153953552|0.06013357639312744|XArbitraryZVertical|0.1705072415769208|0.06421266676045302|0.402782354810936|0.8969785803457277|-0.02215984277427197|-0.3576101362705231|-0.9336080551147461|0|0|0|-1|-1|3
2021-04-08 20:05:45.395 +0100|19403.463026875|-0.028564453125|-0.366180419921875|-0.93463134765625|19403.443065875|0.8499750273751884|-0.02166478799856945|0.3588525822943059|-0.2035215049982071|0.1634077280759811|0.09776937216520309|-0.02570648491382599|-0.02785775065422058|0.03294312953948975|XArbitraryZVertical|0.1669744951694572|0.06386833009583451|0.4039052495239002|0.8971628544708252|-0.0202831644564867|-0.351200133562088|-0.9360806941986084|0|0|0|-1|-1|3
2021-04-08 20:05:45.415 +0100|19403.482987875|0.0139617919921875|-0.4642333984375|-0.915283203125|19403.463026875|0.8516058463314931|-0.01970067915958519|0.3586082640790208|0.06887258589267731|0.1545684337615967|0.04224494844675064|-0.02328620105981827|0.000569462776184082|0.002427279949188232|XArbitraryZVertical|0.166415548745279|0.06483535312824405|0.4048105171040339|0.8967891158615374|-0.01844624988734722|-0.3509713709354401|-0.9362044930458069|0|0|0|-1|-1|3
2021-04-08 20:05:45.435 +0100|19403.502948875|-0.0157470703125|-0.414520263671875|-0.921966552734375|19403.482987875|0.850628677400688|-0.01725618358716834|0.3560925926196277|-0.2215586602687836|0.07393813878297806|-0.1266737580299377|0.01745490729808807|-0.09344682097434998|0.0203629732131958|XArbitraryZVertical|0.1648261362673099|0.06533784911100564|0.4046773955525682|0.8971062741465775|-0.01617283374071121|-0.3486146330833435|-0.937126636505127|0|0|0|-1|-1|3
2021-04-08 20:05:45.455 +0100|19403.522909875|-0.05401611328125|-0.3616485595703125|-0.912994384765625|19403.502948875|0.848489144906812|-0.0162658924958054|0.3494640855181573|-0.5177273750305176|-4.096003249287605e-05|-0.08190265297889709|0.01525186747312546|-0.09222081303596497|0.02036434412002563|XArbitraryZVertical|0.1617244798959659|0.06425852734637635|0.404062620779352|0.8980254475107078|-0.01528204884380102|-0.3423943221569061|-0.9394320845603943|0|0|0|-1|-1|3
2021-04-08 20:05:45.475 +0100|19403.542869875|-0.0280303955078125|-0.346771240234375|-0.9156494140625|19403.542869875|0.8437324921473514|-0.01366803985645819|0.3309867160830262|-0.4017478227615356|0.08334751427173615|-0.120685026049614|-0.02561759948730469|-0.02295362949371338|0.03196769952774048|XArbitraryZVertical|0.1530522087333725|0.06130341737286509|0.4028327813446608|0.9003015889860486|-0.01292576547712088|-0.3249763548374176|-0.9456338286399841|0|0|0|-1|-1|3
2021-04-08 20:05:45.495 +0100|19403.562830875|0.0045013427734375|-0.334197998046875|-0.9218597412109375||||||||||||||||||||||||3
2021-04-08 20:05:45.514 +0100|19403.582791875|0.0057220458984375|-0.329620361328125|-0.9363861083984375|19403.562830875|0.8412715850515193|-0.01167230283686141|0.3257159964510051|-0.3318662345409393|0.03297920152544975|-0.1079828068614006|0.008388392627239227|-0.0195198655128479|0.02664166688919067|XArbitraryZVertical|0.150354359946438|0.06094996131856841|0.4020670258580711|0.9011221199653088|-0.01105834357440472|-0.3199872076511383|-0.9473573565483093|0|0|0|-1|-1|3
2021-04-08 20:05:45.535 +0100|19403.602752875|-0.016204833984375|-0.326324462890625|-0.940155029296875|19403.582791875|0.8389319074235565|-0.0106568952119591|0.322187329123739|-0.3046109676361084|-0.02373196184635162|-0.10003761947155|0.01807377487421036|-0.01441162824630737|0.01205903291702271|XArbitraryZVertical|0.1486323004057437|0.06052123223323524|0.4012132619917421|0.9018169468837471|-0.01010835450142622|-0.3166421055793762|-0.9484912157058716|0|0|0|-1|-1|3
2021-04-08 20:05:45.554 +0100|19403.622713875|-0.0155487060546875|-0.33599853515625|-0.934814453125|19403.602752875|0.8374892215201521|-0.0115987488285363|0.317823899662839|-0.2782792747020721|-0.04156438261270523|-0.04810314252972603|0.001389645040035248|-0.01446419954299927|0.01250606775283813|XArbitraryZVertical|0.1468976384544448|0.05911156327369582|0.4006453314350373|0.9024469181492772|-0.01101761031895876|-0.3125001788139343|-0.9498538374900818|0|0|0|-1|-1|3
2021-04-08 20:05:45.574 +0100|19403.642674875|0.004364013671875|-0.3552093505859375|-0.9235992431640625|19403.622713875|0.8371023881625018|-0.01247261935412326|0.3136522468068851|-0.2571029961109161|0.005086796823889017|-0.01127411052584648|-0.005683465860784054|-0.02315980195999146|0.01289111375808716|XArbitraryZVertical|0.1452028342385535|0.05784974470720107|0.400551581119653|0.902844422196905|-0.01186381094157696|-0.3085347414016724|-0.9511390924453735|0|0|0|-1|-1|3
2021-04-08 20:05:45.595 +0100|19403.662635875|-0.0046539306640625|-0.3451385498046875|-0.9167938232421875|19403.642674875|0.8368295676357917|-0.0123468624531728|0.3090578696011051|-0.2889365553855896|-0.01236724108457565|-0.01118267606943846|0.01254010945558548|-0.04732397198677063|0.02636963129043579|XArbitraryZVertical|0.1431128439456902|0.05696263066731268|0.4005950697021621|0.9032151610254202|-0.01176157593727112|-0.3041612803936005|-0.9525479674339294|0|0|0|-1|-1|3
2021-04-08 20:05:45.614 +0100|19403.682595875|-0.0365753173828125|-0.3136444091796875|-0.9144287109375|19403.662635875|0.8365178645179309|-0.01264784175934276|0.3038056736832122|-0.314428299665451|-0.05891892313957214|0.0008417624048888683|0.01315201912075281|-0.05153802037239075|0.03681570291519165|XArbitraryZVertical|0.140811442261068|0.05574793654375731|0.4006105155505207|0.9036458028741341|-0.01206831075251102|-0.299153745174408|-0.954128623008728|0|0|0|-1|-1|3
2021-04-08 20:05:45.634 +0100|19403.702556875|-0.02825927734375|-0.300079345703125|-0.9201812744140625|19403.682595875|0.8366380738320168|-0.01370862441250579|0.2981508220348586|-0.2987549304962158|-0.05153856053948402|0.01951513811945915|-0.01587270200252533|-0.02742815017700195|0.04122519493103027|XArbitraryZVertical|0.1384674010357962|0.05413890850203944|0.4007798002918408|0.9040306652538468|-0.01310340780764818|-0.2937531173229218|-0.9557915329933167|0|0|0|-1|-1|3
2021-04-08 20:05:45.654 +0100|19403.722517875|-0.00152587890625|-0.3090362548828125|-0.931915283203125|19403.702556875|0.8371295002757423|-0.01462926076794258|0.2941776432147169|-0.1889367997646332|-0.01948368549346924|0.02537782117724419|-0.02074363082647324|-0.01255160570144653|0.03463596105575562|XArbitraryZVertical|0.1368443592822339|0.0529562800641187|0.4010704065019658|0.9042189496254851|-0.01400030218064785|-0.2899529337882996|-0.9569385051727295|0|0|0|-1|-1|3
2021-04-08 20:05:45.674 +0100|19403.742478875|-0.0199432373046875|-0.3258819580078125|-0.9095916748046875|19403.722517875|0.8371714886540194|-0.01530347252432282|0.2921406227152207|-0.1617098450660706|-0.06750309467315674|-0.008620981127023697|0.01026028394699097|-0.01517310738563538|0.02570867538452148|XArbitraryZVertical|0.1360583366388382|0.0522437471809591|0.4011107319114773|0.9043611649640734|-0.01465448550879955|-0.2880028188228607|-0.9575174450874329|0|0|0|-1|-1|3
2021-04-08 20:05:45.694 +0100|19403.762439875|-0.070953369140625|-0.35137939453125|-0.88836669921875|19403.742478875|0.836443063662654|-0.0166814586113571|0.2892191050187462|-0.2955807447433472|-0.1256254017353058|-0.0488913506269455|0.004940852522850037|-0.03443628549575806|0.04501843452453613|XArbitraryZVertical|0.1350334440440066|0.05098238846858706|0.400784433716554|0.904731255680099|-0.01598788425326347|-0.2852038443088531|-0.9583335518836975|0|0|0|-1|-1|3
2021-04-08 20:05:45.714 +0100|19403.782400875|-0.124786376953125|-0.3715362548828125|-0.8231201171875|19403.762439875|0.8345144104090505|-0.01855185139091883|0.2825088528775707|-0.5156429409980774|-0.09666076302528381|-0.1344393640756607|-0.03928264230489731|-0.067638099193573|0.06200021505355835|XArbitraryZVertical|0.1324224176732804|0.04865585255213238|0.4000071166137013|0.9055889200674866|-0.01781541667878628|-0.2787659168243408|-0.9601938128471375|0|0|0|-1|-1|3
2021-04-08 20:05:45.734 +0100|19403.802360875|-0.1891937255859375|-0.4029998779296875|-0.7433319091796875|19403.782400875|0.829972490944747|-0.01905062901118669|0.2699768955439458|-0.8375687003135681|-0.04192156344652176|-0.2971693277359009|-0.09244955331087112|-0.09765446186065674|0.1266115307807922|XArbitraryZVertical|0.1269558653333182|0.0456192838314124|0.398318370495607|0.9072726613011868|-0.01835944876074791|-0.266709178686142|-0.9636021852493286|0|0|0|-1|-1|3
2021-04-08 20:05:45.776 +0100|19403.822321875|-0.2667236328125|-0.4484710693359375|-0.666534423828125|19403.822321875|0.8060976645459194|-0.01247985439465477|0.219444191147935|-1.919947862625122|0.1040249392390251|-0.867594838142395|-0.2400777488946915|-0.216607466340065|0.2916772365570068|XArbitraryZVertical|0.1031583631891157|0.0372432066078302|0.3892299324702163|0.9145881610578603|-0.01218025386333466|-0.2176871746778488|-0.9759426116943359|0|0|0|-1|-1|3
2021-04-08 20:05:45.777 +0100|19403.842282875|-0.296142578125|-0.4745025634765625|-0.6334991455078125|19403.842282875|0.7847590657877709|-0.004617505739100618|0.1726389710623774|-2.745967388153076|0.2889523804187775|-1.193719387054443|-0.2904947996139526|-0.299941748380661|0.3513961434364319|XArbitraryZVertical|0.0805396841425311|0.03084113955204247|0.3807795371283453|0.9206352030879666|-0.004548849537968636|-0.1717826873064041|-0.9851243495941162|0|0|0|-1|-1|3
2021-04-08 20:05:45.794 +0100|19403.862243875|-0.2730560302734375|-0.4051055908203125|-0.6139373779296875||||||||||||||||||||||||3
2021-04-08 20:05:45.814 +0100|19403.882204875|-0.213836669921875|-0.294525146484375|-0.64654541015625|19403.862243875|0.7567444550450555|0.006639580663264854|0.1089546734348065|-3.679281949996948|0.4290913641452789|-1.592070460319519|-0.2925801277160645|-0.3198485672473907|0.3841087222099304|XArbitraryZVertical|0.0493741474943137|0.02319470524059204|0.3690262298516099|0.927816759675905|0.006600161548703909|-0.1087392345070839|-0.9940484166145325|0|0|0|-1|-1|3
2021-04-08 20:05:45.834 +0100|19403.902165875|-0.1307220458984375|-0.0911407470703125|-0.67584228515625|19403.882204875|0.7225772497038715|0.01861574714125997|0.02611850866252671|-4.544752597808838|0.5465391278266907|-1.925748467445374|-0.2490615993738174|-0.3087374866008759|0.3603103160858154|XArbitraryZVertical|0.008925481140939396|0.01332196158814826|0.3535482021320139|0.9352788825241277|0.01860832236707211|-0.02611553855240345|-0.9994857311248779|0|0|0|-1|-1|3
2021-04-08 20:05:45.854 +0100|19403.922125875|-0.052703857421875|0.0534210205078125|-0.7189178466796875|19403.902165875|0.6831789787076751|0.02965758874537265|-0.0734719874981743|-5.370963573455811|0.6546345353126526|-2.28179669380188|-0.182740792632103|-0.2151436805725098|0.3332284092903137|XArbitraryZVertical|-0.03956581487802975|0.00166020663055589|0.3342092015450106|0.9416666420958573|0.02957324124872684|0.0734059065580368|-0.9968636035919189|0|0|0|-1|-1|3
2021-04-08 20:05:45.874 +0100|19403.942086875|-0.0132598876953125|0.3011474609375|-0.670440673828125|19403.922125875|0.6368998422614965|0.03830945564515146|-0.1907503488671801|-6.212721347808838|0.82598876953125|-2.675966501235962|-0.1074752956628799|-0.1794322431087494|0.2516193985939026|XArbitraryZVertical|-0.09639564958650426|-0.01170286138394813|0.3098823495755022|0.9458034046354683|0.0376054085791111|0.1895956844091415|-0.9811418652534485|0|0|0|-1|-1|3
2021-04-08 20:05:45.894 +0100|19403.962047875|-0.0188751220703125|0.6640777587890625|-0.674224853515625|19403.942086875|0.5860046971299226|0.04302472856700228|-0.3253583062088892|-7.02719783782959|0.9409241080284119|-2.765728950500488|-0.05522019416093826|-0.09050601720809937|0.2715346813201904|XArbitraryZVertical|-0.1611548546226407|-0.02644643529789332|0.2816130700465415|0.9455284221299397|0.04075491428375244|0.3196483254432678|-0.9466593861579895|0|0|0|-1|-1|3
2021-04-08 20:05:45.914 +0100|19403.982008875|0.07037353515625|0.9783172607421875|-0.6184234619140625|19403.962047875|0.5340990822135244|0.04401140390540467|-0.4732659316030786|-7.50369119644165|1.234711885452271|-2.627945899963379|-0.06185105815529823|0.11314457654953|0.2100086212158203|XArbitraryZVertical|-0.2317110249102326|-0.04121566164138159|0.2514952648089378|0.9388085410091961|0.03916122019290924|0.4557956755161285|-0.8892225623130798|0|0|0|-1|-1|3
2021-04-08 20:05:45.934 +0100|19404.001969875|0.252105712890625|1.138442993164062|-0.5876922607421875|19403.982008875|0.4833360196867607|0.0470625457169728|-0.6262228681016225|-7.516142845153809|1.690620899200439|-2.420399904251099|-0.003557141870260239|0.3259760141372681|0.1816650629043579|XArbitraryZVertical|-0.3043437015595476|-0.05196116192375821|0.220586713434483|0.925211610079104|0.03811821341514587|0.5860885381698608|-0.8093498945236206|0|0|0|-1|-1|3
2021-04-08 20:05:45.954 +0100|19404.021930875|0.380218505859375|1.183517456054688|-0.59051513671875|19404.001969875|0.4314996097055612|0.04827698561885005|-0.7729906744850024|-6.915119647979736|1.680315375328064|-2.221352577209473|0.1711743772029877|0.4104101061820984|0.1211355924606323|XArbitraryZVertical|-0.3728841888336041|-0.05883526374832639|0.1893436348672604|0.90644630992458|0.03454447910189629|0.6982791423797607|-0.714991569519043|0|0|0|-1|-1|3
2021-04-08 20:05:45.974 +0100|19404.041891875|0.3760223388671875|1.159072875976562|-0.509063720703125|19404.021930875|0.3799721619909404|0.04039791395725893|-0.9053278580017148|-6.169557094573975|1.3536217212677|-1.810548543930054|0.3363308906555176|0.3942050337791443|0.04584944248199463|XArbitraryZVertical|-0.4328356344365187|-0.06474043576457147|0.1611163448891589|0.8845923026708207|0.0249360091984272|0.7866276502609253|-0.616923987865448|0|0|0|-1|-1|3
2021-04-08 20:05:45.994 +0100|19404.061851875|0.32598876953125|1.27667236328125|-0.30780029296875|19404.041891875|0.3284612557967647|0.02467049686453473|-1.023611395697472|-5.645440101623535|1.374523520469666|-1.54845142364502|0.3728159964084625|0.3129240870475769|-0.04611027240753174|XArbitraryZVertical|-0.4848838843887264|-0.0694554723463631|0.1365729340746071|0.8610526089970859|0.01283439807593822|0.8539925217628479|-0.5201271176338196|0|0|0|-1|-1|3
2021-04-08 20:05:46.014 +0100|19404.081812875|0.1380615234375|1.145919799804688|-0.21868896484375|19404.081812875|0.1825339609617992|-0.05384734766691059|-1.244107205882632|-4.971123695373535|1.212926506996155|-1.322900652885437|0.2589706480503082|0.2552372217178345|-0.007588207721710205|XArbitraryZVertical|-0.5780757886573212|-0.07487540720477605|0.08966276690303218|0.8075783224216517|-0.01727176271378994|0.9471099972724915|-0.3204441070556641|0|0|0|-1|-1|3
2021-04-08 20:05:46.034 +0100|19404.101773875|-0.078033447265625|1.486801147460938|0.114501953125||||||||||||||||||||||||3
2021-04-08 20:05:46.054 +0100|19404.121734875|0.0607757568359375|1.639266967773438|-0.0029449462890625|19404.101773875|0.06502084226871266|-0.1377500431199646|-1.341617752655957|-5.11702823638916|1.714118003845215|-0.8858230710029602|-0.0405370220541954|0.4040309190750122|0.3046475648880005|XArbitraryZVertical|-0.6180658557600051|-0.07403761820487928|0.06815877413877088|0.7796585894174425|-0.0311949085444212|0.9738533496856689|-0.2250260561704636|0|0|0|-1|-1|3
2021-04-08 20:05:46.074 +0100|19404.141695875|0.070648193359375|1.473617553710938|-0.0353851318359375|19404.121734875|-0.09387895577609442|-0.2590001303690322|-1.424996640877549|-3.30408763885498|1.683926224708557|-0.3781248927116394|0.06743669509887695|0.6453148126602173|0.1429118514060974|XArbitraryZVertical|-0.6521234702625658|-0.06719794316180946|0.04911788742266839|0.7535296947064331|-0.03720943629741669|0.9893900156021118|-0.1404388248920441|0|0|0|-1|-1|3
2021-04-08 20:05:46.094 +0100|19404.161656875|0.0284576416015625|1.21124267578125|-0.0179443359375|19404.141695875|-0.2410377232635212|-0.3739219469568203|-1.466285727811207|-1.265663862228394|1.449921727180481|-0.1292739063501358|0.1187017560005188|0.5669493675231934|0.07834554463624954|XArbitraryZVertical|-0.6693822219062039|-0.05806119516768692|0.03570479751952336|0.7397848176558228|-0.03810526803135872|0.994543731212616|-0.09711267799139023|0|0|0|-1|-1|3
2021-04-08 20:05:46.114 +0100|19404.181616875|-0.0072174072265625|1.083419799804688|0.000457763671875|19404.161656875|-0.3092323442521409|-0.4135023486445304|-1.477540238425094|-0.227991059422493|1.371738195419312|-0.04456877708435059|0.06738603115081787|0.2674221992492676|0.07985800504684448|XArbitraryZVertical|-0.6745477413128514|-0.04846116174933993|0.02515528449318942|0.7362093384818673|-0.03741823881864548|0.995654821395874|-0.08527372032403946|0|0|0|-1|-1|3
2021-04-08 20:05:46.134 +0100|19404.201577875|-0.0167694091796875|1.11492919921875|-0.0460662841796875|19404.181616875|-0.3138746058538009|-0.3914696339934518|-1.477501389760201|0.171579584479332|1.30424976348877|-0.01694540120661259|0.0345073863863945|0.08869963884353638|0.07344996929168701|XArbitraryZVertical|-0.6748620421396253|-0.03878645118775137|0.01600799009663513|0.7367501316649824|-0.0355454757809639|0.9956511855125427|-0.08611366897821426|0|0|0|-1|-1|3
2021-04-08 20:05:46.154 +0100|19404.221538875|-0.06005859375|1.15374755859375|-0.040496826171875|19404.201577875|-0.2836525060315344|-0.3379515339054912|-1.470664007718881|0.6489895582199097|1.063243508338928|0.06412442028522491|0.0302751362323761|0.1190534234046936|0.08047306537628174|XArbitraryZVertical|-0.6722682166780971|-0.02999352780775472|0.00834881819680762|0.7396527911097727|-0.03314430266618729|0.9949909448623657|-0.0943116694688797|0|0|0|-1|-1|3
2021-04-08 20:05:46.174 +0100|19404.241499875|-0.0142669677734375|1.231582641601562|-0.07061767578125|19404.221538875|-0.2106149130912264|-0.2440481297645922|-1.453016845017137|1.411470890045166|1.086066246032715|0.1304849833250046|-0.03522063419222832|0.15812748670578|0.06274236738681793|XArbitraryZVertical|-0.6652356357106624|-0.02117906880748174|0.002419688454881175|0.7463291684573132|-0.02839378826320171|0.9930720329284668|-0.1140259951353073|0|0|0|-1|-1|3
2021-04-08 20:05:46.194 +0100|19404.261460875|-0.0594940185546875|1.204818725585938|-0.066497802734375|19404.241499875|-0.1329904690530493|-0.1476519271219739|-1.416688912829761|2.364049673080444|0.8473530411720276|0.2359382659196854|0.006926115602254868|0.2379255890846252|0.1199544668197632|XArbitraryZVertical|-0.6510930496603123|-0.01278104975000432|-0.002444698840197271|0.7588864808555221|-0.02258218452334404|0.9881489276885986|-0.1518289744853973|0|0|0|-1|-1|3
2021-04-08 20:05:46.213 +0100|19404.281421875|-0.0401153564453125|1.136016845703125|-0.166473388671875|19404.261460875|-0.07317511592804284|-0.07306776538073924|-1.358496225567097|3.454774379730225|0.7345681190490723|0.2034824937582016|-0.04322721436619759|0.2324123382568359|0.1400491893291473|XArbitraryZVertical|-0.6284082662047524|-0.005435538960055239|-0.005511019971260196|0.7778452420659243|-0.01538235694169998|0.9775488376617432|-0.2101470082998276|0|0|0|-1|-1|3
2021-04-08 20:05:46.233 +0100|19404.301382875|-0.0149078369140625|0.9889068603515625|-0.231109619140625|19404.281421875|-0.04443763317223692|-0.03123656383354214|-1.283687987252171|4.00927209854126|0.6882151365280151|0.09673890471458435|-0.0390537790954113|0.1985263228416443|0.1429062783718109|XArbitraryZVertical|-0.5987306457703828|0.0007925589823584028|-0.008445922273083058|0.8009055188865529|-0.008844135329127312|0.9590667486190796|-0.2830419838428497|0|0|0|-1|-1|3
2021-04-08 20:05:46.266 +0100|19404.321342875|-0.02227783203125|0.790496826171875|-0.3105621337890625|19404.301382875|-0.03842688764516178|-0.01240398997322815|-1.201278878869342|4.204957485198975|0.5953768491744995|-0.07209014147520065|-0.01360246818512678|0.1071105599403381|0.1592194437980652|XArbitraryZVertical|-0.5651530686576783|0.005742469695512242|-0.01234480484646675|0.8248738330359804|-0.004479782655835152|0.9325017333030701|-0.3611380755901337|0|0|0|-1|-1|3
2021-04-08 20:05:46.278 +0100|19404.341303875|-0.0361328125|0.6501617431640625|-0.4381866455078125|19404.321342875|-0.04468549057338729|-0.007369215004802012|-1.118984878030042|3.853107452392578|0.4859883785247803|-0.2548935115337372|-0.01858806423842907|-0.06461995840072632|0.1425636410713196|XArbitraryZVertical|-0.5306896681855926|0.008735464710018619|-0.01697918421035651|0.8473512105585796|-0.003217342076823115|0.8996577262878418|-0.4365843236446381|0|0|0|-1|-1|3
2021-04-08 20:05:46.294 +0100|19404.361264875|-0.0483856201171875|0.4923248291015625|-0.5106353759765625|19404.361264875|-0.07573099911564542|-0.0186084057490953|-1.009297077522955|1.472288727760315|0.2981184720993042|-0.6249567866325378|-0.03278712555766106|-0.320379912853241|0.0304725170135498|XArbitraryZVertical|-0.483440593724658|0.01016436361084537|-0.02864070801477502|0.8748495269352432|-0.009907584637403488|0.8464577794075012|-0.5323637723922729|0|0|0|-1|-1|3
2021-04-08 20:05:46.313 +0100|19404.381225875|-0.096466064453125|0.4887237548828125|-0.547943115234375||||||||||||||||||||||||3
2021-04-08 20:05:46.333 +0100|19404.401186875|-0.116302490234375|0.55206298828125|-0.592559814453125|19404.381225875|-0.1016546971253477|-0.03473139472777117|-0.9934989038949267|0.06364654004573822|0.2847621738910675|-0.8177397847175598|-0.06277546286582947|-0.3585242033004761|0.0005570650100708008|XArbitraryZVertical|-0.476658723243884|0.008962392511454526|-0.03639332089239307|0.8782891060664493|-0.01895124465227127|0.8379406929016113|-0.5454322695732117|0|0|0|-1|-1|3
2021-04-08 20:05:46.353 +0100|19404.42114841667|-0.1019744873046875|0.65228271484375|-0.6306304931640625|19404.401186875|-0.1359001861273928|-0.05710427434383331|-1.000240270399007|-0.7131021022796631|0.3591873943805695|-1.000315308570862|-0.08819392323493958|-0.3084886074066162|-0.04528236389160156|XArbitraryZVertical|-0.4799301828772823|0.007551819170470336|-0.0458995566250988|0.876072769401132|-0.03082527965307236|0.841600775718689|-0.5392199754714966|0|0|0|-1|-1|3
2021-04-08 20:05:46.373 +0100|19404.44110841667|-0.1245880126953125|0.7912445068359375|-0.6879425048828125|19404.42114841667|-0.1754246120181896|-0.08353982996369494|-1.0149938933265|-0.7738126516342163|0.3245759904384613|-1.012926816940308|-0.05930671468377113|-0.2305497527122498|-0.07196182012557983|XArbitraryZVertical|-0.4868975474391138|0.006181149904188544|-0.05627644436355083|0.871622405921791|-0.04402646794915199|0.8494773507118225|-0.5257851481437683|0|0|0|-1|-1|3
2021-04-08 20:05:46.393 +0100|19404.46106941667|-0.1785430908203125|0.8363494873046875|-0.7160797119140625|19404.44110841667|-0.2155504418740592|-0.1112415883462023|-1.025045410083874|-0.405370682477951|0.3472626209259033|-0.9564493298530579|-0.05633123591542244|-0.09614652395248413|-0.1633769273757935|XArbitraryZVertical|-0.4919895951784037|0.004498685608787385|-0.06649755643927978|0.8680462616356364|-0.05762207880616188|0.8547377586364746|-0.5158519744873047|0|0|0|-1|-1|3
2021-04-08 20:05:46.413 +0100|19404.48103041667|-0.18768310546875|0.7388763427734375|-0.6819000244140625|19404.46106941667|-0.2519458162561711|-0.1343634244541103|-1.024922095916785|0.1575902551412582|0.4622981250286102|-0.9400146007537842|-0.09630131721496582|-0.01617228984832764|-0.2027218341827393|XArbitraryZVertical|-0.4926917733486529|0.00342135079113549|-0.07659813890782569|0.8668194345380982|-0.06954716145992279|0.8546737432479858|-0.5144861936569214|0|0|0|-1|-1|3
2021-04-08 20:05:46.433 +0100|19404.50099141667|-0.136505126953125|0.6388702392578125|-0.631011962890625|19404.48103041667|-0.2868428221085862|-0.1535390055413416|-1.018218534168802|0.1508156955242157|0.5857212543487549|-0.9462589025497437|-0.1122623309493065|-0.07436412572860718|-0.1817606091499329|XArbitraryZVertical|-0.4905462665803783|0.003178826977949842|-0.08743919196645046|0.8670113927833566|-0.08027377724647522|0.8511742949485779|-0.5187085270881653|0|0|0|-1|-1|3
2021-04-08 20:05:46.454 +0100|19404.52095241667|-0.0808868408203125|0.67919921875|-0.6138153076171875|19404.50099141667|-0.3214345311953588|-0.171561642621228|-1.017625430736834|-0.4476224482059479|0.5441365838050842|-0.8468337655067444|-0.06138309836387634|-0.1992052793502808|-0.1303191781044006|XArbitraryZVertical|-0.4910682628193315|0.003810356782830522|-0.09804259655780462|0.8655779266324285|-0.08969489485025406|0.8508628606796265|-0.5176748633384705|0|0|0|-1|-1|3
2021-04-08 20:05:46.473 +0100|19404.54091341667|-0.0280914306640625|0.7750244140625|-0.6001129150390625|19404.52095241667|-0.3557731779458455|-0.1910009632418126|-1.030655542449715|-1.086488962173462|0.4325392246246338|-0.6693359613418579|0.002503395080566406|-0.1960757970809937|-0.1011122465133667|XArbitraryZVertical|-0.4975148841838967|0.005144690474111813|-0.107016558251688|0.8608135994107573|-0.0976274237036705|0.8576362729072571|-0.5049049258232117|0|0|0|-1|-1|3
2021-04-08 20:05:46.493 +0100|19404.56087441667|0.0108489990234375|0.7905120849609375|-0.61724853515625|19404.56087441667|-0.4180671077346572|-0.2319685077724306|-1.070358594485791|-0.9192274212837219|0.2344056367874146|-0.4378359317779541|0.1190782934427261|-0.08739417791366577|-0.1595514118671417|XArbitraryZVertical|-0.5161984787678594|0.007743800455648243|-0.1195658844122324|0.8480466962648266|-0.1103052496910095|0.8773726224899292|-0.4669583141803741|0|0|0|-1|-1|3
2021-04-08 20:05:46.513 +0100|19404.58083441667|0.0516357421875|0.8890380859375|-0.6070404052734375||||||||||||||||||||||||3
2021-04-08 20:05:46.533 +0100|19404.60079541667|0.031097412109375|0.9316253662109375|-0.599822998046875|19404.58083441667|-0.4435863278249682|-0.2504912885486604|-1.084452213780313|-0.7774295210838318|0.1275947093963623|-0.3889971673488617|0.1500068157911301|-0.02023178339004517|-0.1288387775421143|XArbitraryZVertical|-0.522997944907915|0.00825034013617632|-0.1240655421550129|0.8432158827514944|-0.1158584132790565|0.8840475082397461|-0.4528101682662964|0|0|0|-1|-1|3
2021-04-08 20:05:46.553 +0100|19404.62075641667|-0.0015869140625|0.95501708984375|-0.529571533203125|19404.60079541667|-0.4619249546637342|-0.2665564675711171|-1.092454090904986|-0.2817342281341553|-0.07492350786924362|-0.2651401162147522|0.1661256551742554|0.01499694585800171|-0.1511772871017456|XArbitraryZVertical|-0.527181515622724|0.007325891497293622|-0.1266747121162263|0.8402259828116062|-0.1212503239512444|0.8877592086791992|-0.4440519511699677|0|0|0|-1|-1|3
2021-04-08 20:05:46.573 +0100|19404.64071741667|-0.01812744140625|0.915618896484375|-0.5131683349609375|19404.62075641667|-0.4697901801177963|-0.2749535660109277|-1.092255322825898|-0.04143397137522697|-0.1576001644134521|-0.1283282041549683|0.1267765909433365|0.07386523485183716|-0.09382915496826172|XArbitraryZVertical|-0.5276096267713292|0.005846933158088572|-0.1277868232821517|0.8398002476373518|-0.1250226050615311|0.887667715549469|-0.443187803030014|0|0|0|-1|-1|3
2021-04-08 20:05:46.595 +0100|19404.66067841667|-0.0132598876953125|0.909027099609375|-0.5263671875|19404.64071741667|-0.471253571049764|-0.2810469403083458|-1.090589691822646|0.1696612685918808|-0.2960255444049835|0.009805962443351746|0.1170520931482315|0.03763097524642944|-0.06646096706390381|XArbitraryZVertical|-0.5273226441493019|0.003451177850040287|-0.1269900955469258|0.8401146462578859|-0.1281307339668274|0.886899471282959|-0.4438378512859344|0|0|0|-1|-1|3
2021-04-08 20:05:46.613 +0100|19404.68063941667|-0.0729827880859375|0.9091644287109375|-0.491912841796875|19404.66067841667|-0.4651997712985995|-0.2820287887822142|-1.086414557431674|0.308492124080658|-0.3394774198532104|0.1447902321815491|0.1157859116792679|0.02345412969589233|-0.08229082822799683|XArbitraryZVertical|-0.5257061179040404|0.0008869758474385809|-0.1246786141490072|0.8414794885821555|-0.1295958757400513|0.8849629759788513|-0.4472645819187164|0|0|0|-1|-1|3
2021-04-08 20:05:46.632 +0100|19404.70059941667|-0.184661865234375|0.934600830078125|-0.45123291015625|19404.68063941667|-0.4527635444689194|-0.2790062055284595|-1.08002215924465|0.4454154372215271|-0.4450133144855499|0.2228354960680008|0.08336548507213593|0.02922600507736206|-0.05102032423019409|XArbitraryZVertical|-0.5229287868505051|-0.001941086517717515|-0.1209755251693485|0.8437457652555809|-0.1297987401485443|0.8819682598114014|-0.4530834257602692|0|0|0|-1|-1|3
2021-04-08 20:05:46.652 +0100|19404.72056041667|-0.220947265625|0.96881103515625|-0.4337005615234375|19404.70059941667|-0.438593078682658|-0.2754505351089635|-1.072201802082864|0.4819382131099701|-0.4322840571403503|0.2093050479888916|-0.03073902428150177|0.04252123832702637|0.005820393562316895|XArbitraryZVertical|-0.5195103414343961|-0.00513654505276287|-0.1168055818605998|0.8464272987170699|-0.1300588399171829|0.8782554864883423|-0.4601652324199677|0|0|0|-1|-1|3
2021-04-08 20:05:46.673 +0100|19404.74052141667|-0.2168426513671875|0.9757232666015625|-0.417449951171875|19404.72056041667|-0.4203635568298717|-0.2661578431605228|-1.063831252220305|0.5330701470375061|-0.3687316477298737|0.2060141712427139|-0.09319591522216797|0.0879213809967041|0.03251814842224121|XArbitraryZVertical|-0.5154962935508504|-0.006955242156880525|-0.1124061916480589|0.849458767317892|-0.1277063339948654|0.8742220401763916|-0.4684303998947144|0|0|0|-1|-1|3
2021-04-08 20:05:46.692 +0100|19404.76048241667|-0.2525482177734375|0.9619293212890625|-0.4084014892578125|19404.74052141667|-0.4061023418299505|-0.2607341993371476|-1.054278414930482|0.5474129319190979|-0.3365694582462311|0.2258573919534683|-0.08872365951538086|0.1091703772544861|0.05365687608718872|XArbitraryZVertical|-0.5112032229332026|-0.009456548564263324|-0.1087508903904255|0.8524994293309157|-0.1273110210895538|0.8695440888404846|-0.4771636724472046|0|0|0|-1|-1|3
2021-04-08 20:05:46.712 +0100|19404.78044341667|-0.3248443603515625|0.9245758056640625|-0.417449951171875|19404.76048241667|-0.391590497063771|-0.2551339691419325|-1.045971909966282|0.4120915532112122|-0.357657253742218|0.2551394701004028|-0.1100108325481415|0.09853202104568481|0.07578480243682861|XArbitraryZVertical|-0.5073870534428195|-0.01172948968392048|-0.1048434079698349|0.8552361026047373|-0.1264553368091583|0.8654119372367859|-0.4848415851593018|0|0|0|-1|-1|3
2021-04-08 20:05:46.733 +0100|19404.80040441667|-0.3469696044921875|0.8923797607421875|-0.39727783203125|19404.78044341667|-0.3781939870167167|-0.250077486844158|-1.04013528817993|0.3313995897769928|-0.2581071853637695|0.2569849491119385|-0.1819100677967072|0.07499724626541138|0.06699097156524658|XArbitraryZVertical|-0.5046131380146337|-0.01361380701115265|-0.1009758664338088|0.8573122375381602|-0.1252500712871552|0.8624727129936218|-0.4903604984283447|0|0|0|-1|-1|3
2021-04-08 20:05:46.752 +0100|19404.82036541667|-0.3049163818359375|0.8951568603515625|-0.4229278564453125|19404.80040441667|-0.3652043225724067|-0.2423470819258516|-1.036587874573452|0.1490732133388519|-0.1048463135957718|0.2891460955142975|-0.2256203889846802|0.03732359409332275|0.09875893592834473|XArbitraryZVertical|-0.5026575641153385|-0.01395681897519468|-0.09769670149713167|0.858834179834886|-0.1221891567111015|0.8606719374656677|-0.4942811727523804|0|0|0|-1|-1|3
2021-04-08 20:05:46.773 +0100|19404.84032541667|-0.2416229248046875|0.8814697265625|-0.454559326171875|19404.82036541667|-0.3551345621288961|-0.2352546865866428|-1.038240177524886|-0.07375884801149368|-0.01576697826385498|0.3134137988090515|-0.2009572982788086|0.02769434452056885|0.08684641122817993|XArbitraryZVertical|-0.5029395082418182|-0.01326687699897338|-0.09499829227125364|0.858982722229451|-0.1183488219976425|0.8615120053291321|-0.4937516748905182|0|0|0|-1|-1|3
2021-04-08 20:05:46.792 +0100|19404.86028641667|-0.2006683349609375|0.8951873779296875|-0.430206298828125|19404.84032541667|-0.3479762542402271|-0.2301336955181615|-1.043627556134931|-0.1472886651754379|0.02999134734272957|0.315855473279953|-0.14195616543293|0.0209280252456665|0.03905099630355835|XArbitraryZVertical|-0.5049116062677119|-0.01231321882464472|-0.09271598145490507|0.8580889654175333|-0.1147584244608879|0.8642348647117615|-0.4898253083229065|0|0|0|-1|-1|3
2021-04-08 20:05:46.812 +0100|19404.88024741667|-0.16668701171875|0.949371337890625|-0.384490966796875|19404.86028641667|-0.3434019658027772|-0.2269850682058214|-1.050444222122774|-0.2786719501018524|0.0613526813685894|0.323345422744751|-0.09668590128421783|0.01701515913009644|0.04621642827987671|XArbitraryZVertical|-0.5075953821586442|-0.01142550932882419|-0.09092926306024077|0.8567079498006793|-0.1118871942162514|0.867644190788269|-0.4844327569007874|0|0|0|-1|-1|3
2021-04-08 20:05:46.832 +0100|19404.90020841667|-0.116729736328125|1.001846313476562|-0.320709228515625|19404.88024741667|-0.342061423228593|-0.2265701696447762|-1.057954705589051|-0.218702107667923|0.0892128050327301|0.2969368994235992|-0.07125425338745117|0.06185901165008545|0.08532476425170898|XArbitraryZVertical|-0.5107102129166026|-0.01082872654193232|-0.08977933752955761|0.8549840406340459|-0.1102192252874374|0.8713537454605103|-0.4781156480312347|0|0|0|-1|-1|3
2021-04-08 20:05:46.852 +0100|19404.92016941667|-0.10028076171875|0.98193359375|-0.308746337890625|19404.90020841667|-0.3387269719724997|-0.2241656184764227|-1.06149382639377|0.05756955593824387|0.07242199778556824|0.3065285384654999|-0.01770102977752686|0.1177298426628113|0.1520519554615021|XArbitraryZVertical|-0.5120636659143345|-0.01029769591514331|-0.08864954526273666|0.854298624481078|-0.1083830371499062|0.8730847835540771|-0.4753695130348206|0|0|0|-1|-1|3
2021-04-08 20:05:46.872 +0100|19404.94013041667|-0.1032562255859375|0.8921051025390625|-0.279083251953125|19404.92016941667|-0.3312376259929359|-0.2175921964468878|-1.058606058741693|0.3361055850982666|0.07311079651117325|0.2377144992351532|0.00339730829000473|0.1263588070869446|0.1685500144958496|XArbitraryZVertical|-0.5105295740689055|-0.009688486940843254|-0.0873853101710379|0.8553534244726868|-0.1057997345924377|0.8716731667518616|-0.4785313606262207|0|0|0|-1|-1|3
2021-04-08 20:05:46.892 +0100|19404.96009141667|-0.089996337890625|0.87060546875|-0.278594970703125|19404.94013041667|-0.3265864390148486|-0.2132319971659585|-1.05427975008095|0.1213997229933739|0.08138753473758698|0.07943937182426453|0.001389786601066589|0.03926920890808105|0.2021224498748779|XArbitraryZVertical|-0.5085039754642131|-0.009427052720512081|-0.08688103008886468|0.8566135772781145|-0.1045093834400177|0.8695447444915771|-0.4826696813106537|0|0|0|-1|-1|3
2021-04-08 20:05:46.912 +0100|19404.98005141667|-0.0723114013671875|0.9451141357421875|-0.270843505859375|19404.96009141667|-0.3299598571885287|-0.2155663201578196|-1.058453714116096|-0.3702711164951324|0.07981771230697632|-0.007104133721441031|0.008056037127971649|-0.00512772798538208|0.1928036510944366|XArbitraryZVertical|-0.5103712147066807|-0.009163001870391853|-0.08736916300172451|0.8554554079387749|-0.1048584878444672|0.871598482131958|-0.478874534368515|0|0|0|-1|-1|3
2021-04-08 20:05:46.932 +0100|19405.00001241667|-0.0694122314453125|1.030319213867188|-0.2963714599609375|19404.98005141667|-0.3375281897989805|-0.2213912149748515|-1.071703008158127|-0.6271737217903137|0.04781077057123184|-0.02598630264401436|0.02740246057510376|0.04338550567626953|0.215010792016983|XArbitraryZVertical|-0.5161932904156504|-0.008403033110681284|-0.08793580548786462|0.8519044693279427|-0.1051009073853493|0.8780168890953064|-0.4669477641582489|0|0|0|-1|-1|3
2021-04-08 20:05:46.952 +0100|19405.01997341667|-0.0914154052734375|1.056900024414062|-0.3270721435546875|19405.00001241667|-0.3440542840334598|-0.2262715699036996|-1.08616186902306|-0.457313060760498|0.06246700137853622|0.02242020331323147|0.03429768234491348|0.129605233669281|0.1703038215637207|XArbitraryZVertical|-0.5224380287273986|-0.007328672162573993|-0.0881336646801697|0.8480786864520492|-0.1045193374156952|0.8848453164100647|-0.4540095925331116|0|0|0|-1|-1|3
2021-04-08 20:05:46.972 +0100|19405.03993441667|-0.1234283447265625|0.99249267578125|-0.348419189453125|19405.01997341667|-0.3460601227097441|-0.226654612932841|-1.094581914778352|-0.04479155316948891|0.1030260324478149|0.0447685606777668|0.01838933676481247|0.1689877510070801|0.1246577203273773|XArbitraryZVertical|-0.5259428642138397|-0.006108126748636395|-0.08810964992833614|0.8459217712175893|-0.1030152812600136|0.8887366652488708|-0.4466935992240906|0|0|0|-1|-1|3
2021-04-08 20:05:46.992 +0100|19405.05989541667|-0.163360595703125|0.9142608642578125|-0.33575439453125|19405.03993441667|-0.3427603057467843|-0.2217380465018979|-1.094455913992864|0.3605183362960815|0.1300348043441772|0.08015443384647369|-0.01138662546873093|0.1270076036453247|0.09722238779067993|XArbitraryZVertical|-0.5256652490132862|-0.004908679354927666|-0.08801788540458146|0.8461116703282553|-0.1008424684405327|0.8886789083480835|-0.4473038911819458|0|0|0|-1|-1|3
2021-04-08 20:05:47.012 +0100|19405.07985641667|-0.189361572265625|0.886138916015625|-0.3171539306640625|19405.05989541667|-0.3360037841216511|-0.212833112900667|-1.090707913172291|0.4267082810401917|0.1872028559446335|0.09113499522209167|-0.05873830616474152|0.04029232263565063|0.1160644292831421|XArbitraryZVertical|-0.5237088776058209|-0.003284007266500454|-0.08782812521961719|0.8473514447597768|-0.0975581556558609|0.8869540691375732|-0.451436460018158|0|0|0|-1|-1|3
2021-04-08 20:05:47.032 +0100|19405.09981741667|-0.2142181396484375|0.875152587890625|-0.2400970458984375|19405.07985641667|-0.3269861887755248|-0.2005732171492634|-1.086974998393697|0.4068279266357422|0.2134194374084473|0.1684341430664062|-0.08940840512514114|0.007309019565582275|0.1362151503562927|XArbitraryZVertical|-0.521612213453114|-0.0008026829036752305|-0.08752957029531407|0.8486806243733555|-0.09267542511224747|0.8852238655090332|-0.4558401107788086|0|0|0|-1|-1|3
2021-04-08 20:05:47.052 +0100|19405.11977741667|-0.240325927734375|0.8826446533203125|-0.316436767578125|19405.09981741667|-0.3130758855680718|-0.1846900976755888|-1.083275255187216|0.4542049467563629|0.1158338189125061|0.3436818420886993|-0.1232349947094917|-0.006268560886383057|0.2064433693885803|XArbitraryZVertical|-0.5193849021621061|0.001981133892974125|-0.08605702385830234|0.8501939598528522|-0.08602473884820938|0.8834968209266663|-0.4604707956314087|0|0|0|-1|-1|3
2021-04-08 20:05:47.072 +0100|19405.13973841667|-0.2999725341796875|0.769561767578125|-0.427734375|19405.11977741667|-0.2906344361319592|-0.1642562545356615|-1.07783341772763|0.639336109161377|-0.004486042074859142|0.5561965703964233|-0.1514382213354111|-0.00126492977142334|0.1873589754104614|XArbitraryZVertical|-0.5162812772785293|0.004398641960366512|-0.08220572302256668|0.852453321153927|-0.07738327980041504|0.8809345364570618|-0.4668685793876648|0|0|0|-1|-1|3
2021-04-08 20:05:47.092 +0100|19405.15969941667|-0.389251708984375|0.6267547607421875|-0.3642578125|19405.13973841667|-0.2658981575346137|-0.1438097834602978|-1.06688122348079|0.9000876545906067|-0.06350866705179214|0.5130149722099304|-0.2132860720157623|-0.05782723426818848|0.06388813257217407|XArbitraryZVertical|-0.510909261766968|0.005915906728629018|-0.07763591989157805|0.8561013981467293|-0.06920059025287628|0.8756988644599915|-0.4778734445571899|0|0|0|-1|-1|3
2021-04-08 20:05:47.112 +0100|19405.17966041667|-0.4630279541015625|0.5238800048828125|-0.4506072998046875|19405.15969941667|-0.2434890512221648|-0.128065353227934|-1.055608011057572|0.3863524198532104|-0.2983084917068481|0.5467740297317505|-0.3025233745574951|-0.2178404331207275|0.1163504123687744|XArbitraryZVertical|-0.5055986146743198|0.00616655401506995|-0.07271361567161376|0.8596771675160376|-0.0629253163933754|0.870199978351593|-0.4886640310287476|0|0|0|-1|-1|3
2021-04-08 20:05:47.132 +0100|19405.19962141667|-0.36474609375|0.6055755615234375|-0.476165771484375|19405.17966041667|-0.2189912244242633|-0.1164847192087901|-1.056640566995949|-0.294804185628891|-0.6378185749053955|0.6666214466094971|-0.3955254256725311|-0.3301193714141846|0.04530718922615051|XArbitraryZVertical|-0.5057085655374968|0.005019468594120378|-0.06505086798878058|0.8602337863501096|-0.0571577288210392|0.8707082271575928|-0.4884673058986664|0|0|0|-1|-1|3
2021-04-08 20:05:47.152 +0100|19405.21958241667|-0.295562744140625|0.8659210205078125|-0.4235076904296875|19405.19962141667|-0.1943093028744789|-0.1103837727266735|-1.068164584428145|-0.7008059024810791|-0.9490543007850647|0.6337303519248962|-0.3499633967876434|-0.3116353154182434|0.02402955293655396|XArbitraryZVertical|-0.5104850476152313|0.002046117836119121|-0.0554170767615173|0.8580966515112385|-0.0530676431953907|0.8763177990913391|-0.4788016676902771|0|0|0|-1|-1|3
2021-04-08 20:05:47.172 +0100|19405.23954341667|-0.3307342529296875|1.059829711914062|-0.4214019775390625|19405.21958241667|-0.1691481370101215|-0.1122891125640936|-1.084861374073843|-0.7015292644500732|-1.505220055580139|0.7599748373031616|-0.2423760145902634|-0.09935659170150757|0.01739412546157837|XArbitraryZVertical|-0.5176233574584952|-0.004350324413697865|-0.04336955171103833|0.8544977832116225|-0.05233287066221237|0.8842386603355408|-0.4640942811965942|0|0|0|-1|-1|3
2021-04-08 20:05:47.191 +0100|19405.25950341667|-0.24053955078125|0.8910064697265625|-0.38739013671875|19405.23954341667|-0.1372791813732528|-0.1204682020045455|-1.095659942645608|-0.1316220313310623|-2.125259637832642|0.8121758103370667|-0.273714005947113|0.1653661131858826|0.05599775910377502|XArbitraryZVertical|-0.5221916612525636|-0.01561003713703181|-0.02716318369496724|0.8522525753428126|-0.05497616529464722|0.8892303109169006|-0.4541443884372711|0|0|0|-1|-1|3
2021-04-08 20:05:47.211 +0100|19405.27946441667|0.1087646484375|0.7442626953125|-0.3639984130859375|19405.25950341667|-0.1039315189453662|-0.1369412159408631|-1.095857961519197|0.1537710726261139|-2.439323663711548|0.6567564010620117|-0.2234179675579071|0.04413604736328125|0.07338041067123413|XArbitraryZVertical|-0.5220317420111491|-0.03132792947179237|-0.008642628538540163|0.8523068116025804|-0.06242546811699867|0.8893209099769592|-0.4530028402805328|0|0|0|-1|-1|3
2021-04-08 20:05:47.231 +0100|19405.29942541667|0.476531982421875|0.81707763671875|-0.439453125|19405.27946441667|-0.08060246302239618|-0.1670557468915926|-1.095472674937896|0.07145283371210098|-2.708440780639648|0.3848471343517303|0.08260904252529144|-0.1310873627662659|0.08680051565170288|XArbitraryZVertical|-0.5213886646195935|-0.05025920175630018|0.009135627968329065|0.8517890953006207|-0.07609405368566513|0.8891446590423584|-0.451255738735199|0|0|0|-1|-1|3
2021-04-08 20:05:47.251 +0100|19405.31938641667|0.51678466796875|0.978912353515625|-0.54315185546875|19405.29942541667|-0.06737586829378935|-0.2149791407983545|-1.094760154408242|0.1180659905076027|-3.271956443786621|0.2389087378978729|0.5110888481140137|-0.09919077157974243|0.02121371030807495|XArbitraryZVertical|-0.5202399250084223|-0.07412728600135522|0.02720938183680819|0.8503619244223644|-0.09775923192501068|0.8888183832168579|-0.4477111399173737|0|0|0|-1|-1|3
2021-04-08 20:05:47.271 +0100|19405.33934741667|0.323333740234375|1.04022216796875|-0.600189208984375|19405.31938641667|-0.05280507541805034|-0.2726318290764628|-1.091752551404707|0.3349412977695465|-3.782674074172974|0.3827970921993256|0.6648388504981995|0.04782146215438843|-0.09182816743850708|XArbitraryZVertical|-0.5172378707644625|-0.1025259121114168|0.04817354673065119|0.8483118288223801|-0.1241135224699974|0.8874360918998718|-0.443906843662262|0|0|0|-1|-1|3
2021-04-08 20:05:47.291 +0100|19405.35930841667|0.0929412841796875|1.022933959960938|-0.734344482421875|19405.33934741667|-0.02422868068755182|-0.3267032979858678|-1.0859599178586|0.6653655171394348|-4.163541793823242|0.7048084735870361|0.5323062539100647|0.1567686200141907|-0.1506283283233643|XArbitraryZVertical|-0.5114605245052204|-0.1330499542912598|0.0737873743152571|0.8457313416991793|-0.1495703756809235|0.8847512006759644|-0.4414116740226746|0|0|0|-1|-1|3
2021-04-08 20:05:47.311 +0100|19405.37926841667|0.0334320068359375|0.859619140625|-0.912567138671875|19405.35930841667|0.02161825087598567|-0.3694406425195497|-1.074366144628584|1.195422649383545|-4.053398132324219|0.8482241034507751|0.3145022392272949|0.1560362577438354|-0.2573521733283997|XArbitraryZVertical|-0.5012772104206116|-0.1632299015589718|0.103111047228421|0.8434722330899543|-0.1719853430986404|0.8792884349822998|-0.4441543221473694|0|0|0|-1|-1|3
2021-04-08 20:05:47.331 +0100|19405.39922941667|-0.066986083984375|0.701568603515625|-0.98944091796875|19405.37926841667|0.07402950552519312|-0.3999592247860701|-1.05469265834002|1.505410075187683|-3.594146013259888|0.7714768648147583|0.2342106252908707|0.05481255054473877|-0.4355581402778625|XArbitraryZVertical|-0.4865222004062462|-0.1897963191679524|0.1312416857418099|0.842644198715696|-0.1921575516462326|0.869748592376709|-0.4545470178127289|0|0|0|-1|-1|3
2021-04-08 20:05:47.351 +0100|19405.41919041667|-0.2110595703125|0.8246307373046875|-1.046768188476562|19405.39922941667|0.1242296102549602|-0.4233752604604938|-1.036312814538136|1.068742990493774|-3.129953861236572|0.8698574304580688|0.1816010326147079|-0.1450771689414978|-0.5079598426818848|XArbitraryZVertical|-0.4719592853227817|-0.2122358945719513|0.1565853170071317|0.8412439549332149|-0.2092805355787277|0.8605318665504456|-0.4644207060337067|0|0|0|-1|-1|3
2021-04-08 20:05:47.371 +0100|19405.439150125|-0.23931884765625|0.959320068359375|-1.07611083984375|19405.41919041667|0.1709386430833327|-0.440252967676474|-1.030019943519651|0.6513519287109375|-2.58258843421936|1.021441340446472|0.03378437459468842|-0.07111477851867676|-0.5606689453125|XArbitraryZVertical|-0.4626818041860583|-0.230367839935047|0.179655434577368|0.8370067512035078|-0.2193922698497772|0.8573092818260193|-0.4657123982906342|0|0|0|-1|-1|3
2021-04-08 20:05:47.391 +0100|19405.459111125|-0.2142181396484375|0.872833251953125|-1.030471801757812|19405.439150125|0.2189404674009011|-0.4447836807913252|-1.027073443999567|0.7225327491760254|-1.987788558006287|1.038477301597595|-0.02001355588436127|0.08621323108673096|-0.603792667388916|XArbitraryZVertical|-0.4553054829104697|-0.2433126390023663|0.2005215454968231|0.8326385795145107|-0.2225858569145203|0.8557886481285095|-0.4669917523860931|0|0|0|-1|-1|3
2021-04-08 20:05:47.411 +0100|19405.479072125|-0.2333526611328125|0.7107086181640625|-0.7715606689453125|19405.459111125|0.2659346665855767|-0.4394787231155069|-1.021398365749338|0.8998135924339294|-1.603326797485352|1.014037251472473|0.001266837120056152|0.07562845945358276|-0.5783485770225525|XArbitraryZVertical|-0.44761227142032|-0.2517268247952946|0.2184814651706494|0.8297848406266686|-0.2221682369709015|0.8528390526771545|-0.4725537300109863|0|0|0|-1|-1|3
2021-04-08 20:05:47.431 +0100|19405.499033125|-0.292724609375|0.568634033203125|-0.516082763671875|19405.479072125|0.3142565189438849|-0.4250281748287305|-1.01116531545974|1.050158500671387|-1.060433030128479|0.8227947354316711|-0.0145859569311142|-0.09365087747573853|-0.345841646194458|XArbitraryZVertical|-0.4387138680142967|-0.2563395382527746|0.2347182617962536|0.8286903678373452|-0.2189038991928101|0.8474510312080383|-0.4836403727531433|0|0|0|-1|-1|3
2021-04-08 20:05:47.451 +0100|19405.518994125|-0.4441375732421875|0.6468353271484375|-0.362823486328125|19405.499033125|0.3527455107282203|-0.4102963745003886|-0.999273379914957|0.7887819409370422|-0.8127655982971191|0.640572190284729|-0.04943731427192688|-0.250684380531311|-0.06452655792236328|XArbitraryZVertical|-0.4304095046652276|-0.2583369625034261|0.2468672164128434|0.8288947000507104|-0.2157602906227112|0.8410781621932983|-0.4960193336009979|0|0|0|-1|-1|3
2021-04-08 20:05:47.471 +0100|19405.538954125|-0.4825439453125|0.773529052734375|-0.333465576171875|19405.518994125|0.3789753689642555|-0.402254990549033|-0.9940744077897948|0.2985832989215851|-0.5443946123123169|0.467075526714325|-0.1996578276157379|-0.236844003200531|0.1294876337051392|XArbitraryZVertical|-0.4257732373229361|-0.2604601649390688|0.2557790188688991|0.8279220799139485|-0.2134737223386765|0.8382546305656433|-0.5017552971839905|0|0|0|-1|-1|3
2021-04-08 20:05:47.491 +0100|19405.558915125|-0.5224761962890625|0.7717742919921875|-0.3878173828125|19405.538954125|0.3952161008568787|-0.395412258109755|-0.993886597360804|0.04218931868672371|-0.1005354002118111|0.361952543258667|-0.2645284533500671|-0.08217006921768188|0.1675808429718018|XArbitraryZVertical|-0.4244587352563807|-0.2610747798799272|0.2610353225352103|0.8267620128995881|-0.2100959718227386|0.8381521701812744|-0.5033494830131531|0|0|0|-1|-1|3
2021-04-08 20:05:47.511 +0100|19405.578876125|-0.5230560302734375|0.767852783203125|-0.47894287109375|19405.558915125|0.4046440983597533|-0.3841940627205231|-0.997309012751408|-0.1516581773757935|0.4517064690589905|0.2643479704856873|-0.3093047440052032|-0.07646346092224121|0.1345440745353699|XArbitraryZVertical|-0.4261797783392597|-0.2585819668856655|0.2626717247270107|0.8261415564149026|-0.2033598572015762|0.8400139808654785|-0.5030122995376587|0|0|0|-1|-1|3
2021-04-08 20:05:47.531 +0100|19405.598837125|-0.4912109375|0.8057708740234375|-0.47076416015625|19405.578876125|0.4087390484620498|-0.3657079403951889|-1.001931062374347|-0.09267643839120865|1.046356678009033|0.1618332266807556|-0.3411921858787537|-0.05990403890609741|0.04210251569747925|XArbitraryZVertical|-0.4300686311783347|-0.252019541446651|0.2605572587256165|0.8268235339698248|-0.1926363706588745|0.8425127863883972|-0.5030542612075806|0|0|0|-1|-1|3
2021-04-08 20:05:47.551 +0100|19405.618798125|-0.4525146484375|0.91650390625|-0.4446258544921875|19405.598837125|0.4182850690947365|-0.3316094126636646|-1.002728148191698|0.09513901919126511|1.551480531692505|0.3325002789497375|-0.3170011937618256|-0.04649341106414795|0.03802245855331421|XArbitraryZVertical|-0.4336516094918385|-0.2399984132338422|0.2571680656872979|0.8295853228095784|-0.1751556247472763|0.8429418802261353|-0.5086941123008728|0|0|0|-1|-1|3
2021-04-08 20:05:47.571 +0100|19405.638759125|-0.4413909912109375|1.184799194335938|-0.5883026123046875|19405.618798125|0.4352432216163315|-0.2824637196377693|-0.9991256033332017|0.5943762063980103|1.879770398139954|0.4916722774505615|-0.3126097619533539|0.01245707273483276|0.06056845188140869|XArbitraryZVertical|-0.4364080863799942|-0.2230451935931609|0.2534760212980519|0.8339957838615105|-0.1507995277643204|0.8409982323646545|-0.5195976495742798|0|0|0|-1|-1|3
2021-04-08 20:05:47.591 +0100|19405.658719125|-0.302276611328125|0.8829193115234375|-0.776336669921875|19405.638759125|0.4608760355269799|-0.2221619161561116|-0.9833765343904892|1.362428426742554|2.005040884017944|0.3303925693035126|-0.3246315121650696|0.3550814390182495|-0.001274645328521729|XArbitraryZVertical|-0.4344825437049907|-0.2023059305522813|0.2510574200085791|0.8409919329309864|-0.1221151798963547|0.8323734402656555|-0.5405944585800171|0|0|0|-1|-1|3
2021-04-08 20:05:47.611 +0100|19405.678680125|-0.1247711181640625|0.36895751953125|-0.798980712890625|19405.658719125|0.4744192017229712|-0.1681661132480108|-0.9493944103073301|1.926488399505615|2.314063310623169|-0.2190771102905273|-0.2635051608085632|0.1582359075546265|-0.1538190841674805|XArbitraryZVertical|-0.4251470790314321|-0.1796340253535375|0.2455817089917334|0.8524502086954538|-0.09744143486022949|0.8130630850791931|-0.5739631652832031|0|0|0|-1|-1|3
2021-04-08 20:05:47.631 +0100|19405.698641125|-0.076751708984375|0.363433837890625|-0.6206817626953125|19405.678680125|0.4667392156792922|-0.1279564707643425|-0.9175816292379555|0.8701093196868896|2.296095371246338|-0.6447986960411072|-0.08649466931819916|-0.3088734149932861|-0.2315602898597717|XArbitraryZVertical|-0.4167215178296529|-0.1579750916292457|0.234465074667864|0.8639521635551626|-0.07755256444215775|0.7941341996192932|-0.6027740836143494|0|0|0|-1|-1|3
2021-04-08 20:05:47.651 +0100|19405.718602125|-0.103363037109375|0.878021240234375|-0.6934661865234375|19405.698641125|0.4435304602521968|-0.1049704705110763|-0.9206539831690859|-1.304124712944031|1.855932831764221|-0.6807382106781006|-0.009042024612426758|-0.5102607607841492|-0.02937865257263184|XArbitraryZVertical|-0.4224273318781622|-0.1434264303148774|0.2195198525972016|0.8676376894404492|-0.06342197954654694|0.7959976196289062|-0.601967990398407|0|0|0|-1|-1|3
2021-04-08 20:05:47.671 +0100|19405.738563125|-0.069183349609375|1.202346801757812|-0.7288055419921875|19405.718602125|0.4151625575848208|-0.0936101024010727|-0.9541199320463984|-1.82577121257782|1.58968198299408|-0.6724836230278015|-0.04622258245944977|-0.06800162792205811|-0.09144032001495361|XArbitraryZVertical|-0.4402538342215025|-0.1351999681551451|0.2039049330070032|0.8638984483519029|-0.05405822768807411|0.8158050775527954|-0.57579505443573|0|0|0|-1|-1|3
2021-04-08 20:05:47.691 +0100|19405.758524125|-0.0452880859375|1.160369873046875|-0.7631072998046875|19405.738563125|0.3897398343157527|-0.0839186489127335|-0.9785568244393811|-0.6085973381996155|1.49816632270813|-0.5259822607040405|-0.03008370101451874|0.3287553787231445|-0.1762257218360901|XArbitraryZVertical|-0.4535180732303702|-0.1272527099428944|0.1901107221074387|0.8613861955527589|-0.04679016023874283|0.8296926021575928|-0.5562562346458435|0|0|0|-1|-1|3
2021-04-08 20:05:47.710 +0100|19405.778485125|0.0001678466796875|0.9253082275390625|-0.71893310546875|19405.758524125|0.3722401733280758|-0.06828530550767167|-0.9728501668853659|1.118233919143677|1.568115234375|-0.5456975698471069|-0.0171615332365036|0.3685755729675293|-0.1958109140396118|XArbitraryZVertical|-0.4535433209565383|-0.1161087782588571|0.1791702245032655|0.8652834808741628|-0.03841109946370125|0.8264935612678528|-0.5616344213485718|0|0|0|-1|-1|3
2021-04-08 20:05:47.731 +0100|19405.798445125|0.04638671875|0.7168426513671875|-0.604949951171875|19405.778485125|0.35322085238467|-0.05120995018149407|-0.9356808125040647|2.297341823577881|1.689087271690369|-0.7783260941505432|0.01730640418827534|0.1815240383148193|-0.1545612215995789|XArbitraryZVertical|-0.4397847321428112|-0.1017004533376289|0.1681289865152982|0.8763441815853463|-0.03036807850003242|0.8050031661987305|-0.5924928188323975|0|0|0|-1|-1|3
2021-04-08 20:05:47.750 +0100|19405.818406125|0.0457305908203125|0.6421966552734375|-0.5992431640625|19405.798445125|0.3283339715024367|-0.03759848924127022|-0.8894293376528022|2.085755825042725|1.613951325416565|-0.9472551345825195|0.06225006282329559|-0.02205771207809448|0.004151821136474609|XArbitraryZVertical|-0.4215677804795653|-0.08703697301398285|0.1554863845798348|0.8891171781472721|-0.02367603592574596|0.7767124176025391|-0.6294103264808655|0|0|0|-1|-1|3
2021-04-08 20:05:47.770 +0100|19405.838367125|0.023956298828125|0.54730224609375|-0.618316650390625|19405.818406125|0.2980926354239874|-0.03046681811747436|-0.8547056320505699|1.317679286003113|1.411371231079102|-1.139094352722168|0.07045714557170868|-0.09556341171264648|0.06058639287948608|XArbitraryZVertical|-0.40776187319761|-0.07524775108964721|0.1413680934728974|0.8989345249217945|-0.01999656483530998|0.7543777227401733|-0.6561360359191895|0|0|0|-1|-1|3
2021-04-08 20:05:47.790 +0100|19405.858328125|0.00885009765625|0.4533843994140625|-0.6413421630859375|19405.838367125|0.2614135014535538|-0.03139446066381694|-0.835975914484296|0.4595044255256653|1.24927294254303|-1.338175415992737|0.05014331638813019|-0.1681588888168335|0.05365407466888428|XArbitraryZVertical|-0.4005406570096239|-0.06712219621005104|0.1254166070977564|0.905169901891115|-0.02104508318006992|0.7419511675834656|-0.6701235771179199|0|0|0|-1|-1|3
2021-04-08 20:05:47.810 +0100|19405.878289125|-0.0473785400390625|0.5711517333984375|-0.572662353515625|19405.858328125|0.2196742156957749|-0.03855182746931684|-0.8356001003322263|-0.5024719834327698|1.155276656150818|-1.461661100387573|0.04201031476259232|-0.2745352387428284|0.0330740213394165|XArbitraryZVertical|-0.401299579202439|-0.06197926624389877|0.1079425769700948|0.9074501774821292|-0.02585157006978989|0.7416991591453552|-0.6702344417572021|0|0|0|-1|-1|3
2021-04-08 20:05:47.830 +0100|19405.898250125|-0.1483154296875|0.90234375|-0.5218048095703125|19405.878289125|0.1737770440471548|-0.04974677142765629|-0.8514861754187958|-1.151030302047729|1.139085054397583|-1.495832324028015|0.003404669463634491|-0.2399000525474548|0.06858938932418823|XArbitraryZVertical|-0.4093467469510164|-0.05839373358711553|0.08924102254586842|0.9061244511638522|-0.03276293352246284|0.7522604465484619|-0.6580508351325989|0|0|0|-1|-1|3
2021-04-08 20:05:47.850 +0100|19405.918211125|-0.2210540771484375|1.095901489257812|-0.490264892578125|19405.898250125|0.1294636310102043|-0.06147560314583928|-0.8738445019525901|-1.103944778442383|1.063914775848389|-1.238733053207397|-0.08150622248649597|0.05004715919494629|0.1108408570289612|XArbitraryZVertical|-0.4202658085406256|-0.05514691029734831|0.07155964623260172|0.9028925470193357|-0.03943532332777977|0.7668023109436035|-0.6406709551811218|0|0|0|-1|-1|3
2021-04-08 20:05:47.870 +0100|19405.938172125|-0.1986846923828125|0.9547882080078125|-0.5989532470703125|19405.918211125|0.09285777467630832|-0.06852644285498168|-0.8864390439157563|-0.2480199337005615|1.061987996101379|-1.011892199516296|-0.1683224886655807|0.2974255681037903|0.1392525434494019|XArbitraryZVertical|-0.426700209142131|-0.05080534535106537|0.05657812254868127|0.9011907637978441|-0.04328682273626328|0.7748255133628845|-0.6306914687156677|0|0|0|-1|-1|3
2021-04-08 20:05:47.890 +0100|19405.958132125|-0.0774383544921875|0.59375|-0.6051788330078125|19405.938172125|0.06257126819116053|-0.07002775905036016|-0.8810095325171263|0.5710022449493408|1.184392929077148|-0.9945220947265625|-0.1683484613895416|0.2554744482040405|0.05011242628097534|XArbitraryZVertical|-0.4249356932489626|-0.04497908301539458|0.04319646209238277|0.9030729219986783|-0.04452734813094139|0.7713817358016968|-0.6348130702972412|0|0|0|-1|-1|3
2021-04-08 20:05:47.910 +0100|19405.978093125|0.0505523681640625|0.4577789306640625|-0.56280517578125|19405.958132125|0.03109007264711545|-0.06964210298637728|-0.8696117815032272|0.1978560984134674|1.238025903701782|-1.068135261535645|-0.07241861522197723|-0.08490914106369019|0.03977012634277344|XArbitraryZVertical|-0.4204372515741009|-0.03811467929179455|0.02875256043204307|0.9060647620420366|-0.04489143937826157|0.7640785574913025|-0.6435595750808716|0|0|0|-1|-1|3
2021-04-08 20:05:47.930 +0100|19405.998054125|0.1365509033203125|0.637664794921875|-0.6720733642578125|19405.978093125|-0.0005468864316054719|-0.07063037870015396|-0.874365300334794|-0.8118239045143127|1.051628828048706|-0.9156217575073242|0.07218658924102783|-0.3168946504592896|0.07665300369262695|XArbitraryZVertical|-0.4231334350368627|-0.03187137064854226|0.01470136694067638|0.9053874479048099|-0.04527059942483902|0.7671365141868591|-0.6398846507072449|0|0|0|-1|-1|3
2021-04-08 20:05:47.950 +0100|19406.018015125|0.1839599609375|0.7182769775390625|-0.6698455810546875|19405.998054125|-0.0274581654497048|-0.07205692830012099|-0.8930872985468247|-0.9772086143493652|0.9213802218437195|-0.6633424162864685|0.1661277413368225|-0.1878697276115417|-0.01984930038452148|XArbitraryZVertical|-0.4319757032565732|-0.02656072298886981|0.003179624231114188|0.9014885696972303|-0.04514133557677269|0.7790112495422363|-0.6253830194473267|0|0|0|-1|-1|3
2021-04-08 20:05:47.970 +0100|19406.037976125|0.14642333984375|0.6715545654296875|-0.6609039306640625|19406.018015125|-0.04558630301240966|-0.06875466949811124|-0.9061840742310059|-0.4251965582370758|0.776730477809906|-0.3632981181144714|0.2207154929637909|-0.07785052061080933|-0.06055986881256104|XArbitraryZVertical|-0.4380796521251215|-0.02092358351997124|-0.0054376685310809|0.8986762296161225|-0.04237131774425507|0.7871559858322144|-0.6152968406677246|0|0|0|-1|-1|3
2021-04-08 20:05:47.990 +0100|19406.057937125|0.0851898193359375|0.54510498046875|-0.6629486083984375|19406.037976125|-0.05515112223560725|-0.06338849775786452|-0.9110499158292985|-0.1441403031349182|0.539964497089386|-0.2515695095062256|0.2014839649200439|-0.09398001432418823|-0.04193896055221558|XArbitraryZVertical|-0.4403302315954154|-0.01632301830116677|-0.01081237979937794|0.8976225233133789|-0.03882585465908051|0.7901476621627808|-0.6116856932640076|0|0|0|-1|-1|3
2021-04-08 20:05:48.010 +0100|19406.077898125|0.07916259765625|0.5321197509765625|-0.58282470703125|19406.057937125|-0.06414423652187927|-0.06061168408673153|-0.9150260807313191|-0.4136002063751221|0.4907032549381256|-0.2602194845676422|0.1327459216117859|-0.2236843705177307|-0.06532955169677734|XArbitraryZVertical|-0.4421600372481435|-0.013012954186805|-0.01537777009445816|0.8967100642565561|-0.03693656623363495|0.7925785183906555|-0.6086503267288208|0|0|0|-1|-1|3
2021-04-08 20:05:48.030 +0100|19406.097858125|0.052520751953125|0.6610870361328125|-0.52056884765625|19406.077898125|-0.07424038127861367|-0.05885834688147393|-0.9289241076169289|-0.9994714856147766|0.4488152861595154|-0.2589986026287079|0.1116486117243767|-0.2825124859809875|-0.006923437118530273|XArbitraryZVertical|-0.4484157557991508|-0.009672935964667624|-0.01999421169536441|0.8935491975023361|-0.03521792590618134|0.8009762763977051|-0.5976594686508179|0|0|0|-1|-1|3
2021-04-08 20:05:48.050 +0100|19406.117819125|-0.0005035400390625|0.7295989990234375|-0.522613525390625|19406.097858125|-0.08314745785479905|-0.0592859915787938|-0.9512607045751026|-1.17145562171936|0.2213257253170013|-0.1308912336826324|0.09963540732860565|-0.1857601404190063|0.04645007848739624|XArbitraryZVertical|-0.4583973714417348|-0.007303402447456865|-0.02337256284897069|0.888409966902215|-0.03440467268228531|0.8141481876373291|-0.5796369910240173|0|0|0|-1|-1|3
2021-04-08 20:05:48.070 +0100|19406.137780125|-0.01629638671875|0.6965484619140625|-0.5789642333984375|19406.117819125|-0.08834967886934926|-0.06090652325244698|-0.9733845724565694|-1.036984205245972|0.07248958945274353|-0.03468729555606842|0.04533156380057335|-0.0996207594871521|0.04266369342803955|XArbitraryZVertical|-0.4682202650027704|-0.006242277304663619|-0.02478762801341305|0.8832421475117935|-0.0342390239238739|0.8267942667007446|-0.5614616274833679|0|0|0|-1|-1|3
2021-04-08 20:05:48.090 +0100|19406.157741125|-0.0432586669921875|0.7207489013671875|-0.545867919921875|19406.137780125|-0.09134470081698055|-0.0626660885128856|-0.9918632788238174|-0.8095018863677979|0.02347006648778915|-0.023792564868927|0.01808922737836838|-0.1322580575942993|-0.0303119421005249|XArbitraryZVertical|-0.4763796111254872|-0.005809960055001037|-0.02524445246288535|0.8788581709963967|-0.03426414728164673|0.8370468616485596|-0.546057403087616|0|0|0|-1|-1|3
2021-04-08 20:05:48.110 +0100|19406.177702125|-0.1777801513671875|0.825927734375|-0.4421234130859375|19406.157741125|-0.09426006668056043|-0.06500250976395644|-1.00744696626505|-0.7511292099952698|-0.01541570760309696|-0.0372781939804554|0.008686687797307968|-0.1341516375541687|-0.02902603149414062|XArbitraryZVertical|-0.4832400170702033|-0.005698948385538513|-0.02557115862912232|0.8750958689924595|-0.03468826785683632|0.845471203327179|-0.5328932404518127|0|0|0|-1|-1|3
2021-04-08 20:05:48.130 +0100|19406.197663125|-0.308013916015625|0.9648895263671875|-0.3587493896484375|19406.177702125|-0.09975480998160421|-0.0710258043847912|-1.022773812592181|-0.8280803561210632|-0.1128263622522354|-0.1554853618144989|-0.1043998971581459|-0.05701655149459839|0.04944252967834473|XArbitraryZVertical|-0.4900139778214522|-0.006540753167530512|-0.02609667814190423|0.8712994767389259|-0.03697338327765465|0.8535564541816711|-0.5196870565414429|0|0|0|-1|-1|3
2021-04-08 20:05:48.150 +0100|19406.217624125|-0.3842010498046875|1.0693359375|-0.408477783203125|19406.197663125|-0.1108974263881122|-0.08424169306760076|-1.039123309576218|-0.8401718139648438|-0.259745717048645|-0.2734396755695343|-0.2387451529502869|0.06125825643539429|0.1317051649093628|XArbitraryZVertical|-0.4973225904485431|-0.009003708702932711|-0.0271895294420352|0.867092835919934|-0.04265803843736649|0.8619601130485535|-0.5051783323287964|0|0|0|-1|-1|3
2021-04-08 20:05:48.170 +0100|19406.237584125|-0.36822509765625|1.036361694335938|-0.4580841064453125|19406.217624125|-0.1248891289055885|-0.1025908619063114|-1.054039937620888|-0.6342859268188477|-0.3173596560955048|-0.276949018239975|-0.3198560178279877|0.1919755935668945|0.1031145751476288|XArbitraryZVertical|-0.5040847800642581|-0.01288391207318149|-0.02812746516694582|0.8630999342485822|-0.05059746280312538|0.8694263100624084|-0.4914650917053223|0|0|0|-1|-1|3
2021-04-08 20:05:48.190 +0100|19406.257545125|-0.2982330322265625|0.90411376953125|-0.390869140625|19406.237584125|-0.1383414769126214|-0.1187284487724747|-1.060782649440442|-0.1033597066998482|-0.1260034143924713|-0.3231452703475952|-0.3281458020210266|0.1781507134437561|0.0387236475944519|XArbitraryZVertical|-0.5073094463498152|-0.0161536889491616|-0.02957349314929452|0.8611048728702062|-0.05782586708664894|0.8727378249168396|-0.484752357006073|0|0|0|-1|-1|3
2021-04-08 20:05:48.209 +0100|19406.277506125|-0.2827301025390625|0.8799285888671875|-0.2927703857421875|19406.257545125|-0.1514942428296742|-0.132043316862248|-1.058821640059124|0.1077010631561279|-0.08902441710233688|-0.3150655329227448|-0.2476036995649338|0.06559956073760986|0.06760627031326294|XArbitraryZVertical|-0.5067887511058443|-0.01864459190164225|-0.03195007673618908|0.8612762220285546|-0.06450016796588898|0.8717787861824036|-0.4856350719928741|0|0|0|-1|-1|3
2021-04-08 20:05:48.229 +0100|19406.297467125|-0.3823089599609375|1.042312622070312|-0.1484832763671875|19406.277506125|-0.1606988841073338|-0.1441721570925731|-1.05988884841987|-0.3084299266338348|-0.3618248105049133|-0.1005319058895111|-0.2033236473798752|-0.003983914852142334|0.1605329513549805|XArbitraryZVertical|-0.5075338136815942|-0.02147765274514271|-0.03278445043389031|0.8607400931553816|-0.07025178521871567|0.8723011612892151|-0.4838962852954865|0|0|0|-1|-1|3
2021-04-08 20:05:48.249 +0100|19406.317428125|-0.5240020751953125|1.204010009765625|-0.0538177490234375|19406.297467125|-0.1639176199980514|-0.1598801467638556|-1.070509019264089|-0.7537911534309387|-1.001920938491821|0.1209830790758133|-0.2743591964244843|0.1185426712036133|0.2902573347091675|XArbitraryZVertical|-0.5123474409612445|-0.02683203261426606|-0.02959810006266659|0.8578486659633426|-0.076364666223526|0.8774448037147522|-0.4735602736473083|0|0|0|-1|-1|3
2021-04-08 20:05:48.269 +0100|19406.337389125|-0.6334381103515625|1.357589721679688|-0.06207275390625|19406.317428125|-0.1583049858166075|-0.1844643200195067|-1.087999768395042|-0.8229284882545471|-1.962051630020142|0.4696721136569977|-0.4021815359592438|0.2776152491569519|0.386726438999176|XArbitraryZVertical|-0.5199802606164623|-0.03780978558843392|-0.01984920352416519|0.8531103188048111|-0.08515422791242599|0.8857000470161438|-0.4563818871974945|0|0|0|-1|-1|3
2021-04-08 20:05:48.289 +0100|19406.357350125|-0.5552215576171875|1.372161865234375|-0.15655517578125|19406.337389125|-0.1332474078966323|-0.208742754247848|-1.101841654362745|-0.1971285939216614|-2.591619968414307|0.8623561263084412|-0.5185399055480957|0.4309114813804626|0.4062707424163818|XArbitraryZVertical|-0.5253780481747786|-0.05391037726201104|-0.002000221617072779|0.849156987068132|-0.09365849196910858|0.8920412063598633|-0.4421431422233582|0|0|0|-1|-1|3
2021-04-08 20:05:48.309 +0100|19406.377310125|-0.3386993408203125|1.128890991210938|-0.0680694580078125|19406.357350125|-0.0910605495683772|-0.2230289511246723|-1.098354642034649|0.9653339982032776|-2.592928171157837|0.9155862927436829|-0.4941353499889374|0.5068032741546631|0.2981927990913391|XArbitraryZVertical|-0.5225259957448332|-0.07121098238599485|0.01944746918079683|0.849421929746805|-0.1006527245044708|0.8904598355293274|-0.4437911510467529|0|0|0|-1|-1|3
2021-04-08 20:05:48.330 +0100|19406.397271125|-0.09210205078125|0.8805389404296875|-0.0773773193359375|19406.377310125|-0.04043103879574791|-0.2292319402112561|-1.076747925660374|1.453585505485535|-2.531854629516602|0.8645080327987671|-0.2944711148738861|0.313626229763031|0.3690021634101868|XArbitraryZVertical|-0.5112570661424994|-0.08787081395363659|0.04138682212121077|0.8539216582563184|-0.1077509745955467|0.8804203271865845|-0.4617898762226105|0|0|0|-1|-1|3
2021-04-08 20:05:48.349 +0100|19406.417232125|0.1258087158203125|0.833404541015625|-0.2555389404296875|19406.397271125|0.005957439670628135|-0.2409566364039119|-1.058064018337177|0.8066822290420532|-2.74223256111145|0.8963428735733032|-0.02868909388780594|0.05577820539474487|0.4048709571361542|XArbitraryZVertical|-0.5007281732218442|-0.1052490071926012|0.06321075594588947|0.8568537861670464|-0.1170632094144821|0.8714073896408081|-0.4763878881931305|0|0|0|-1|-1|3
2021-04-08 20:05:48.369 +0100|19406.437194|0.336639404296875|0.8942108154296875|-0.5516357421875|19406.417232125|0.04420009615617803|-0.2648751012883265|-1.054273928042058|0.09920666366815567|-2.959644794464111|0.8173404335975647|0.1959369033575058|-0.03302395343780518|0.2833845615386963|XArbitraryZVertical|-0.4960119052546037|-0.1251164980735801|0.0853445152163905|0.855005552162576|-0.1292868107557297|0.8695418834686279|-0.4766361117362976|0|0|0|-1|-1|3
2021-04-08 20:05:48.389 +0100|19406.457155|0.3357086181640625|0.957061767578125|-0.7974700927734375|19406.437194|0.07668962973978878|-0.2983811644030523|-1.059981341716518|-0.1203700453042984|-3.251424551010132|0.9156790375709534|0.4476902484893799|-0.00595170259475708|-0.002988517284393311|XArbitraryZVertical|-0.4946258514898015|-0.1473163596468714|0.1077937032182091|0.8497198501104402|-0.1437201648950577|0.8723463416099548|-0.4672863185405731|0|0|0|-1|-1|3
2021-04-08 20:05:48.409 +0100|19406.477116|0.3386688232421875|1.002059936523438|-1.120956420898438|19406.457155|0.1166046638729665|-0.3300269680618287|-1.067009185288621|0.05645818635821342|-3.364055156707764|1.233060479164124|0.503442645072937|0.06779766082763672|-0.264695018529892|XArbitraryZVertical|-0.4925520319607076|-0.1704278742996531|0.1328860849479227|0.8430232551010475|-0.1564427018165588|0.8757606148719788|-0.4566936790943146|0|0|0|-1|-1|3
2021-04-08 20:05:48.429 +0100|19406.497077|0.5838470458984375|0.952880859375|-1.41998291015625|19406.477116|0.1751953045717649|-0.3439218431655914|-1.072561451692347|0.4146846830844879|-3.114517450332642|1.564844965934753|0.4743787050247192|0.1174228191375732|-0.581342339515686|XArbitraryZVertical|-0.488607787190394|-0.1905695496149243|0.1611892583966558|0.8360406167756584|-0.1611311137676239|0.8784274458885193|-0.4498913586139679|0|0|0|-1|-1|3
2021-04-08 20:05:48.449 +0100|19406.517038|0.6558380126953125|0.8512725830078125|-1.537353515625|19406.497077|0.253308046445182|-0.3353572480749152|-1.070187835862771|1.090834379196167|-3.010082721710205|1.917686820030212|0.6791675686836243|0.09985232353210449|-0.9055868983268738|XArbitraryZVertical|-0.480608284794125|-0.2059234027155599|0.1915565547753325|0.8306127291860046|-0.1579578667879105|0.877290666103363|-0.4532224535942078|0|0|0|-1|-1|3
2021-04-08 20:05:48.469 +0100|19406.536998|0.563140869140625|0.855621337890625|-1.709426879882812|19406.517038|0.354616719205198|-0.3096312151914412|-1.05968460670828|1.345661044120789|-3.318413496017456|2.407549619674683|0.8105001449584961|-0.006828963756561279|-1.05466616153717|XArbitraryZVertical|-0.4680554490713762|-0.2190455079188278|0.2270857532809292|0.8254545750727927|-0.149046778678894|0.8722012639045715|-0.4658863246440887|0|0|0|-1|-1|3
2021-04-08 20:05:48.489 +0100|19406.556959|0.3609466552734375|0.968719482421875|-1.907150268554688|19406.536998|0.4727396758605044|-0.2778214802632223|-1.050144045543711|1.310634255409241|-3.80472207069397|2.885417222976685|0.7361466884613037|-0.01857137680053711|-1.194722890853882|XArbitraryZVertical|-0.4545858232000616|-0.2327354453146862|0.2681556599114787|0.8168713120136301|-0.1364302933216095|0.8674948811531067|-0.4783718883991241|0|0|0|-1|-1|3
2021-04-08 20:05:48.509 +0100|19406.57692|0.107421875|1.027587890625|-2.064056396484375|19406.556959|0.6066526332348874|-0.2410022883339122|-1.037831729591967|1.700968146324158|-4.072176933288574|3.272369384765625|0.5383679866790771|0.07946145534515381|-1.351091742515564|XArbitraryZVertical|-0.4386869451540643|-0.2466805446321525|0.3143893358305567|0.8048987108812822|-0.1212687119841576|0.8613045811653137|-0.4934049546718597|0|0|0|-1|-1|3
2021-04-08 20:05:48.529 +0100|19406.596881|-0.3202972412109375|0.896484375|-2.094085693359375|19406.57692|0.7503496950013157|-0.200439972184163|-1.012136269170917|2.48372220993042|-4.129705429077148|3.355408668518066|0.2930642664432526|0.1859853863716125|-1.520996332168579|XArbitraryZVertical|-0.4166945530864333|-0.2581596056681598|0.3640229919058227|0.7919638499215874|-0.1055333539843559|0.8479661345481873|-0.5194385051727295|0|0|0|-1|-1|3
2021-04-08 20:05:48.549 +0100|19406.616842|-0.6182098388671875|0.4932403564453125|-1.924346923828125|19406.596881|0.8854377713772776|-0.1660351593399874|-0.9656996793684305|3.440178632736206|-3.675146341323853|2.965428829193115|-0.1084692180156708|0.1048759818077087|-1.527435421943665|XArbitraryZVertical|-0.3866341441859529|-0.2645837844334367|0.4129039096567946|0.7810378046447898|-0.09401437640190125|0.8224471211433411|-0.5610189437866211|0|0|0|-1|-1|3
2021-04-08 20:05:48.569 +0100|19406.636803|-0.67352294921875|-0.55047607421875|-2.16558837890625|19406.616842|0.9796587967304358|-0.1481831464627123|-0.8977037698231174|3.839681625366211|-1.968176364898682|1.514874458312988|-0.5035855174064636|-0.08971238136291504|-1.376969575881958|XArbitraryZVertical|-0.3504795939933521|-0.2624433204938319|0.4510541380669212|0.7777131737644112|-0.09204071015119553|0.7818974852561951|-0.6165751218795776|0|0|0|-1|-1|3
2021-04-08 20:05:48.589 +0100|19406.656764|-1.436279296875|-1.552001953125|-2.405624389648438|19406.636803|1.005984018333314|-0.1445973414231549|-0.825595735006274|3.501720190048218|-0.08164165169000626|-0.728635311126709|-0.5493354797363281|-0.9254266023635864|-1.436928033828735|XArbitraryZVertical|-0.318671566533167|-0.2508529657235451|0.465794242303938|0.7864839704255646|-0.09771291166543961|0.734951913356781|-0.6710424423217773|0|0|0|-1|-1|3
2021-04-08 20:05:48.609 +0100|19406.676724|-3.10833740234375|-0.6845245361328125|-2.558242797851562|19406.656764|0.9639329042914077|-0.1503023827022298|-0.7582029294489493|2.52336049079895|2.853387117385864|-3.32135796546936|-0.9567700624465942|-2.037760257720947|-1.592125177383423|XArbitraryZVertical|-0.2946715125797483|-0.2328629819656597|0.4540168060050559|0.8079680542466979|-0.108720064163208|0.6876177787780762|-0.7178870439529419|0|0|0|-1|-1|3
2021-04-08 20:05:48.629 +0100|19406.696685|-3.77947998046875|0.3590087890625|-1.042236328125|19406.676724|0.8631847697057762|-0.1264939878318222|-0.7029398141175902|2.226971387863159|6.46227502822876|-5.14306116104126|-2.556687593460083|-1.787758827209473|-1.908753633499146|XArbitraryZVertical|-0.2872595539228907|-0.1976291451130442|0.4117243424877327|0.8419666600654978|-0.09625080227851868|0.6464633941650391|-0.7568493485450745|0|0|0|-1|-1|3
2021-04-08 20:05:48.649 +0100|19406.716646|-3.437698364257812|0.42156982421875|1.06103515625|19406.696685|0.7022305338245592|-0.05854352805453932|-0.6428390749610343|2.305045604705811|10.15953254699707|-8.007229804992676|-3.711163997650146|-0.3967104554176331|-0.7001342177391052|XArbitraryZVertical|-0.2869617020216873|-0.1346849807767801|0.3348731884205072|0.8873404708855823|-0.04683130979537964|0.5994702577590942|-0.7990258932113647|0|0|0|-1|-1|3
2021-04-08 20:05:48.669 +0100|19406.736607|-3.706710815429688|1.066024780273438|3.257354736328125|19406.716646|0.4802493851018254|0.02288102291891045|-0.6137411517405017|0.4155542254447937|10.24041366577148|-9.596410751342773|-3.541149377822876|-0.144486665725708|1.295999765396118|XArbitraryZVertical|-0.2959842401754262|-0.06124343292053364|0.2233419290093899|0.9266936279306865|0.01870358362793922|0.5759298801422119|-0.8172851204872131|0|0|0|-1|-1|3
2021-04-08 20:05:48.689 +0100|19406.756568|-3.493927001953125|1.248153686523438|1.918991088867188|19406.736607|0.253364925791997|0.07482367138184814|-0.6411467842020321|-2.895104169845581|8.93558406829834|-9.07530403137207|-3.638003349304199|0.2831879258155823|3.665791749954224|XArbitraryZVertical|-0.3168517935358247|-0.004571312287735559|0.1081317000226175|0.942280087817946|0.05990853160619736|0.5981149077415466|-0.7991681098937988|0|0|0|-1|-1|3
2021-04-08 20:05:48.709 +0100|19406.776529|-3.812271118164062|0.50018310546875|-2.399032592773438|19406.776529|-0.01181613851125306|0.3402848449615482|-1.030925445519939|-16.78692245483398|12.04106712341309|-2.952180862426758|-3.778676271438599|0.1123182773590088|-0.5956486463546753|XArbitraryZVertical|-0.4849409257634514|0.1501893844077254|-0.0885301967816359|0.8569935255277434|0.1715588271617889|0.8577750325202942|-0.4845508933067322|0|0|0|-1|-1|3
2021-04-08 20:05:48.729 +0100|19406.79649|-4.104995727539062|-0.4290618896484375|1.244171142578125||||||||||||||||||||||||3
2021-04-08 20:05:48.749 +0100|19406.816451|-1.769622802734375|0.906768798828125|1.463104248046875|19406.79649|0.6361849091067722|1.163210555055627|-1.297056843719489|-19.57583808898926|9.706000328063965|2.471526384353638|-4.679616451263428|-1.820478081703186|0.5825470685958862|XArbitraryZVertical|-0.6163178478285092|0.2580172731280559|-0.1069031163095642|0.7363092149019004|0.248188391327858|0.962766706943512|-0.1071587949991226|0|0|0|-1|-1|3
2021-04-08 20:05:48.768 +0100|19406.836411|-0.4365234375|2.004714965820312|1.58575439453125|19406.816451|1.620657300328829|2.272527173226194|-1.173673669567599|-11.61834716796875|7.76510763168335|3.541316270828247|-2.286367177963257|-0.2227602601051331|0.9049288034439087|XArbitraryZVertical|-0.7079088753085018|0.3517128959573858|-0.09221344688948825|0.6055245122166824|0.2953841388225555|0.9221776723861694|0.2496738731861115|0|0|0|-1|-1|3
2021-04-08 20:05:48.788 +0100|19406.856372|2.1666259765625|1.839202880859375|2.265167236328125|19406.836411|1.729726756384452|2.542843232764283|-1.040177198884203|-1.234734296798706|8.949277877807617|1.88141143321991|-1.24923038482666|0.9810733199119568|1.501507997512817|XArbitraryZVertical|-0.7260920746461905|0.4263880031090567|-0.1132960714466312|0.5273971241270199|0.2852248549461365|0.8624939322471619|0.4180328547954559|0|0|0|-1|-1|3
2021-04-08 20:05:48.808 +0100|19406.876333|0.4621734619140625|0.5200347900390625|2.8367919921875|19406.856372|1.59449926233749|2.548700387846848|-1.091109765980886|8.118100166320801|2.867158889770508|0.2007749378681183|1.653308153152466|1.003912925720215|1.123978137969971|XArbitraryZVertical|-0.6908129489727797|0.4627585494092156|-0.1680667277801512|0.5295145304381219|0.2578694224357605|0.887139618396759|0.3827359974384308|0|0|0|-1|-1|3
2021-04-08 20:05:48.828 +0100|19406.896294|0.0889129638671875|0.2576141357421875|2.396713256835938|19406.876333|1.346089569003321|2.335062057076342|-1.229743437099366|7.577060222625732|-0.355875551700592|-1.246867418289185|0.6851919889450073|-0.1881301999092102|2.514814615249634|XArbitraryZVertical|-0.6453581391146122|0.4463676934991684|-0.2150543907017748|0.5813952809467228|0.2414579391479492|0.9424030184745789|0.2314624935388565|0|0|0|-1|-1|3
2021-04-08 20:05:48.848 +0100|19406.916255|0.455230712890625|1.136566162109375|1.639114379882812|19406.896294|1.150702897603714|2.150460437486047|-1.320708866743548|2.564426898956299|0.5439692139625549|-2.180820941925049|-0.2029425203800201|-0.7670623064041138|2.5539231300354|XArbitraryZVertical|-0.6227689836154886|0.4241923449825287|-0.2483747827658182|0.6087116064840475|0.207061380147934|0.9688907861709595|0.1355607062578201|0|0|0|-1|-1|3
2021-04-08 20:05:48.868 +0100|19406.936216|0.401336669921875|1.59185791015625|1.42547607421875|19406.916255|1.181336715755696|2.187253320246232|-1.369756140405789|0.4517821371555328|-0.02331214025616646|-2.170138597488403|0.2531418204307556|-0.0527348518371582|1.656125545501709|XArbitraryZVertical|-0.6244480576941757|0.409621708117351|-0.2686160596222519|0.6083752257953217|0.1629338413476944|0.9798594117164612|0.1154506430029869|0|0|0|-1|-1|3
2021-04-08 20:05:48.888 +0100|19406.956177|0.3370513916015625|1.490875244140625|1.213241577148438|19406.936216|1.227602768794701|2.222130092169313|-1.411983618961218|1.500394463539124|-1.042411923408508|-1.776985883712769|0.2995364964008331|0.5341604948043823|1.390085816383362|XArbitraryZVertical|-0.6281192363355329|0.3916687402597289|-0.2808171941372553|0.6109040027944805|0.1257706433534622|0.9874157309532166|0.09587635099887848|0|0|0|-1|-1|3
2021-04-08 20:05:48.908 +0100|19406.976137|0.15142822265625|1.250656127929688|0.9561309814453125|19406.956177|1.107710777465425|2.072769221519183|-1.463513438676016|2.57749605178833|-2.062999248504639|-1.603135585784912|0.2538632154464722|0.5650146007537842|1.202247977256775|XArbitraryZVertical|-0.6262084075304841|0.3655456308262549|-0.2897354387232512|0.6247342351430957|0.0938682034611702|0.9942507147789001|0.05152115598320961|0|0|0|-1|-1|3
2021-04-08 20:05:48.928 +0100|19406.996098|0.0193939208984375|0.9067535400390625|0.6365814208984375|19406.976137|0.5650963645877871|1.480283674485144|-1.501544044680831|2.814616680145264|-2.983961343765259|-1.031964302062988|0.1441725492477417|0.3167129158973694|1.052977561950684|XArbitraryZVertical|-0.6212223396717649|0.3330996909714541|-0.291311599967727|0.6467341559893086|0.06891534477472305|0.9976029992103577|-0.0062548010610044|0|0|0|-1|-1|3
2021-04-08 20:05:48.948 +0100|19407.016059|0.03045654296875|0.69989013671875|0.28326416015625|19406.996098|-0.2390414478911245|0.6180480197486001|-1.485577210911042|3.06627368927002|-2.991457223892212|-0.7597423791885376|-0.01859148591756821|0.0001044869422912598|0.7953556776046753|XArbitraryZVertical|-0.6129985827104036|0.2992430623682664|-0.2878950888729257|0.6721629179292031|0.04932161793112755|0.9963710308074951|-0.06937265396118164|0|0|0|-1|-1|3
2021-04-08 20:05:48.968 +0100|19407.03602|-0.036102294921875|0.668212890625|0.1932830810546875|19407.016059|-0.5680018719123332|0.2331630951264245|-1.438022851706714|2.507254123687744|-2.798772096633911|-0.5274364948272705|0.002781715244054794|-0.2728909254074097|0.4881467223167419|XArbitraryZVertical|-0.6034413873930073|0.267315445938199|-0.282948856755348|0.6959460863885932|0.03058817610144615|0.9911985397338867|-0.1288018822669983|0|0|0|-1|-1|3
2021-04-08 20:05:48.988 +0100|19407.055981|0.020111083984375|0.664398193359375|0.060455322265625|19407.03602|-0.6550217595843197|0.09422343329807578|-1.398896797722583|1.652144432067871|-2.500571489334106|-0.1506703495979309|-0.03690755367279053|-0.3098769783973694|0.3547595739364624|XArbitraryZVertical|-0.5973064993024388|0.2409919150510121|-0.2745885851393698|0.7139670882891221|0.01609349809587002|0.9852616190910339|-0.1702956855297089|0|0|0|-1|-1|3
2021-04-08 20:05:49.008 +0100|19407.075942|0.07745361328125|0.6758880615234375|-0.007904052734375|19407.055981|-0.6718000714682051|0.0285177794487357|-1.368943657259055|1.542897701263428|-2.50581169128418|-0.0471266508102417|-0.01150071620941162|-0.3096070289611816|0.3226267397403717|XArbitraryZVertical|-0.5932272756713444|0.2188143715275198|-0.2638586532851879|0.7284094411314543|0.00571660790592432|0.9796968102455139|-0.2004033476114273|0|0|0|-1|-1|3
2021-04-08 20:05:49.028 +0100|19407.095903|-0.003875732421875|0.6838226318359375|-0.29241943359375|19407.075942|-0.6764754804056835|-0.02968783743216255|-1.33676613018437|1.553504347801208|-2.887531280517578|0.02638911083340645|0.08439725637435913|-0.3154976367950439|0.2680993676185608|XArbitraryZVertical|-0.5884061148013141|0.1946256925929939|-0.2517183458600146|0.7433284249370594|-0.006883608642965555|0.9727396965026855|-0.2317981719970703|0|0|0|-1|-1|3
2021-04-08 20:05:49.048 +0100|19407.115864|-0.133392333984375|0.5047607421875|-0.2014007568359375|19407.095903|-0.6604531725080697|-0.07220988216857846|-1.303447686777688|1.848206758499146|-2.854289531707764|0.1869858950376511|0.03659087419509888|-0.2569244503974915|-0.0006725490093231201|XArbitraryZVertical|-0.5827165548419931|0.1694045896318314|-0.2369173818934939|0.7586921274349104|-0.01905950345098972|0.9644747376441956|-0.2634870111942291|0|0|0|-1|-1|3
2021-04-08 20:05:49.068 +0100|19407.135824|-0.1598052978515625|0.77447509765625|-0.3707427978515625|19407.115864|-0.6230319677147016|-0.0936336784874235|-1.269422383835437|1.607109785079956|-2.922421455383301|0.5706188678741455|-0.05961984395980835|-0.4276313781738281|0.07406708598136902|XArbitraryZVertical|-0.5753386032353883|0.1456682272717746|-0.2201240564044616|0.7741522926504861|-0.02775295078754425|0.954929530620575|-0.2955325245857239|0|0|0|-1|-1|3
2021-04-08 20:05:49.088 +0100|19407.155785|-0.0438385009765625|0.7449188232421875|-0.406646728515625|19407.135824|-0.5681035617485185|-0.0960104999439239|-1.24413988586628|1.340982794761658|-2.493195295333862|0.8560675382614136|-0.1446250975131989|-0.2278667688369751|-0.01888635754585266|XArbitraryZVertical|-0.5696523630441217|0.1256822929106363|-0.2006450866119459|0.7870461877396723|-0.03076035715639591|0.9471204876899719|-0.319400280714035|0|0|0|-1|-1|3
2021-04-08 20:05:49.108 +0100|19407.175746|-0.0831451416015625|0.690704345703125|-0.3997650146484375|19407.155785|-0.504798865019108|-0.08486740685065855|-1.211425680673956|1.95083475112915|-2.423967361450195|0.9910504817962646|-0.03613857924938202|-0.1759556531906128|-0.09962224960327148|XArbitraryZVertical|-0.5595216334484757|0.1082849617663573|-0.1817286678189726|0.8013643496233775|-0.02981082536280155|0.9361183643341064|-0.350419819355011|0|0|0|-1|-1|3
2021-04-08 20:05:49.128 +0100|19407.195707|-0.091766357421875|0.7835540771484375|-0.5536346435546875|19407.175746|-0.4420740728530211|-0.07571357670962521|-1.178749549393556|1.405006766319275|-2.455558061599731|1.020249128341675|-0.03466792404651642|-0.2212477922439575|0.01727834343910217|XArbitraryZVertical|-0.5488274052569164|0.09107927863627445|-0.1615968469978369|0.8150947865454481|-0.02890106663107872|0.9241289496421814|-0.3809860944747925|0|0|0|-1|-1|3
2021-04-08 20:05:49.148 +0100|19407.215668|-0.013824462890625|0.9496612548828125|-0.6033782958984375|19407.195707|-0.3886221683630918|-0.07226163053352046|-1.160607312191976|0.532891571521759|-2.079504251480103|0.9475363492965698|-0.07754769921302795|-0.1644358038902283|-0.1430131196975708|XArbitraryZVertical|-0.5434417278505518|0.07615716443875137|-0.1419428411536953|0.82384687168096|-0.02879164181649685|0.9170454740524292|-0.397742360830307|0|0|0|-1|-1|3
2021-04-08 20:05:49.168 +0100|19407.235629|-0.114410400390625|1.072677612304688|-0.6661529541015625|19407.215668|-0.3407816104727402|-0.06700677200994605|-1.157432600905547|0.02526737935841084|-1.854883313179016|0.9769521951675415|0.00574648380279541|-0.01343065500259399|-0.2085071206092834|XArbitraryZVertical|-0.5434816345536621|0.06505627477713428|-0.1238204599901107|0.8276859524285838|-0.02689596265554428|0.9157748222351074|-0.4007907807826996|0|0|0|-1|-1|3
2021-04-08 20:05:49.188 +0100|19407.25559|-0.1242828369140625|0.9398651123046875|-0.821136474609375|19407.235629|-0.2929401550487761|-0.06007262258481031|-1.159401229120303|-0.04672231152653694|-1.787850856781006|0.9070330262184143|-0.05028791725635529|0.1444106101989746|-0.2625904381275177|XArbitraryZVertical|-0.5453306818487277|0.0550534173393555|-0.1057735373738566|0.8296960654174401|-0.02400790341198444|0.9165638089179993|-0.3991671502590179|0|0|0|-1|-1|3
2021-04-08 20:05:49.207 +0100|19407.275551|0.0455169677734375|1.019790649414062|-0.723846435546875|19407.25559|-0.2556290205180858|-0.05548258132640466|-1.161859141974313|-0.1271392703056335|-1.150550365447998|0.5597369074821472|-0.1260673403739929|0.06461894512176514|-0.4219615161418915|XArbitraryZVertical|-0.5470707469818257|0.04692871044450236|-0.09141689190245358|0.8307552579968193|-0.02205046825110912|0.9175439476966858|-0.3970225751399994|0|0|0|-1|-1|3
2021-04-08 20:05:49.228 +0100|19407.295511|-0.0301513671875|1.155975341796875|-0.625701904296875|19407.275551|-0.236574996386421|-0.05729438753095539|-1.169758903341751|-0.601105809211731|-0.8819955587387085|0.2286477535963058|0.03646764159202576|0.05456364154815674|-0.3726559579372406|XArbitraryZVertical|-0.5508342587634764|0.04141217997780641|-0.08265196188705973|0.8294790096373172|-0.02235399559140205|0.9206565022468567|-0.3897333145141602|0|0|0|-1|-1|3
2021-04-08 20:05:49.248 +0100|19407.315472|-0.231109619140625|1.089675903320312|-0.48663330078125|19407.295511|-0.2346088110914007|-0.0759653995217241|-1.183501938593943|-0.6876622438430786|-1.192614078521729|-0.01998717710375786|0.05263423547148705|0.2122802138328552|-0.2654476165771484|XArbitraryZVertical|-0.5572705824521823|0.03393694403090091|-0.07602872599896943|0.8261462019530628|-0.02866338938474655|0.9259343147277832|-0.3765955567359924|0|0|0|-1|-1|3
2021-04-08 20:05:49.267 +0100|19407.335433|-0.2383880615234375|0.894927978515625|-0.359344482421875|19407.315472|-0.2466281214502781|-0.1124063243638773|-1.192380990746046|-0.2159576565027237|-1.334503889083862|-0.3506676256656647|-0.1600062549114227|0.1914156675338745|-0.1611106991767883|XArbitraryZVertical|-0.5620679467855484|0.02282611058322974|-0.07031923832992693|0.8237803182784342|-0.04144097864627838|0.9292512536048889|-0.3671171963214874|0|0|0|-1|-1|3
2021-04-08 20:05:49.288 +0100|19407.355394|-0.3119964599609375|0.7194061279296875|-0.475128173828125|19407.335433|-0.2737924382460046|-0.167256539968502|-1.193368508044854|-0.1025724858045578|-1.70822811126709|-0.6454604864120483|-0.1834147423505783|0.02065634727478027|-0.03286662697792053|XArbitraryZVertical|-0.5641299817805531|0.007963800074356672|-0.06599603212922886|0.8230057865247538|-0.06135217472910881|0.9296156167984009|-0.3633878827095032|0|0|0|-1|-1|3
2021-04-08 20:05:49.307 +0100|19407.375355|-0.5937652587890625|0.9862518310546875|-0.2893218994140625|19407.355394|-0.3134305920282288|-0.2443516567165426|-1.198159143614364|-0.6217477917671204|-2.344860076904297|-0.5400498509407043|-0.1713666021823883|-0.2017253041267395|-0.143124520778656|XArbitraryZVertical|-0.5685291342030343|-0.01206357832314798|-0.06005480967453702|0.8203796025699247|-0.08807924389839172|0.9313704371452332|-0.3532581925392151|0|0|0|-1|-1|3
2021-04-08 20:05:49.327 +0100|19407.395316|-0.7402191162109375|1.317413330078125|-0.5010223388671875|19407.375355|-0.3434171818767928|-0.3221139134611515|-1.216940511278589|-1.206550478935242|-2.62827205657959|0.07690510153770447|-0.4166546165943146|-0.01267397403717041|-0.1268545389175415|XArbitraryZVertical|-0.5784006266196499|-0.0332402219054064|-0.04806846314105676|0.8136567907397254|-0.1096979230642319|0.9380435943603516|-0.3286955952644348|0|0|0|-1|-1|3
2021-04-08 20:05:49.347 +0100|19407.415277|-0.4633636474609375|1.228561401367188|-0.248291015625|19407.395316|-0.3400232938593052|-0.3716501130601684|-1.238020608003707|-0.1933861970901489|-2.388893365859985|0.535481870174408|-0.605735182762146|0.3387814164161682|-0.1853940486907959|XArbitraryZVertical|-0.5874784753277674|-0.05182574181937869|-0.02977198579074241|0.8070297025655006|-0.11863062530756|0.9451392292976379|-0.304366260766983|0|0|0|-1|-1|3
2021-04-08 20:05:49.367 +0100|19407.435236875|-0.186004638671875|1.024459838867188|-0.0712127685546875|19407.415277|-0.2958210356267668|-0.3743985281782523|-1.228153786870148|1.392825245857239|-2.21510910987854|0.5084360837936401|-0.4326101839542389|0.3303622603416443|0.0321870744228363|XArbitraryZVertical|-0.5823722160478245|-0.06701346288060396|-0.01227830799374647|0.810062465068686|-0.1228712722659111|0.9418700933456421|-0.3127036094665527|0|0|0|-1|-1|3
2021-04-08 20:05:49.388 +0100|19407.455197875|-0.0794525146484375|0.9405670166015625|-0.1619415283203125|19407.455197875|-0.1795871685678732|-0.3722339698776009|-1.185280712558138|0.8086989521980286|-3.075328826904297|0.6967875957489014|0.03005857765674591|0.01767063140869141|0.2453514039516449|XArbitraryZVertical|-0.5604592481397208|-0.103648029694703|0.02984427572461141|0.8211284479181327|-0.1367636919021606|0.926604688167572|-0.3502850234508514|0|0|0|-1|-1|3
2021-04-08 20:05:49.407 +0100|19407.475158875|0.0140838623046875|1.00579833984375|-0.413421630859375||||||||||||||||||||||||3
2021-04-08 20:05:49.427 +0100|19407.495119875|0.18841552734375|1.139373779296875|-0.64044189453125|19407.475158875|-0.1296374987314156|-0.3869986748906085|-1.179344587692103|0.5748172998428345|-3.004413604736328|0.8429518342018127|0.1233331263065338|0.05641818046569824|-0.004517644643783569|XArbitraryZVertical|-0.5549166404064705|-0.124136897525489|0.0538780529317511|0.8208256664277501|-0.1439938396215439|0.9243561625480652|-0.3533151149749756|0|0|0|-1|-1|3
2021-04-08 20:05:49.447 +0100|19407.515080875|0.296905517578125|1.173721313476562|-0.957366943359375|19407.495119875|-0.06953292535011055|-0.3918696457662844|-1.174132860112143|0.8953673243522644|-3.116780281066895|1.115587592124939|0.2976820766925812|0.1924372315406799|-0.2131930589675903|XArbitraryZVertical|-0.5486279311453991|-0.1431039688847237|0.07938812778939067|0.8198941474045313|-0.1475511193275452|0.9223551750183105|-0.3570573031902313|0|0|0|-1|-1|3
2021-04-08 20:05:49.467 +0100|19407.535041875|0.509033203125|1.101226806640625|-1.309814453125|19407.515080875|0.01054417694198807|-0.3811157310922392|-1.16071414755675|1.517177939414978|-3.140486478805542|1.234365582466125|0.4128653407096863|0.2636528015136719|-0.5084442496299744|XArbitraryZVertical|-0.5375545957921871|-0.161230782042007|0.1081835087488504|0.8205706413592778|-0.1482934057712555|0.9170880913734436|-0.37007936835289|0|0|0|-1|-1|3
2021-04-08 20:05:49.487 +0100|19407.555002875|0.7980499267578125|1.08489990234375|-1.580123901367188|19407.535041875|0.1006744443462791|-0.3613601246373951|-1.13860249368051|1.823611497879028|-3.086386442184448|1.427028894424438|0.5962691307067871|0.2064229846000671|-0.8609634041786194|XArbitraryZVertical|-0.5219815569169006|-0.1778453977512716|0.1384327937857733|0.8226437659823973|-0.1480880826711655|0.9080490469932556|-0.3918125331401825|0|0|0|-1|-1|3
2021-04-08 20:05:49.507 +0100|19407.574963875|0.9268951416015625|1.031051635742188|-1.65185546875|19407.555002875|0.2030988961062534|-0.3311418999062272|-1.114023633782719|1.986174821853638|-3.216962337493896|1.912181377410889|0.8689980506896973|0.1886711120605469|-1.116460561752319|XArbitraryZVertical|-0.5045536089411456|-0.1920401763858871|0.1715553453425126|0.8240844314188464|-0.1433968991041183|0.8974806070327759|-0.4170924425125122|0|0|0|-1|-1|3
2021-04-08 20:05:49.527 +0100|19407.594923875|0.7183074951171875|0.953399658203125|-1.699798583984375|19407.574963875|0.3229302928739279|-0.2937775620441399|-1.089008538453839|2.010444164276123|-3.817809343338013|2.506619215011597|1.060095071792603|0.1614553928375244|-1.187971472740173|XArbitraryZVertical|-0.4856238683393484|-0.2059447669429671|0.2108625158439637|0.8229783697213525|-0.1341764330863953|0.8861679434776306|-0.4435124099254608|0|0|0|-1|-1|3
2021-04-08 20:05:49.547 +0100|19407.614884875|0.52508544921875|0.8293304443359375|-1.619583129882812|19407.594923875|0.4569655003776932|-0.2586635486092903|-1.065757315176574|1.984938502311707|-4.398581027984619|2.908617973327637|0.9086124897003174|0.09861516952514648|-1.213939785957336|XArbitraryZVertical|-0.4655179611149714|-0.2223066658386176|0.2572826361010061|0.817115958111846|-0.123761273920536|0.8751556277275085|-0.4677455425262451|0|0|0|-1|-1|3
2021-04-08 20:05:49.567 +0100|19407.634845875|0.22412109375|0.5789031982421875|-1.445281982421875|19407.614884875|0.5937831887340879|-0.2300457061508704|-1.039155110382444|2.260509729385376|-4.636397361755371|3.014768600463867|0.6932324767112732|0.006783604621887207|-1.164486289024353|XArbitraryZVertical|-0.442509200137926|-0.2395594468261071|0.3067546595073788|0.8078976278203441|-0.1155954971909523|0.8619762063026428|-0.4935937523841858|0|0|0|-1|-1|3
2021-04-08 20:05:49.587 +0100|19407.654806875|-0.0295257568359375|0.294677734375|-1.531158447265625|19407.634845875|0.7241821838119923|-0.209781808425974|-1.006964093453367|2.267922878265381|-4.435067653656006|2.802387952804565|0.4083515107631683|-0.1936165690422058|-0.9621497392654419|XArbitraryZVertical|-0.4162286406004272|-0.2557292223826508|0.3558073863498692|0.7967166456043997|-0.1112930104136467|0.8452132940292358|-0.5227125883102417|0|0|0|-1|-1|3
2021-04-08 20:05:49.607 +0100|19407.674767875|-0.54449462890625|-0.0363006591796875|-2.189590454101562|19407.654806875|0.8268700077818329|-0.2045952733364393|-0.9762799679366867|1.839356184005737|-3.653141975402832|1.935264825820923|0.1540050953626633|-0.4636422395706177|-0.9104505181312561|XArbitraryZVertical|-0.3909895570732986|-0.2700260798277638|0.3968369049254194|0.7853238640544136|-0.1137976795434952|0.8284195065498352|-0.5484261512756348|0|0|0|-1|-1|3
2021-04-08 20:05:49.627 +0100|19407.694728875|-1.737380981445312|-0.3820648193359375|-3.017868041992188|19407.674767875|0.8801761993281316|-0.2163959868693051|-0.9472377545320083|1.799750566482544|-1.492308497428894|0.3372797071933746|-0.2686971426010132|-0.7750312685966492|-1.356554508209229|XArbitraryZVertical|-0.3692953901860573|-0.280118354097903|0.421468155235779|0.7794352916077116|-0.1253757625818253|0.8118056654930115|-0.5703092217445374|0|0|0|-1|-1|3
2021-04-08 20:05:49.647 +0100|19407.714689875|-3.050430297851562|0.09454345703125|-2.624221801757812|19407.694728875|0.8802224944393064|-0.2064529316224281|-0.9062466976856965|2.323996543884277|2.772633075714111|-1.000807166099548|-1.103729844093323|-1.053398728370667|-2.239545583724976|XArbitraryZVertical|-0.354479079672434|-0.2693330866305627|0.4218179365282393|0.7898569890478335|-0.1264179795980453|0.7871946096420288|-0.6036085486412048|0|0|0|-1|-1|3
2021-04-08 20:05:49.667 +0100|19407.734650875|-2.7415771484375|-0.216033935546875|-0.9430999755859375|19407.714689875|0.8427409003348758|-0.129408811813657|-0.8398866584711566|4.209458827972412|7.601698398590088|-2.943779468536377|-2.782430171966553|-0.890516996383667|-2.112081527709961|XArbitraryZVertical|-0.347119068046064|-0.2202853128951786|0.3967479307250726|0.8207154723847576|-0.08614558726549149|0.7445674538612366|-0.6619654893875122|0|0|0|-1|-1|3
2021-04-08 20:05:49.687 +0100|19407.754610875|-1.86700439453125|-0.4607696533203125|0.334197998046875|19407.734650875|0.7209135227990382|-0.03043871472115294|-0.7402691060668048|4.607605934143066|10.27469730377197|-6.335724830627441|-2.851187944412231|-0.6625533103942871|-0.6560055017471313|XArbitraryZVertical|-0.3334504889507751|-0.1408481445981036|0.3339296065177237|0.870323933842874|-0.0224690418690443|0.6744866371154785|-0.7379451394081116|0|0|0|-1|-1|3
2021-04-08 20:05:49.706 +0100|19407.774571875|-1.721649169921875|-0.5220184326171875|0.4344024658203125|19407.754610875|0.5172204322791214|0.04777348143658265|-0.6593817047981669|3.643396377563477|10.27338886260986|-9.139182090759277|-2.162637710571289|-1.065767526626587|0.9457354545593262|XArbitraryZVertical|-0.3186745124858509|-0.06092478384991189|0.234419337291168|0.9163964619243941|0.0377444215118885|0.6126282811164856|-0.7894694805145264|0|0|0|-1|-1|3
2021-04-08 20:05:49.727 +0100|19407.794532875|-1.478485107421875|0.235321044921875|0.1433868408203125|19407.774571875|0.275432486216981|0.1019190258702658|-0.630726245800603|0.3614637851715088|9.977968215942383|-9.823347091674805|-1.719222068786621|-1.111169099807739|1.361575722694397|XArbitraryZVertical|-0.3134741932580865|0.005442794694993263|0.1146924536837032|0.9426293085290165|0.08216732740402222|0.5897314548492432|-0.8034086227416992|0|0|0|-1|-1|3
2021-04-08 20:05:49.747 +0100|19407.814493875|-3.071243286132812|1.20806884765625|-0.1341094970703125|19407.794532875|0.02463749733842641|0.1536109412604852|-0.6899700143542316|-4.293950080871582|9.475897789001465|-10.60780906677246|-1.699400424957275|-0.704033374786377|1.004646301269531|XArbitraryZVertical|-0.3380494655926983|0.068050005864926|-0.01438830184864288|0.9385546675292997|0.1180093884468079|0.6365140676498413|-0.7621834874153137|0|0|0|-1|-1|3
2021-04-08 20:05:49.767 +0100|19407.834454875|-5.67926025390625|1.8424072265625|0.8628692626953125|19407.814493875|-0.2290760091867892|0.1559125232944932|-0.8662215220381589|-8.498282432556152|9.150365829467773|-9.192361831665039|-2.303153991699219|0.3553315997123718|0.4711527824401855|XArbitraryZVertical|-0.4076014606453994|0.1180437832762906|-0.1358905309208618|0.8952433068947706|0.1005774587392807|0.7618870139122009|-0.6398534178733826|0|0|0|-1|-1|3
2021-04-08 20:05:49.786 +0100|19407.854415875|-1.383514404296875|-1.7821044921875|1.19268798828125|19407.834454875|-0.4293749895175481|0.2065679909442647|-1.086161599019932|-11.28704261779785|11.50767803192139|-6.82058572769165|-5.824833393096924|1.286419868469238|1.268725633621216|XArbitraryZVertical|-0.4834170894860395|0.1957483468657586|-0.2334744051728543|0.8206585396046394|0.09555406868457794|0.8848451972007751|-0.4559810161590576|0|0|0|-1|-1|3
2021-04-08 20:05:49.806 +0100|19407.874376875|-0.704437255859375|1.905364990234375|1.449859619140625|19407.854415875|-0.463641043940157|0.3381779221118112|-1.42536268478813|-22.79848670959473|4.889591693878174|-2.591871500015259|-2.5370192527771|-2.384599685668945|0.9170189499855042|XArbitraryZVertical|-0.598044697553492|0.2720022644532376|-0.2784435505018996|0.7005902784201021|0.04808090627193451|0.9894431829452515|-0.1367146223783493|0|0|0|-1|-1|3
2021-04-08 20:05:49.826 +0100|19407.894337875|-1.319992065429688|5.36798095703125|-1.71923828125|19407.874376875|2.147237710500224|2.999480125725891|-1.178271246642584|-26.58145713806152|1.636051774024963|2.369463205337524|-0.4953722357749939|-0.3064380288124084|1.254801988601685|XArbitraryZVertical|-0.7477339405143253|0.360870409328663|-0.21246151025048|0.5152928869074885|0.05417854711413383|0.9239460825920105|0.3786669969558716|0|0|0|-1|-1|3
2021-04-08 20:05:49.846 +0100|19407.914297875|-0.056182861328125|1.103744506835938|1.210723876953125|19407.894337875|2.146336146041394|3.008427487362666|-0.8093201288441414|-4.722537994384766|-0.6759189963340759|3.531488180160522|-1.735899686813354|4.356320858001709|-0.8404828906059265|XArbitraryZVertical|-0.8184627656409005|0.4148010178704646|-0.1337741717462228|0.3743841121641228|0.09161146730184555|0.7238182425498962|0.6838823556900024|0|0|0|-1|-1|3
2021-04-08 20:05:49.866 +0100|19407.934258875|-1.233444213867188|-1.621566772460938|1.814437866210938|19407.914297875|1.995526161137043|2.921131307293185|-0.9765048297756432|15.89269733428955|-0.604249119758606|0.8721845746040344|-0.1319815367460251|1.486213207244873|-0.5958543419837952|XArbitraryZVertical|-0.7655535149730016|0.4325656467149137|-0.1711511279424649|0.4444347802447875|0.1224437430500984|0.8285453915596008|0.5463704466819763|0|0|0|-1|-1|3
2021-04-08 20:05:49.886 +0100|19407.954219875|-1.3446044921875|1.053451538085938|1.735137939453125|19407.934258875|1.825542275313425|2.730610949090921|-1.237267667729255|10.01917552947998|-1.854395508766174|-0.2395567297935486|-0.8030641078948975|-2.365669250488281|1.658439040184021|XArbitraryZVertical|-0.7033747318903376|0.3941106503446792|-0.2156704489200207|0.5508422053311237|0.1307912766933441|0.9448930025100708|0.3001184463500977|0|0|0|-1|-1|3
2021-04-08 20:05:49.906 +0100|19407.974180875|0.6969451904296875|1.569854736328125|1.4937744140625|19407.954219875|1.645331539333575|2.55241406495516|-1.34878280071725|3.004704713821411|0.9621163010597229|-1.336560249328613|-1.814314007759094|-0.6148907542228699|1.674185276031494|XArbitraryZVertical|-0.6711765519061641|0.3755750367093856|-0.2402510367850105|0.5922372244151723|0.1223573088645935|0.9754560589790344|0.1830691397190094|0|0|0|-1|-1|3
2021-04-08 20:05:49.926 +0100|19407.994141875|0.2363128662109375|1.214263916015625|1.080245971679688|19407.974180875|1.652347285800441|2.561229144872943|-1.398622473393552|1.503883004188538|-1.687401056289673|-0.8047738075256348|0.2147108763456345|0.6557464003562927|1.380728721618652|XArbitraryZVertical|-0.6640363589293138|0.3615142482008517|-0.2569705559155569|0.6019381434491777|0.09394284337759018|0.9852146506309509|0.1432736814022064|0|0|0|-1|-1|3
2021-04-08 20:05:49.946 +0100|19408.014102875|0.087005615234375|0.9786224365234375|0.6138916015625|19407.994141875|1.608859777910222|2.463470369229468|-1.433352423505539|1.914311170578003|-2.913403272628784|-1.08218789100647|0.3749529123306274|0.3152170181274414|1.103154897689819|XArbitraryZVertical|-0.6637984078142407|0.3357402177893408|-0.2489551089953005|0.6202191448102873|0.0859530121088028|0.9905694723129272|0.106699638068676|0|0|0|-1|-1|3
2021-04-08 20:05:49.966 +0100|19408.034063875|0.1918792724609375|1.206695556640625|0.4141387939453125|19408.014102875|1.522152405869138|2.331455777970978|-1.481131126202847|2.184382438659668|-1.75915253162384|-1.289419889450073|-0.02704127877950668|0.01001423597335815|0.6562533378601074|XArbitraryZVertical|-0.6603929623030312|0.3078119839338881|-0.2484029409023754|0.6383017479695705|0.06486674398183823|0.9959827661514282|0.0617341659963131|0|0|0|-1|-1|3
2021-04-08 20:05:49.986 +0100|19408.054023875|0.176116943359375|1.348419189453125|0.423614501953125|19408.034063875|1.176682903187741|1.956866257041155|-1.527180106408536|2.25602912902832|-1.313279747962952|-1.183440804481506|0.1433652341365814|0.1261495351791382|0.4213404655456543|XArbitraryZVertical|-0.6537672782890351|0.284249969985595|-0.2534096857684294|0.6538913774738278|0.04039528593420982|0.9990489482879639|0.01641939952969551|0|0|0|-1|-1|3
2021-04-08 20:05:50.006 +0100|19408.073984875|0.220001220703125|1.075759887695312|0.44940185546875|19408.054023875|-0.08638166096652125|0.6680739260173882|-1.527830140547113|2.771529912948608|-1.405100226402283|-0.1932171881198883|0.1572260856628418|0.3539199233055115|0.4641880989074707|XArbitraryZVertical|-0.6426852136918546|0.264754152441002|-0.2560416779409893|0.6717914790566213|0.02661076560616493|0.9990770816802979|-0.03372190892696381|0|0|0|-1|-1|3
2021-04-08 20:05:50.026 +0100|19408.093945875|0.338226318359375|0.839111328125|0.29388427734375|19408.073984875|-0.4843524025267736|0.2430172658243727|-1.474764702971946|2.899632692337036|-1.410935521125793|-0.0640782043337822|0.1604281365871429|0.177672803401947|0.5348404049873352|XArbitraryZVertical|-0.6264022657552033|0.2471567692449172|-0.2553277133752396|0.693787848621781|0.02307301014661789|0.9953925013542175|-0.093067467212677|0|0|0|-1|-1|3
2021-04-08 20:05:50.046 +0100|19408.113906875|0.112518310546875|1.125900268554688|0.08984375|19408.093945875|-0.5354253048652606|0.1597365688278133|-1.432357791373875|1.155173301696777|-1.809803128242493|0.4236166179180145|0.337927907705307|-0.1311490535736084|0.4835768342018127|XArbitraryZVertical|-0.6151831799297395|0.2311480242356217|-0.2494137942692047|0.7112756798486409|0.02194959484040737|0.9904326796531677|-0.1362404972314835|0|0|0|-1|-1|3
2021-04-08 20:05:50.066 +0100|19408.133867875|0.074981689453125|1.325302124023438|-0.1339111328125|19408.113906875|-0.4608887775319169|0.1972290432688027|-1.42228166641571|0.01608285121619701|-1.819384098052979|0.828657329082489|0.1254228949546814|0.03597152233123779|0.2528131008148193|XArbitraryZVertical|-0.615319724767541|0.2209778937109108|-0.2347693678685976|0.7193286977750522|0.02899503521621227|0.9889919757843018|-0.1451008170843124|0|0|0|-1|-1|3
2021-04-08 20:05:50.086 +0100|19408.153828875|0.047454833984375|1.064453125|-0.298004150390625|19408.133867875|-0.3480577797003914|0.2707382684614112|-1.410201470497621|0.9549225568771362|-1.954086542129517|1.089813113212585|0.04904532432556152|0.327733039855957|0.05190920829772949|XArbitraryZVertical|-0.6146853157681489|0.2124175222227217|-0.2168018509891903|0.728037005533676|0.04276580363512039|0.9871323108673096|-0.1540815234184265|0|0|0|-1|-1|3
2021-04-08 20:05:50.106 +0100|19408.173789875|0.1463165283203125|0.6618194580078125|-0.41632080078125|19408.153828875|-0.2871916781128675|0.290860073136745|-1.374695737560499|2.157119750976562|-2.033059120178223|0.8610714673995972|-0.00717226043343544|0.2037672400474548|-0.06083457171916962|XArbitraryZVertical|-0.6053010054494915|0.2006975104353592|-0.2004435802844372|0.7437429930420769|0.05587733164429665|0.9808338284492493|-0.1866624057292938|0|0|0|-1|-1|3
2021-04-08 20:05:50.126 +0100|19408.193750875|0.4521942138671875|0.562713623046875|-0.430755615234375|19408.173789875|-0.2806954865554537|0.2585541160009051|-1.328141408084003|2.077894687652588|-1.788628935813904|0.563449501991272|0.03847791999578476|-0.2212525606155396|-0.1544547379016876|XArbitraryZVertical|-0.5909735055319497|0.186019874625325|-0.1879147197403083|0.7621253047022529|0.06143566593527794|0.9707034826278687|-0.2322938442230225|0|0|0|-1|-1|3
2021-04-08 20:05:50.147 +0100|19408.213710875|0.5094146728515625|0.90643310546875|-0.5660858154296875|19408.193750875|-0.2804904423997213|0.2249721080230774|-1.29214303172651|1.378628492355347|-1.750469207763672|0.387267678976059|0.3052462339401245|-0.42674320936203|-0.1201598644256592|XArbitraryZVertical|-0.5798471500123503|0.1723726073818187|-0.1778238339634561|0.7761724968143148|0.06136046722531319|0.9614267349243164|-0.2681299448013306|0|0|0|-1|-1|3
2021-04-08 20:05:50.166 +0100|19408.233671875|0.2890472412109375|0.941436767578125|-0.618896484375|19408.213710875|-0.2685903065230952|0.1971863467765486|-1.26567952279955|1.298779010772705|-2.166300296783447|0.5171152353286743|0.4821163415908813|-0.1327361464500427|-0.2560293972492218|XArbitraryZVertical|-0.5726379870290543|0.1574613202197012|-0.1651325562466398|0.7874153570054389|0.05885257571935654|0.9538118839263916|-0.2945833504199982|0|0|0|-1|-1|3
2021-04-08 20:05:50.186 +0100|19408.253632875|0.1384735107421875|0.7782440185546875|-0.6696624755859375|19408.233671875|-0.2509684452967303|0.1670450081287738|-1.234681978634878|1.598472476005554|-2.478832483291626|0.5145481824874878|0.2949676513671875|0.02604979276657104|-0.2736455500125885|XArbitraryZVertical|-0.5638013846035621|0.1396877607372097|-0.1496109659662727|0.8001450005459355|0.05483918637037277|0.9440433382987976|-0.3252306580543518|0|0|0|-1|-1|3
2021-04-08 20:05:50.206 +0100|19408.273593875|0.1524200439453125|0.6015777587890625|-0.7547454833984375|19408.253632875|-0.2363048800489935|0.1316140920098469|-1.205324814680466|1.169025301933289|-2.416553258895874|0.3943842649459839|0.1188687533140182|-0.1071269512176514|-0.316415548324585|XArbitraryZVertical|-0.5552814334075939|0.1204698258387935|-0.1339160184500377|0.8119213234292898|0.0469018816947937|0.9339553713798523|-0.3542990982532501|0|0|0|-1|-1|3
2021-04-08 20:05:50.226 +0100|19408.293554875|0.2774810791015625|0.5634918212890625|-0.7586517333984375|19408.273593875|-0.2261620261157991|0.09427612550724504|-1.184962218860112|0.9066545367240906|-2.21144437789917|0.2364471852779388|0.103213906288147|-0.3008283376693726|-0.3672661781311035|XArbitraryZVertical|-0.5498271363577666|0.1017818812922991|-0.1196484961252706|0.8203748921590079|0.03542662039399147|0.9264848828315735|-0.3746611475944519|0|0|0|-1|-1|3
2021-04-08 20:05:50.246 +0100|19408.313515875|0.1815185546875|0.5764923095703125|-0.678009033203125|19408.293554875|-0.2188294355343158|0.05712148691476157|-1.165608420144721|1.01347804069519|-2.238486528396606|0.1995341777801514|0.2232069224119186|-0.3492647409439087|-0.3535055816173553|XArbitraryZVertical|-0.5442495891683313|0.08377387876559582|-0.1067562430953546|0.8278752901206099|0.02250456623733044|0.9190283417701721|-0.3935486376285553|0|0|0|-1|-1|3
2021-04-08 20:05:50.265 +0100|19408.333476875|-0.01104736328125|0.6967926025390625|-0.5221710205078125|19408.313515875|-0.2091784821173196|0.02038327583895271|-1.147026417078237|0.7790677547454834|-2.301313877105713|0.2447659969329834|0.2215223908424377|-0.3449249267578125|-0.3218556642532349|XArbitraryZVertical|-0.5386996270815538|0.06515635905292776|-0.09318982035750119|0.8347893439605905|0.008381025865674019|0.9115452170372009|-0.4111147224903107|0|0|0|-1|-1|3
2021-04-08 20:05:50.285 +0100|19408.353436875|-0.245269775390625|0.6973114013671875|-0.4022674560546875|19408.333476875|-0.1967030771721503|-0.01590878921566634|-1.13919017506981|0.08268659561872482|-2.499416351318359|0.2973774671554565|0.04591498523950577|-0.2310485243797302|-0.1118579804897308|XArbitraryZVertical|-0.5373256798311324|0.04628685612482469|-0.07841870256655155|0.8384444883047937|-0.006654846481978893|0.9082950353622437|-0.4182772934436798|0|0|0|-1|-1|3
2021-04-08 20:05:50.306 +0100|19408.373397875|-0.3723297119140625|0.5420074462890625|-0.3318939208984375|19408.353436875|-0.1825507325505979|-0.05494652246656243|-1.138214395874152|0.04060405865311623|-2.685364723205566|0.2790814638137817|-0.1699709445238113|-0.2041963338851929|-0.004175245761871338|XArbitraryZVertical|-0.5385435542851273|0.02605590088491815|-0.06201175144403072|0.8399087113855893|-0.02302290126681328|0.9078863859176636|-0.418583869934082|0|0|0|-1|-1|3
2021-04-08 20:05:50.325 +0100|19408.393358875|-0.4541168212890625|0.57208251953125|-0.2439727783203125|19408.373397875|-0.1726075394226242|-0.09969271179449743|-1.137237970883848|0.0296327993273735|-2.763167381286621|0.1198602914810181|-0.3130624890327454|-0.3138635158538818|0.06625676155090332|XArbitraryZVertical|-0.5394174249368834|0.004527426193348522|-0.04581327459382195|0.8407790971708592|-0.04181182757019997|0.9074766039848328|-0.4180167019367218|0|0|0|-1|-1|3
2021-04-08 20:05:50.345 +0100|19408.413319875|-0.5892181396484375|0.8919525146484375|-0.3462677001953125|19408.393358875|-0.1686691968845538|-0.1550773170766128|-1.144193190010866|-0.8327216506004333|-3.146616220474243|0.2193921208381653|-0.3632592260837555|-0.3987030982971191|0.1420775055885315|XArbitraryZVertical|-0.5433367471698628|-0.01942796150609888|-0.02882098748952613|0.8387951180716153|-0.06391116231679916|0.9103765487670898|-0.4088154733181|0|0|0|-1|-1|3
2021-04-08 20:05:50.365 +0100|19408.43328075|-0.6739654541015625|1.148544311523438|-0.2701568603515625|19408.413319875|-0.1582506403041718|-0.2111286178329183|-1.164699285933061|-0.8125458955764771|-3.319765567779541|0.5458757281303406|-0.4700431823730469|-0.1105483770370483|0.03892070055007935|XArbitraryZVertical|-0.5521706887374276|-0.04449487762680715|-0.007876913164401594|0.8325057566707137|-0.0827832818031311|0.918669581413269|-0.3862554728984833|0|0|0|-1|-1|3
2021-04-08 20:05:50.385 +0100|19408.45324175|-0.675384521484375|1.010833740234375|-0.31939697265625|19408.43328075|-0.1253689880403419|-0.2469302152483462|-1.17437947914835|0.2849332094192505|-3.258819103240967|0.8740013837814331|-0.5601791143417358|0.1889848709106445|0.1178281605243683|XArbitraryZVertical|-0.5551489849649799|-0.06788075061525771|0.0163411874680407|0.8288152768994337|-0.09437762200832367|0.9224504232406616|-0.3744036257266998|0|0|0|-1|-1|3
2021-04-08 20:05:50.405 +0100|19408.47320275|-0.5792236328125|0.6533050537109375|-0.351226806640625|19408.45324175|-0.07168666747769258|-0.2581039064185766|-1.157681688932392|1.758121609687805|-2.826812505722046|0.7217872142791748|-0.5873316526412964|0.1745187044143677|0.07101303339004517|XArbitraryZVertical|-0.5460168707553849|-0.08821921227702714|0.04060884945622514|0.8321262033201836|-0.1024728044867516|0.9158748388290405|-0.3881658911705017|0|0|0|-1|-1|3
2021-04-08 20:05:50.425 +0100|19408.49316375|-0.340789794921875|0.5958709716796875|-0.57781982421875|19408.47320275|-0.01822584460334933|-0.262644863152968|-1.126464800424747|1.509112596511841|-2.486233711242676|0.6122426986694336|-0.500882625579834|-0.1713913679122925|0.07318028807640076|XArbitraryZVertical|-0.5303117274201226|-0.1058904275667265|0.0622728345431374|0.8388556892986954|-0.1116055473685265|0.9028981924057007|-0.4151133894920349|0|0|0|-1|-1|3
2021-04-08 20:05:50.445 +0100|19408.51312375|-0.091705322265625|1.082412719726562|-0.82696533203125|19408.49316375|0.01781983595370821|-0.2787374054706738|-1.116834270573442|-0.1897822469472885|-2.41799521446228|0.6853203177452087|-0.2858669757843018|-0.3400003910064697|-0.08956420421600342|XArbitraryZVertical|-0.5236364668795439|-0.1224859676056708|0.08108507627877129|0.8391824948662945|-0.1206579506397247|0.8987166881561279|-0.4216040670871735|0|0|0|-1|-1|3
2021-04-08 20:05:50.465 +0100|19408.53308475|0.2311248779296875|1.379165649414062|-1.303390502929688|19408.51312375|0.04228702496453623|-0.3048212280710457|-1.134354482292202|-0.8781390786170959|-2.399866342544556|0.8272008895874023|-0.02025836706161499|0.03567928075790405|-0.306576669216156|XArbitraryZVertical|-0.5281996557849354|-0.1392474905879025|0.09917309511225131|0.8317331076486285|-0.1268671005964279|0.9062615036964417|-0.4032305181026459|0|0|0|-1|-1|3
2021-04-08 20:05:50.485 +0100|19408.55304575|0.644805908203125|1.262176513671875|-1.717819213867188|19408.53308475|0.07182141538462279|-0.322190073981192|-1.146469880251328|0.2361371219158173|-2.025015115737915|0.6955803632736206|0.2531521618366241|0.4329376816749573|-0.7844185829162598|XArbitraryZVertical|-0.5301470763729983|-0.1538925889247443|0.1167102210222489|0.8256148239259945|-0.1303648352622986|0.9113162755966187|-0.390522301197052|0|0|0|-1|-1|3
2021-04-08 20:05:50.505 +0100|19408.57300675|0.6984100341796875|1.08758544921875|-1.915847778320312|19408.55304575|0.1173158817425696|-0.3208484871523539|-1.136437109016009|1.211077570915222|-2.080746412277222|0.8708239793777466|0.7029995918273926|0.4081377387046814|-1.245084762573242|XArbitraryZVertical|-0.5224148818633753|-0.1655469878204818|0.1345892681967615|0.825568166655236|-0.1327177733182907|0.9071398973464966|-0.3993537724018097|0|0|0|-1|-1|3
2021-04-08 20:05:50.525 +0100|19408.59296775|0.7903289794921875|0.927001953125|-1.9852294921875|19408.57300675|0.1917570969594501|-0.2982542671545914|-1.117039695411701|1.589507579803467|-2.296951532363892|1.541500210762024|0.8379607796669006|0.2226690649986267|-1.481793403625488|XArbitraryZVertical|-0.5095809803265359|-0.1755870727140794|0.1586562207043573|0.8272392585020222|-0.1288086473941803|0.8988067507743835|-0.418992817401886|0|0|0|-1|-1|3
2021-04-08 20:05:50.545 +0100|19408.61292875|0.7341766357421875|0.7670440673828125|-1.762481689453125|19408.59296775|0.2828796825832743|-0.2621217372105967|-1.092709874895336|1.844144582748413|-2.329402923583984|1.731608390808105|0.8770334720611572|0.09916895627975464|-1.577697277069092|XArbitraryZVertical|-0.4942354770117803|-0.1831619931528202|0.1866373087226748|0.8290655468474121|-0.1192210391163826|0.8878769278526306|-0.4443659484386444|0|0|0|-1|-1|3
