loggingTime(txt)|accelerometerTimestamp_sinceReboot(s)|accelerometerAccelerationX(G)|accelerometerAccelerationY(G)|accelerometerAccelerationZ(G)|motionTimestamp_sinceReboot(s)|motionYaw(rad)|motionRoll(rad)|motionPitch(rad)|motionRotationRateX(rad/s)|motionRotationRateY(rad/s)|motionRotationRateZ(rad/s)|motionUserAccelerationX(G)|motionUserAccelerationY(G)|motionUserAccelerationZ(G)|motionAttitudeReferenceFrame(txt)|motionQuaternionX(R)|motionQuaternionY(R)|motionQuaternionZ(R)|motionQuaternionW(R)|motionGravityX(G)|motionGravityY(G)|motionGravityZ(G)|motionMagneticFieldX(µT)|motionMagneticFieldY(µT)|motionMagneticFieldZ(µT)|motionHeading(°)|motionMagneticFieldCalibrationAccuracy(Z)|label
2021-04-22 22:19:29.297 +0100|141637.71740475|0.021942138671875|-0.3041534423828125|-0.9615631103515625|141637.69744475|-2.341894364004232|0.02703407831291472|0.2976735595781581|-0.1723301857709885|-0.04527829959988594|-0.06086030229926109|-0.04744875431060791|-0.01334479451179504|0.00132673978805542|XArbitraryZVertical|-0.07003292574412992|0.1313748134891972|0.9100726560084504|-0.3867868152799555|0.02584201097488403|-0.2932968735694885|-0.9556720852851868|0|0|0|-1|-1|3
2021-04-22 22:19:29.308 +0100|141637.73736475|-0.0069122314453125|-0.25604248046875|-0.9522705078125|141637.71740475|-2.343024029091014|0.02573831587956806|0.2961379407246205|-0.174304336309433|-0.07356655597686768|-0.06828732043504715|-0.00497746467590332|-0.01853638887405396|-0.006843209266662598|XArbitraryZVertical|-0.069075093844296|0.1309644539776754|0.9104444811591075|-0.3862225448964932|0.02461522631347179|-0.291828453540802|-0.9561538696289062|0|0|0|-1|-1|3
2021-04-22 22:19:29.309 +0100|141637.75732475|0.0092315673828125|-0.2921295166015625|-0.9527740478515625|141637.73736475|-2.344471798342791|0.02531931640501961|0.29334745814994|-0.07072043418884277|-0.04563393816351891|-0.06926815956830978|-0.03310077637434006|0.0208924412727356|0.003071606159210205|XArbitraryZVertical|-0.06825629808498818|0.1298223255477365|0.9109339077286375|-0.3855994472646531|0.02423511818051338|-0.2891582846641541|-0.9569745063781738|0|0|0|-1|-1|3
2021-04-22 22:19:29.317 +0100|141637.77728475|0.0233917236328125|-0.292724609375|-0.9666290283203125|141637.75732475|-2.345776677706242|0.0247063666830732|0.2930864840481169|-0.0564923994243145|-0.04048029333353043|-0.0683039203286171|-0.01182513684034348|0.01052606105804443|0.00603032112121582|XArbitraryZVertical|-0.06784252383121304|0.1298657405783543|0.9112243137950121|-0.3849711004462951|0.0236504003405571|-0.288908451795578|-0.9570645689964294|0|0|0|-1|-1|3
2021-04-22 22:19:29.337 +0100|141637.79724475|0.01971435546875|-0.264251708984375|-0.95660400390625|141637.77728475|-2.346910531199193|0.02371662982707482|0.2920678633904392|-0.1193582266569138|-0.05673255398869514|-0.04840389639139175|-0.006795497611165047|-0.002305328845977783|-0.006745040416717529|XArbitraryZVertical|-0.06712368011346716|0.1296294965157077|0.9115466072066577|-0.3844133260797611|0.02271011471748352|-0.2879331409931183|-0.9573811888694763|0|0|0|-1|-1|3
2021-04-22 22:19:29.357 +0100|141637.81720475|0.03094482421875|-0.2618560791015625|-0.959197998046875|141637.79724475|-2.34775577197226|0.02231301926415772|0.2900452734348923|-0.1077143251895905|-0.05557833984494209|-0.05599354952573776|0.001600190997123718|-0.008378028869628906|-0.002105534076690674|XArbitraryZVertical|-0.06604375131886452|0.1290039517018974|0.9118953629054832|-0.3839833147250381|0.0213792510330677|-0.2859956026077271|-0.9579924345016479|0|0|0|-1|-1|3
2021-04-22 22:19:29.377 +0100|141637.83716575|0.0305328369140625|-0.2713623046875|-0.9794158935546875|141637.81720475|-2.348498869149299|0.020952236237269|0.2881579203513279|-0.08089601248502731|-0.06017900630831718|-0.0400763675570488|0.006615698337554932|0.03500950336456299|-5.930662155151367e-05|XArbitraryZVertical|-0.06501591045463342|0.1284276095186882|0.9122118119443624|-0.3836000626054301|0.02008688449859619|-0.2841865718364716|-0.9585585594177246|0|0|0|-1|-1|3
2021-04-22 22:19:29.397 +0100|141637.85712575|0.023468017578125|-0.280731201171875|-0.9844512939453125|141637.83716575|-2.349180174495622|0.01963779563330241|0.286148802541034|-0.09096071124076843|-0.07235699892044067|-0.03026865795254707|0.01022963225841522|0.01855626702308655|-0.01225167512893677|XArbitraryZVertical|-0.06399016188626604|0.1277839289491765|0.9125212866069597|-0.3832512320559686|0.0188380740582943|-0.2822597324848175|-0.9591530561447144|0|0|0|-1|-1|3
2021-04-22 22:19:29.417 +0100|141637.87708575|0.0117340087890625|-0.2327728271484375|-0.9693756103515625|141637.85712575|-2.34952139502385|0.01792254559025668|0.2837201261494722|-0.1539122462272644|-0.0922170951962471|-0.01475316938012838|0.01070293784141541|-0.005686104297637939|-0.02308911085128784|XArbitraryZVertical|-0.06272342175762947|0.1270138017921988|0.9128044134424618|-0.3830423824365042|0.01720509305596352|-0.279928982257843|-0.9598665237426758|0|0|0|-1|-1|3
2021-04-22 22:19:29.437 +0100|141637.89704575|0.0039520263671875|-0.223785400390625|-0.9607391357421875|141637.87708575|-2.349745441119599|0.01635285936094465|0.2809159415526761|-0.1530579477548599|-0.08858289569616318|-0.004017789382487535|-0.00147499144077301|0.04086083173751831|-0.0119519829750061|XArbitraryZVertical|-0.06145888303609268|0.126040005524905|0.9130825917937356|-0.3829058630213025|0.01571115851402283|-0.2772358059883118|-0.960673451423645|0|0|0|-1|-1|3
2021-04-22 22:19:29.457 +0100|141637.91700575|0.0034332275390625|-0.230499267578125|-0.967498779296875|141637.89704575|-2.349831336089689|0.01508152266120912|0.2779943274672103|-0.05436728149652481|-0.05662230029702187|-0.002167513826861978|-0.008642874658107758|0.04395771026611328|0.004620075225830078|XArbitraryZVertical|-0.06031663587605821|0.1249507378013962|0.9133298933067395|-0.3828549353774062|0.01450196001678705|-0.2744275331497192|-0.9614984393119812|0|0|0|-1|-1|3
2021-04-22 22:19:29.477 +0100|141637.93696575|0.0061492919921875|-0.2650299072265625|-0.9698638916015625|141637.91700575|-2.349831953951055|0.0145603089553866|0.2778521224971457|0.03886276483535767|-0.0289478488266468|0.01163573935627937|-0.01290303468704224|0.05520403385162354|-0.0004909634590148926|XArbitraryZVertical|-0.0600514852874787|0.1249855445844366|0.9133549278884013|-0.3828253122130219|0.01400137972086668|-0.2742907702922821|-0.9615448713302612|0|0|0|-1|-1|3
2021-04-22 22:19:29.497 +0100|141637.95692575|0.0025177001953125|-0.2723236083984375|-0.9686126708984375|141637.93696575|-2.349458118585522|0.01427309071473315|0.2787488434449111|0.03481673821806908|-0.01893186196684837|0.02866203710436821|-0.005756893195211887|0.01361632347106934|-0.01179587841033936|XArbitraryZVertical|-0.06011458173558593|0.1254391123734216|0.913233450836011|-0.3829571254541368|0.01372169051319361|-0.2751530110836029|-0.9613025188446045|0|0|0|-1|-1|3
2021-04-22 22:19:29.517 +0100|141637.97688575|0.0024261474609375|-0.2655487060546875|-0.9507904052734375|141637.97688575|-2.347686067987548|0.01290723119907344|0.2751641139701416|-0.1533138304948807|-0.03244415298104286|0.05459731817245483|-0.007294662296772003|0.003637403249740601|0.004903316497802734|XArbitraryZVertical|-0.05891741673953531|0.1240101067510142|0.9131672751023743|-0.3837654524524447|0.01242132391780615|-0.2717048823833466|-0.9623004794120789|0|0|0|-1|-1|3
2021-04-22 22:19:29.537 +0100|141637.99684675|4.57763671875e-05|-0.248748779296875|-0.9424591064453125||||||||||||||||||||||||3
2021-04-22 22:19:29.557 +0100|141638.01680675|-0.0106353759765625|-0.2297821044921875|-0.930694580078125|141637.99684675|-2.346352145035968|0.0118045814041356|0.2706865657309662|-0.1823829710483551|-0.0242832712829113|0.06553155183792114|-0.01523525267839432|0.01435548067092896|0.01858967542648315|XArbitraryZVertical|-0.0576396131031494|0.1221371076695384|0.9132293123291724|-0.3844117765737572|0.01137448381632566|-0.2673930525779724|-0.9635204076766968|0|0|0|-1|-1|3
2021-04-22 22:19:29.577 +0100|141638.03676675|0.0214080810546875|-0.2588043212890625|-0.9624176025390625|141638.01680675|-2.344901131820656|0.01092920675520074|0.267947046226359|-0.0471649095416069|-0.004431427922099829|0.06073253601789474|-0.01810766011476517|0.02589014172554016|0.02859020233154297|XArbitraryZVertical|-0.05680304353584953|0.1210123097240575|0.9131478205525648|-0.3850853968572664|0.01053900457918644|-0.2647522985935211|-0.9642588496208191|0|0|0|-1|-1|3
2021-04-22 22:19:29.597 +0100|141638.05672675|-3.0517578125e-05|-0.2857818603515625|-0.9744720458984375|141638.03676675|-2.343608649746|0.0103379256892261|0.2683119107984884|0.04483668133616447|-0.02051569521427155|0.06639920920133591|0.00419200211763382|0.03016349673271179|0.006526947021484375|XArbitraryZVertical|-0.05668146187508232|0.1212562366757058|0.9128927020467198|-0.3856310127665659|0.009967855177819729|-0.2651041150093079|-0.9641682505607605|0|0|0|-1|-1|3
2021-04-22 22:19:29.617 +0100|141638.07668675|-0.00836181640625|-0.3081207275390625|-0.967559814453125|141638.05672675|-2.342490719057571|0.009331634354418335|0.2685479606749782|-0.06176076829433441|-0.04829017445445061|0.04549383744597435|-0.002970106899738312|-0.02132096886634827|-0.009379982948303223|XArbitraryZVertical|-0.05633544320734433|0.1215265951649122|0.9126906336994884|-0.3860744672158896|0.008997031487524509|-0.2653317153453827|-0.9641152024269104|0|0|0|-1|-1|3
2021-04-22 22:19:29.637 +0100|141638.09664675|-0.0176849365234375|-0.2706756591796875|-0.95343017578125|141638.07668675|-2.341360583640738|0.007447330759641413|0.2656102682051464|-0.2426214069128036|-0.09038446843624115|0.05179141461849213|-0.0152735635638237|-0.04579147696495056|-0.005507171154022217|XArbitraryZVertical|-0.05497800960127277|0.1205178500588596|0.9127073147547815|-0.3865467148044646|0.007186105009168386|-0.2624981701374054|-0.9649057388305664|0|0|0|-1|-1|3
2021-04-22 22:19:29.657 +0100|141638.11660675|-0.02886962890625|-0.2403411865234375|-0.9473419189453125|141638.09664675|-2.340037349205971|0.004600905753419137|0.2590416676790219|-0.3945838510990143|-0.1315227448940277|0.06905926018953323|-0.01850102841854095|-0.02758389711380005|0.007534801959991455|XArbitraryZVertical|-0.05248966853041383|0.1180338745832164|0.9129272463645948|-0.3871393377742708|0.00444738520309329|-0.2561542987823486|-0.9666256904602051|0|0|0|-1|-1|3
2021-04-22 22:19:29.677 +0100|141638.13656675|-0.0123138427734375|-0.1982879638671875|-0.935821533203125|141638.11660675|-2.338438488393965|0.001605764735796981|0.2509565525152204|-0.337152510881424|-0.1189889013767242|0.08147988468408585|-0.02957089990377426|-0.002891108393669128|0.02064579725265503|XArbitraryZVertical|-0.04965033252464448|0.114881708015387|0.9131695270920489|-0.3878897645026295|0.001555463997647166|-0.2483306676149368|-0.9686740636825562|0|0|0|-1|-1|3
2021-04-22 22:19:29.697 +0100|141638.15652775|-0.0095367431640625|-0.2585296630859375|-0.97412109375|141638.13656675|-2.336731088517392|-0.0005096423194077631|0.247893252514172|-0.04389772936701775|-0.0714414045214653|0.08014165610074997|-0.01682496815919876|0.0361936092376709|0.02704882621765137|XArbitraryZVertical|-0.04818758439098532|0.1138519841195404|0.9130653249334799|-0.3886225118333396|-0.0004940633079968393|-0.2453621625900269|-0.9694313406944275|0|0|0|-1|-1|3
2021-04-22 22:19:29.717 +0100|141638.17648775|-0.016357421875|-0.31048583984375|-1.00592041015625|141638.15652775|-2.335005743317053|-0.002264059441053927|0.2503052536993939|0.1481215059757233|-0.05930932238698006|0.09135781973600388|-0.00491739809513092|0.008379802107810974|0.00347214937210083|XArbitraryZVertical|-0.04795489581021234|0.1152525041148745|0.9126344898191355|-0.3892500505657902|-0.002193502383306623|-0.2476997077465057|-0.968834400177002|0|0|0|-1|-1|3
2021-04-22 22:19:29.737 +0100|141638.19644775|-0.025390625|-0.3498687744140625|-1.029022216796875|141638.17648775|-2.332949858781462|-0.004341039630448167|0.2540227715342104|0.0908241793513298|-0.09507168829441071|0.1082527339458466|-0.009699337184429169|-0.04511865973472595|-0.03071093559265137|XArbitraryZVertical|-0.04785185980436492|0.1173034051502446|0.9120700189022466|-0.3899725368061123|-0.004201719537377357|-0.251299649477005|-0.9679002165794373|0|0|0|-1|-1|3
2021-04-22 22:19:29.757 +0100|141638.21640775|-0.014678955078125|-0.36260986328125|-1.051177978515625|141638.19644775|-2.33046696248188|-0.008174136706442656|0.2532548593790279|-0.2438967078924179|-0.2020252496004105|0.1239662766456604|-0.01650106161832809|-0.09400346875190735|-0.05744272470474243|XArbitraryZVertical|-0.04609981323911245|0.1176433792546152|0.9117194664054313|-0.3908996198204338|-0.007913310080766678|-0.2505563199520111|-0.9680696725845337|0|0|0|-1|-1|3
2021-04-22 22:19:29.777 +0100|141638.23636775|-0.018585205078125|-0.427703857421875|-1.0767822265625|141638.21640775|-2.327929874346235|-0.01436921054565885|0.2410570585426317|-1.021988987922668|-0.3534792065620422|0.1285351067781448|-0.003289476037025452|-0.1114915460348129|-0.07167738676071167|XArbitraryZVertical|-0.04102641486066923|0.1132425459770971|0.9120349355910675|-0.3920271658549337|-0.01395326107740402|-0.238729253411293|-0.9709858894348145|0|0|0|-1|-1|3
2021-04-22 22:19:29.797 +0100|141638.25632775|-0.0625762939453125|-0.508758544921875|-1.016265869140625|141638.23636775|-2.325879762902372|-0.02462035338630271|0.2070022812380758|-2.545300245285034|-0.6452139616012573|0.1379759162664413|0.01190022565424442|-0.2089789509773254|-0.1116107106208801|XArbitraryZVertical|-0.02973693771173621|0.09969102201336186|0.9134959494131336|-0.3933225504636968|-0.02409230917692184|-0.2055271118879318|-0.978354811668396|0|0|0|-1|-1|3
2021-04-22 22:19:29.817 +0100|141638.27628775|-0.0874481201171875|-0.4190216064453125|-0.82147216796875|141638.25632775|-2.325694591309677|-0.04055571557510951|0.1350378066351866|-4.67653751373291|-0.9409195780754089|0.1210747957229614|-0.011597890406847|-0.3682266771793365|-0.04548656940460205|XArbitraryZVertical|-0.008190659948052842|0.06994414474919908|0.9161993757050469|-0.3944865304134254|-0.04017549008131027|-0.1346277743577957|-0.9900814890861511|0|0|0|-1|-1|3
2021-04-22 22:19:29.836 +0100|141638.29624775|-0.071502685546875|-0.2841949462890625|-0.6646270751953125|141638.27628775|-2.32843062551893|-0.06160906339617787|0.0245819217953249|-6.360246181488037|-1.17656409740448|0.1706701368093491|-0.02211276069283485|-0.4285618662834167|0.1219773292541504|XArbitraryZVertical|0.02342838112289702|0.02346280407018227|0.9181230195653035|-0.3949063907466888|-0.06155149638652802|-0.02457944676280022|-0.9978012442588806|0|0|0|-1|-1|3
2021-04-22 22:19:29.856 +0100|141638.31620875|-0.0623779296875|-0.0587921142578125|-0.481689453125|141638.29624775|-2.33377688224663|-0.08763988123934761|-0.1151048800465517|-7.522790431976318|-1.386572480201721|0.3441897332668304|0.0182836651802063|-0.4459066092967987|0.276404857635498|XArbitraryZVertical|0.06279902762330002|-0.03565346096756046|0.9161382357081513|-0.3943044922227749|-0.08694854378700256|0.1148508787155151|-0.9895702004432678|0|0|0|-1|-1|3
2021-04-22 22:19:29.876 +0100|141638.33616875|-0.128997802734375|0.22906494140625|-0.283111572265625|141638.31620875|-2.341259151807397|-0.1181013950397455|-0.2722466060367045|-8.089206695556641|-1.490157961845398|0.564057469367981|0.04804209619760513|-0.3841313719749451|0.4194113612174988|XArbitraryZVertical|0.1066251112646207|-0.1019859149341785|0.9077660038371205|-0.3926714887552361|-0.1134873777627945|0.2688959836959839|-0.9564599394798279|0|0|0|-1|-1|3
2021-04-22 22:19:29.896 +0100|141638.35612875|-0.151123046875|0.4550628662109375|-0.0912933349609375|141638.33616875|-2.351945817257107|-0.1511760458240644|-0.4334139714786464|-7.964766025543213|-1.415539145469666|0.5790646076202393|0.02359265089035034|-0.2683764100074768|0.5591887235641479|XArbitraryZVertical|0.1505440762127343|-0.1695382581231392|0.8926552570275403|-0.3895640346016368|-0.1366759091615677|0.4199715554714203|-0.8971865177154541|0|0|0|-1|-1|3
2021-04-22 22:19:29.916 +0100|141638.37608875|-0.1148681640625|0.6739044189453125|-0.00823974609375|141638.35612875|-2.368448882619183|-0.1854723038887851|-0.5866736647512505|-7.268667697906494|-1.196217060089111|0.5627906322479248|0.002191990613937378|-0.1429960131645203|0.6938238143920898|XArbitraryZVertical|0.1906509964761348|-0.2332386528439655|0.8727386883503939|-0.3841605174069189|-0.1535748392343521|0.5535939335823059|-0.8185038566589355|0|0|0|-1|-1|3
2021-04-22 22:19:29.936 +0100|141638.39604875|-0.017181396484375|0.752960205078125|-0.09912109375|141638.37608875|-2.387041093642695|-0.2170448785678956|-0.720896986789632|-6.164838790893555|-0.8146279454231262|0.7157027125358582|0.02822467684745789|-0.02652984857559204|0.7352669239044189|XArbitraryZVertical|0.223386002685821|-0.2886245808043558|0.8507397167123165|-0.3782018035415837|-0.1617700159549713|0.6600587368011475|-0.7335891127586365|0|0|0|-1|-1|3
2021-04-22 22:19:29.956 +0100|141638.41600875|-0.0186004638671875|0.81365966796875|-0.17596435546875|141638.39604875|-2.400074934721379|-0.238752154169498|-0.8328829107082157|-4.998996257781982|-0.5003504753112793|0.8791937232017517|0.1281373500823975|-0.002340972423553467|0.5808926224708557|XArbitraryZVertical|0.2470335831920163|-0.3348778505974411|0.828873207340221|-0.3738992688030758|-0.1590978652238846|0.7398738861083984|-0.6536624431610107|0|0|0|-1|-1|3
2021-04-22 22:19:29.978 +0100|141638.43596875|-0.00860595703125|0.8402099609375|-0.1986236572265625|141638.41600875|-2.409403526166621|-0.2538819769277386|-0.9241571162679|-4.04640531539917|-0.3041439652442932|0.749891459941864|0.1317961812019348|0.004315435886383057|0.4238916635513306|XArbitraryZVertical|0.264116913070922|-0.3723508850040162|0.808881180108759|-0.3705517267926171|-0.1513278782367706|0.798113226890564|-0.5831941366195679|0|0|0|-1|-1|3
2021-04-22 22:19:29.996 +0100|141638.45592975|-0.0261993408203125|0.90118408203125|-0.214324951171875|141638.43596875|-2.421920918659857|-0.2692066260125143|-0.9992013900405822|-3.468909978866577|-0.2037093788385391|0.4589933753013611|0.137014240026474|-0.009908735752105713|0.3216292858123779|XArbitraryZVertical|0.2774169408204719|-0.4028585324660014|0.7914874487025405|-0.3664597428963042|-0.1438811868429184|0.84103924036026|-0.521489679813385|0|0|0|-1|-1|3
2021-04-22 22:19:30.016 +0100|141638.47588975|-0.0034637451171875|0.952484130859375|-0.121307373046875|141638.45592975|-2.44979640591421|-0.2954522293910355|-1.063847642437785|-3.17978310585022|0.04850758239626884|0.03509339317679405|0.1025184690952301|-0.004113256931304932|0.2607696056365967|XArbitraryZVertical|0.2894257847996389|-0.4289465197617141|0.7766464037253024|-0.3592466399784574|-0.1413677930831909|0.8742300271987915|-0.4644751846790314|0|0|0|-1|-1|3
2021-04-22 22:19:30.036 +0100|141638.49584975|-0.1031646728515625|1.051025390625|-0.0346832275390625|141638.47588975|-2.492832817503061|-0.3314224336805303|-1.122908901861182|-3.054096698760986|0.1394422352313995|-0.1828509271144867|0.1490764766931534|0.07037633657455444|0.2697546184062958|XArbitraryZVertical|0.2997167267565353|-0.4532352546692857|0.7633539977506342|-0.349340033163536|-0.1409134864807129|0.9013639688491821|-0.4094953835010529|0|0|0|-1|-1|3
2021-04-22 22:19:30.056 +0100|141638.51580975|-0.015380859375|1.25384521484375|-0.11151123046875|141638.49584975|-2.560297224946551|-0.3867277432450898|-1.17548517823981|-2.838135004043579|0.5225502252578735|-0.534029483795166|0.0566038191318512|0.05367016792297363|0.3224292993545532|XArbitraryZVertical|0.3091469960432734|-0.4755001005679987|0.751897894882248|-0.3361212312702641|-0.1452425867319107|0.92287677526474|-0.3566555678844452|0|0|0|-1|-1|3
2021-04-22 22:19:30.076 +0100|141638.53576975|0.0977783203125|1.235870361328125|-0.2441558837890625|141638.51580975|-2.649052319751184|-0.4558831462854956|-1.218717056483038|-2.45202112197876|0.7879685163497925|-0.6273325681686401|0.1043061017990112|0.2882401943206787|0.2227933406829834|XArbitraryZVertical|0.31563140958727|-0.495540944679179|0.7431735238841732|-0.3201707421914934|-0.1518223881721497|0.9386577010154724|-0.3096319735050201|0|0|0|-1|-1|3
2021-04-22 22:19:30.096 +0100|141638.55572975|0.0972747802734375|1.213333129882812|-0.33392333984375|141638.53576975|-2.748632739351322|-0.5334872093654917|-1.253359755010092|-2.190824270248413|0.8383702635765076|-0.6437270641326904|0.2428986132144928|0.2921180725097656|0.04140138626098633|XArbitraryZVertical|0.3198343482419134|-0.5131538366431703|0.7361229107442814|-0.3041419355016709|-0.1587315797805786|0.9500386714935303|-0.2687582671642303|0|0|0|-1|-1|3
2021-04-22 22:19:30.116 +0100|141638.57568975|0.0988922119140625|1.229660034179688|-0.37158203125|141638.55572975|-2.865665154587284|-0.6284455467690683|-1.281171361920052|-2.024802207946777|0.8659560084342957|-0.709277868270874|0.2653850018978119|0.257652223110199|-0.08217412233352661|XArbitraryZVertical|0.3236171573784148|-0.5289211678721365|0.7298406059515621|-0.2878320179898774|-0.1678969860076904|0.9583510756492615|-0.2310286611318588|0|0|0|-1|-1|3
2021-04-22 22:19:30.136 +0100|141638.59565075|0.094940185546875|1.219070434570312|-0.3809051513671875|141638.57568975|-2.993344402439564|-0.7331290978008383|-1.302581103498922|-1.825277805328369|0.942074179649353|-0.7007953524589539|0.2765423059463501|0.2652009725570679|-0.1699115335941315|XArbitraryZVertical|0.326173037008253|-0.5432754153383138|0.7243367937891587|-0.2716605176823804|-0.1773453056812286|0.9642454385757446|-0.1969259530305862|0|0|0|-1|-1|3
2021-04-22 22:19:30.156 +0100|141638.61561075|0.0674896240234375|1.158950805664062|-0.2915191650390625|141638.59565075|-3.124450780382601|-0.8407416144244363|-1.315529850129879|-1.51787257194519|0.9583611488342285|-0.7789127230644226|0.283578485250473|0.2598209381103516|-0.2196190506219864|XArbitraryZVertical|0.3277250999671151|-0.555335438869028|0.7202985357927463|-0.2556737900938423|-0.1881503909826279|0.9675960540771484|-0.1683976203203201|0|0|0|-1|-1|3
2021-04-22 22:19:30.176 +0100|141638.63557075|0.0050201416015625|1.206436157226562|-0.2110443115234375|141638.61561075|3.02903909888347|-0.9467041444306882|-1.320443613725906|-1.330597281455994|1.003044009208679|-0.8799999952316284|0.277459979057312|0.1923380494117737|-0.1747927516698837|XArbitraryZVertical|0.3288006414840753|-0.5652465445539341|0.7176205756505679|-0.2395980688289711|-0.2010442465543747|0.968825101852417|-0.1447729617357254|0|0|0|-1|-1|3
2021-04-22 22:19:30.196 +0100|141638.65553075|-0.0131988525390625|1.244064331054688|-0.20648193359375|141638.63557075|2.90184686347455|-1.050070203860031|-1.319062299215928|-1.2502760887146|1.006337285041809|-0.935390293598175|0.2357535511255264|0.2284783720970154|-0.1013750955462456|XArbitraryZVertical|0.329873622834396|-0.5737791137270136|0.7156559107911062|-0.2231538402951141|-0.2160699963569641|0.9684819579124451|-0.1239218413829803|0|0|0|-1|-1|3
2021-04-22 22:19:30.216 +0100|141638.67549075|-0.057769775390625|1.230697631835938|-0.18682861328125|141638.65553075|2.787171521959737|-1.141499376202386|-1.312859551908027|-1.019741296768188|0.8934032917022705|-0.8965547680854797|0.2195337116718292|0.2743382453918457|-0.09069482982158661|XArbitraryZVertical|0.3307484821047494|-0.5809629523402031|0.7142978949520081|-0.2070411740410777|-0.2319393903017044|0.9669183492660522|-0.1061749756336212|0|0|0|-1|-1|3
2021-04-22 22:19:30.236 +0100|141638.6954511667|-0.2023468017578125|1.284500122070312|-0.22705078125|141638.67549075|2.691462488179609|-1.218510394111035|-1.306213018410116|-1.062021613121033|0.6912001371383667|-0.7405037879943848|0.2138310670852661|0.2686545848846436|-0.09494984149932861|XArbitraryZVertical|0.3318131054055917|-0.5871832776083112|0.7124813479408029|-0.1936139413395731|-0.2454475611448288|0.9652015566825867|-0.09023172408342361|0|0|0|-1|-1|3
2021-04-22 22:19:30.255 +0100|141638.7154111667|-0.313812255859375|1.254806518554688|-0.285125732421875|141638.6954511667|2.601410052476359|-1.292021262354225|-1.297109226764413|-0.8901839256286621|0.6539478898048401|-0.874982476234436|0.09412279725074768|0.3009366989135742|-0.1369895935058594|XArbitraryZVertical|0.333688013637912|-0.5928441976492023|0.7103181908201212|-0.1806550449367298|-0.2598487436771393|0.9627808928489685|-0.07437613606452942|0|0|0|-1|-1|3
2021-04-22 22:19:30.275 +0100|141638.7353721667|-0.3763427734375|1.197113037109375|-0.3013458251953125|141638.7154111667|2.535746176287383|-1.341752650124228|-1.282858905992387|-0.485576868057251|0.6829626560211182|-0.9395646452903748|-0.01784384250640869|0.3105928301811218|-0.2069333791732788|XArbitraryZVertical|0.3356211052898229|-0.5959200024252816|0.7099827471059607|-0.1678169122558832|-0.2765594720840454|0.9588316082954407|-0.0644756481051445|0|0|0|-1|-1|3
2021-04-22 22:19:30.296 +0100|141638.7553321667|-0.43658447265625|1.124435424804688|-0.30517578125|141638.7353721667|2.507560992004619|-1.355509207864515|-1.265896530830987|0.07402554154396057|0.629707932472229|-0.8877924084663391|-0.06235381960868835|0.2554123997688293|-0.235736072063446|XArbitraryZVertical|0.3367432069537954|-0.5954315226499152|0.7124117927172224|-0.1566359160421876|-0.2932677268981934|0.9538770318031311|-0.06413062661886215|0|0|0|-1|-1|3
2021-04-22 22:19:30.315 +0100|141638.7752921667|-0.475494384765625|1.037216186523438|-0.2724151611328125|141638.7553321667|2.51703533088376|-1.334163919963973|-1.24855056924718|0.5908517837524414|0.6005286574363708|-0.7323408722877502|-0.1193888187408447|0.1962335705757141|-0.2297123670578003|XArbitraryZVertical|0.3366413454504844|-0.5912282045558541|0.7177248714648816|-0.1483005754590332|-0.3078727722167969|0.9485265612602234|-0.07424362748861313|0|0|0|-1|-1|3
2021-04-22 22:19:30.336 +0100|141638.7952521667|-0.5229034423828125|0.95330810546875|-0.210418701171875|141638.7752921667|2.555117911540693|-1.286798533241944|-1.231854809440138|1.007442474365234|0.5373747944831848|-0.5527015924453735|-0.1446351408958435|0.1191182136535645|-0.1885160803794861|XArbitraryZVertical|0.3351708444546425|-0.5840200617298491|0.7253450661384004|-0.1430240556728753|-0.3191711902618408|0.9431071281433105|-0.09316214174032211|0|0|0|-1|-1|3
2021-04-22 22:19:30.355 +0100|141638.8152121667|-0.5503387451171875|0.9222564697265625|-0.1943206787109375|141638.7952521667|2.608551604859137|-1.226689278523153|-1.216940198920472|1.148377656936646|0.4428088068962097|-0.3145968616008759|-0.1830276846885681|0.03633695840835571|-0.1085953116416931|XArbitraryZVertical|0.3325142129563031|-0.5753123471323105|0.7339321692166578|-0.1406902213084225|-0.3262041211128235|0.938043475151062|-0.1169000044465065|0|0|0|-1|-1|3
2021-04-22 22:19:30.375 +0100|141638.8351721667|-0.5493621826171875|0.8495941162109375|-0.210357666015625|141638.8152121667|2.665217008070978|-1.165151513821152|-1.204807550048653|1.120278716087341|0.3973276913166046|-0.0834808349609375|-0.2241321504116058|-0.008431553840637207|-0.05455030500888824|XArbitraryZVertical|0.3288952089690502|-0.5667605167869877|0.7421876481651208|-0.1405995722153969|-0.3288313448429108|0.9337703585624695|-0.1412209123373032|0|0|0|-1|-1|3
2021-04-22 22:19:30.395 +0100|141638.8551321667|-0.5411224365234375|0.8019561767578125|-0.198974609375|141638.8351721667|2.717375533068935|-1.109898935721077|-1.196260856636401|0.9395899772644043|0.2780980467796326|0.09410557895898819|-0.2156378924846649|-0.06329178810119629|-0.04179079830646515|XArbitraryZVertical|0.3249125837517349|-0.5595333473544261|0.7490918579639342|-0.1421827302562849|-0.3276667892932892|0.9306776523590088|-0.1627084910869598|0|0|0|-1|-1|3
2021-04-22 22:19:30.415 +0100|141638.8750921667|-0.491912841796875|0.7358856201171875|-0.1859893798828125|141638.8551321667|2.759586435882891|-1.065840555993402|-1.191833471334266|0.6230081915855408|0.1957536041736603|0.2343434691429138|-0.2283694744110107|-0.1069816946983337|-0.02380114793777466|XArbitraryZVertical|0.3210563034739227|-0.5544690500803438|0.7540345823020731|-0.1446337542991408|-0.3237852454185486|0.9290488362312317|-0.1789738386869431|0|0|0|-1|-1|3
2021-04-22 22:19:30.435 +0100|141638.8950531667|-0.4625244140625|0.77215576171875|-0.20770263671875|141638.8750921667|2.788623092335218|-1.035890389126888|-1.192197391601568|0.2796573638916016|0.1039805859327316|0.3269470930099487|-0.1866034269332886|-0.1865993142127991|0.003708600997924805|XArbitraryZVertical|0.3177038254137116|-0.5521373788644452|0.7566244680017851|-0.1474047508394986|-0.3179896175861359|0.9291834235191345|-0.1884171813726425|0|0|0|-1|-1|3
2021-04-22 22:19:30.456 +0100|141638.9150131667|-0.4958648681640625|0.8417205810546875|-0.2120208740234375|141638.8950531667|2.804555371712969|-1.0202808786127|-1.197202223637355|-0.008319527842104435|-0.02725892513990402|0.3844909071922302|-0.1467364132404327|-0.1760473847389221|-0.01171505451202393|XArbitraryZVertical|0.3152060400560953|-0.5524344956774202|0.7568756445073109|-0.1503353387433854|-0.3110426962375641|0.9310216307640076|-0.1909225583076477|0|0|0|-1|-1|3
2021-04-22 22:19:30.486 +0100|141638.9349731667|-0.4812469482421875|0.9051055908203125|-0.194427490234375|141638.9349731667|2.813714062483442|-1.014935516533706|-1.212708971436917|-0.1564099490642548|-0.1139523237943649|0.327567845582962|-0.1848268806934357|-0.04444867372512817|-0.01501069962978363|XArbitraryZVertical|0.3126926248791138|-0.5565542385980076|0.7537437887181673|-0.1560162891926188|-0.2977171838283539|0.9365689158439636|-0.1849414110183716|0|0|0|-1|-1|3
2021-04-22 22:19:30.495 +0100|141638.9549331667|-0.46923828125|0.9138641357421875|-0.185302734375||||||||||||||||||||||||3
2021-04-22 22:19:30.515 +0100|141638.9748931667|-0.4405364990234375|0.9400634765625|-0.1881561279296875|141638.9549331667|2.817486830887207|-1.013831338020093|-1.218714085493489|-0.04668442532420158|-0.1238855421543121|0.2577398717403412|-0.1817389726638794|-0.02090179920196533|-0.001407846808433533|XArbitraryZVertical|0.3121566901936482|-0.5580424577774222|0.7523347460335734|-0.1585537369025695|-0.29273322224617|0.9386566877365112|-0.182293638586998|0|0|0|-1|-1|3
2021-04-22 22:19:30.535 +0100|141638.9948531667|-0.4323883056640625|0.928497314453125|-0.195526123046875|141638.9748931667|2.821981236042076|-1.012792326249841|-1.220759627496682|-0.01094735227525234|-0.1831612884998322|0.2102870494127274|-0.1499274671077728|-0.001326262950897217|-0.01052837073802948|XArbitraryZVertical|0.3126220259049218|-0.5581013379711621|0.7516983110196694|-0.1604372909331167|-0.2909143567085266|0.9393601417541504|-0.1815807372331619|0|0|0|-1|-1|3
2021-04-22 22:19:30.555 +0100|141639.0148131667|-0.418914794921875|0.961639404296875|-0.1761474609375|141638.9948531667|2.821471041560272|-1.017540441952111|-1.219329234349523|-0.06382351368665695|-0.1918447315692902|0.116135336458683|-0.148505300283432|-0.01546776294708252|-0.01698876917362213|XArbitraryZVertical|0.3145419963827492|-0.5573254271842757|0.7513031766543355|-0.161231111790784|-0.2929164171218872|0.9388686418533325|-0.1809034049510956|0|0|0|-1|-1|3
2021-04-22 22:19:30.575 +0100|141639.0347741667|-0.4501495361328125|1.032211303710938|-0.148468017578125|141639.0148131667|2.81413292715345|-1.029258416446386|-1.217812980540632|-0.1350691169500351|-0.2396503239870071|0.01543535944074392|-0.1161487698554993|0.01622891426086426|-0.006348609924316406|XArbitraryZVertical|0.3171938914242907|-0.557038558862748|0.7503685138967047|-0.1613794632827542|-0.2962354421615601|0.9383455514907837|-0.1781921535730362|0|0|0|-1|-1|3
2021-04-22 22:19:30.601 +0100|141639.0547341667|-0.4875030517578125|1.09527587890625|-0.1381378173828125|141639.0347741667|2.801559327867642|-1.046199123410062|-1.215926254307073|-0.1649182885885239|-0.216110497713089|-0.06178397312760353|-0.145683228969574|0.06915938854217529|0.01436591148376465|XArbitraryZVertical|0.3204176094135413|-0.5570593590466122|0.7490792749581665|-0.1609281104720103|-0.3007433712482452|0.9376916289329529|-0.1740348488092422|0|0|0|-1|-1|3
2021-04-22 22:19:30.615 +0100|141639.0746941667|-0.50091552734375|1.097366333007812|-0.146270751953125|141639.0547341667|2.789204601299736|-1.062157491173795|-1.213069988648405|-0.09097588062286377|-0.1673078536987305|-0.1146266758441925|-0.1723600327968597|0.1475940346717834|0.03306491672992706|XArbitraryZVertical|0.3235286994920097|-0.5568398950383155|0.7480936106698273|-0.1600454940659287|-0.3058200776576996|0.9366953372955322|-0.1705170273780823|0|0|0|-1|-1|3
2021-04-22 22:19:30.635 +0100|141639.0946541667|-0.4716033935546875|1.051101684570312|-0.180419921875|141639.0746941667|2.785138383551095|-1.06881076357689|-1.211331268776672|0.06301804631948471|-0.1081275716423988|-0.09765931963920593|-0.1931203901767731|0.1629595160484314|0.03019244968891144|XArbitraryZVertical|0.325241073140022|-0.5564056423564366|0.7476958114693942|-0.1599441277446821|-0.3083751499652863|0.9360851645469666|-0.1692620068788528|0|0|0|-1|-1|3
2021-04-22 22:19:30.655 +0100|141639.1146141667|-0.45416259765625|0.980194091796875|-0.2070465087890625|141639.0946541667|2.791657383169578|-1.064239324761985|-1.208811380698267|0.2328988164663315|-0.06352148205041885|-0.004211845342069864|-0.1719993650913239|0.1380463242530823|-0.003617405891418457|XArbitraryZVertical|0.3258577733784203|-0.5548962018232699|0.7484326927541711|-0.1604853812567652|-0.3096597790718079|0.9351957440376282|-0.1718138307332993|0|0|0|-1|-1|3
2021-04-22 22:19:30.675 +0100|141639.1345741667|-0.429718017578125|0.9280548095703125|-0.2161407470703125|141639.1146141667|2.805587562856631|-1.052513875817704|-1.207309479674629|0.2506552934646606|-0.07190495729446411|0.1196531131863594|-0.1513313353061676|0.05827212333679199|-0.02705870568752289|XArbitraryZVertical|0.3256285590029881|-0.5530839855229788|0.749528432848472|-0.1620841625960449|-0.3088434040546417|0.9346628189086914|-0.1761282980442047|0|0|0|-1|-1|3
2021-04-22 22:19:30.695 +0100|141639.1545341667|-0.39959716796875|0.9144439697265625|-0.2162628173828125|141639.1345741667|2.818703351085382|-1.042059239232833|-1.208263390359434|0.09927795082330704|-0.1131018772721291|0.1863363534212112|-0.1288278996944427|0.002834022045135498|-0.03168964385986328|XArbitraryZVertical|0.3251438362938622|-0.5521164317658318|0.7499601051268777|-0.16434409605354|-0.3062156736850739|0.93500155210495|-0.1788978576660156|0|0|0|-1|-1|3
2021-04-22 22:19:30.715 +0100|141639.1744951667|-0.3929595947265625|0.914642333984375|-0.189544677734375|141639.1545341667|2.825096012594915|-1.038754086022704|-1.212271384232356|-0.1045003235340118|-0.1586653590202332|0.2585489153862|-0.102577805519104|-0.01283156871795654|-0.04239249229431152|XArbitraryZVertical|0.3248837635504295|-0.5526729055014474|0.7491217186852449|-0.1667933096956733|-0.3023906946182251|0.936415433883667|-0.1780063956975937|0|0|0|-1|-1|3
2021-04-22 22:19:30.735 +0100|141639.1944551667|-0.338134765625|0.9090576171875|-0.1834716796875|141639.1944551667|2.821660087009602|-1.04815930330169|-1.226473003028599|-0.2132840305566788|-0.1454082578420639|0.3306148648262024|-0.05972111225128174|-0.03662592172622681|-0.01460765302181244|XArbitraryZVertical|0.3246429005767913|-0.5570974831632807|0.7448641286433039|-0.1715426763661372|-0.2924977242946625|0.941304087638855|-0.168498769402504|0|0|0|-1|-1|3
2021-04-22 22:19:30.754 +0100|141639.2144151667|-0.3430328369140625|0.8930206298828125|-0.17596435546875||||||||||||||||||||||||3
2021-04-22 22:19:30.775 +0100|141639.2343751667|-0.299041748046875|0.9065399169921875|-0.2072601318359375|141639.2144151667|2.821076093937692|-1.051413586598481|-1.233936346176341|-0.1680654585361481|-0.1101396381855011|0.3005091547966003|-0.05333343148231506|-0.04789274930953979|-0.01155978441238403|XArbitraryZVertical|0.3242044044588449|-0.5593426798356428|0.7427907337346866|-0.1740384328749713|-0.286937803030014|0.9437971711158752|-0.1640545427799225|0|0|0|-1|-1|3
2021-04-22 22:19:30.795 +0100|141639.2543351667|-0.322784423828125|0.8970794677734375|-0.2119903564453125|141639.2343751667|2.82109773861473|-1.053246159405933|-1.238923310607882|-0.1592755764722824|-0.09098958969116211|0.2493973523378372|-0.0270518958568573|-0.04418861865997314|-0.03339840471744537|XArbitraryZVertical|0.3238935358888369|-0.5607976950918084|0.7414211649906932|-0.1757663755896182|-0.2831442952156067|0.9454337358474731|-0.16119784116745|0|0|0|-1|-1|3
2021-04-22 22:19:30.815 +0100|141639.2742951667|-0.29461669921875|0.9326019287109375|-0.2193450927734375|141639.2543351667|2.816129538891674|-1.060103061338151|-1.241819411002903|-0.1946881115436554|-0.07582204043865204|0.1616866737604141|-0.0341264009475708|-0.04792070388793945|-0.0527656078338623|XArbitraryZVertical|0.324456435077337|-0.5619352989645311|0.7401253454267881|-0.1765541452879817|-0.2818528413772583|0.9463733434677124|-0.157913476228714|0|0|0|-1|-1|3
2021-04-22 22:19:30.835 +0100|141639.2942561667|-0.290374755859375|0.925994873046875|-0.207275390625|141639.2742951667|2.810019998204487|-1.067091552306265|-1.243935481162008|-0.12257319688797|-0.05466045439243317|0.09741739928722382|-0.0159396231174469|-0.02125853300094604|-0.06394587457180023|XArbitraryZVertical|0.3248932088926104|-0.5629901740565671|0.7390780284591665|-0.1767774190874913|-0.2811949551105499|0.947054922580719|-0.1549729406833649|0|0|0|-1|-1|3
2021-04-22 22:19:30.854 +0100|141639.3142161667|-0.27105712890625|0.9199676513671875|-0.1925201416015625|141639.2942561667|2.809090489055521|-1.068311954187327|-1.244428756456889|0.005937787238508463|0.02106956578791142|0.06009373068809509|-0.01764053106307983|-0.01606100797653198|-0.05526743829250336|XArbitraryZVertical|0.3249818450076189|-0.5631913977139058|0.7388565949674351|-0.1768988145987677|-0.2809741795063019|0.9472131729125977|-0.1544045060873032|0|0|0|-1|-1|3
2021-04-22 22:19:30.874 +0100|141639.3341761667|-0.2460174560546875|0.9141082763671875|-0.175506591796875|141639.3142161667|2.81324176843983|-1.06369958814086|-1.243279440239771|0.08630711585283279|0.03824274614453316|0.006001289002597332|0.01288497447967529|-0.02252763509750366|-0.0402301698923111|XArbitraryZVertical|0.3246793389625915|-0.5625561965168292|0.7394843516251695|-0.1768530354038169|-0.2812110483646393|0.9468440413475037|-0.156227707862854|0|0|0|-1|-1|3
2021-04-22 22:19:30.894 +0100|141639.3541361667|-0.2440643310546875|0.902191162109375|-0.14874267578125|141639.3341761667|2.820580287264804|-1.055153857302375|-1.241205169388036|0.07939723879098892|0.08170590549707413|-0.002816969761624932|0.02740740776062012|-0.0339893102645874|-0.02035485208034515|XArbitraryZVertical|0.3239979467030071|-0.5614524502575996|0.7406664339746896|-0.1766628150853581|-0.2815732657909393|0.9461747407913208|-0.1595929563045502|0|0|0|-1|-1|3
2021-04-22 22:19:30.914 +0100|141639.3740961667|-0.2131805419921875|0.906890869140625|-0.1407928466796875|141639.3541361667|2.823915342288547|-1.050024431134166|-1.239308324395591|-0.004043806344270706|0.1030877307057381|-0.02998307719826698|0.03879213333129883|-0.04332238435745239|0.008301451802253723|XArbitraryZVertical|0.323412227487259|-0.5607500205003607|0.7416115375560175|-0.1760009982789255|-0.282307356595993|0.9455591440200806|-0.1619278937578201|0|0|0|-1|-1|3
2021-04-22 22:19:30.934 +0100|141639.3940561667|-0.20050048828125|0.9055938720703125|-0.14544677734375|141639.3740961667|2.822216691777646|-1.049044138635301|-1.238614221317206|-0.1090688109397888|0.1448838114738464|-0.002671028720214963|0.05713120102882385|-0.04143303632736206|0.02605600655078888|XArbitraryZVertical|0.3227107721368788|-0.5608849790387634|0.7420686065588733|-0.1749286602290511|-0.2827173471450806|0.9453330039978027|-0.1625315994024277|0|0|0|-1|-1|3
2021-04-22 22:19:30.954 +0100|141639.4140161667|-0.1960601806640625|0.9268035888671875|-0.1491851806640625|141639.3940561667|2.815413908505883|-1.052761334955805|-1.240130935680253|-0.2436655014753342|0.1116058006882668|0.01099054329097271|0.08494532108306885|-0.04038536548614502|0.01730549335479736|XArbitraryZVertical|0.321875794546934|-0.562148733385659|0.7417365709048807|-0.1738154483502403|-0.2820738255977631|0.945826530456543|-0.1607695519924164|0|0|0|-1|-1|3
2021-04-22 22:19:30.975 +0100|141639.4339771667|-0.20257568359375|0.9329681396484375|-0.1429595947265625|141639.4140161667|2.800569537081979|-1.064365104721668|-1.243150188419687|-0.385572761297226|0.09986045956611633|-0.00705033028498292|0.08278262615203857|-0.02031940221786499|0.004136562347412109|XArbitraryZVertical|0.3213813892315909|-0.5645034255892054|0.7405104735010266|-0.172320302578375|-0.2814217805862427|0.9468024969100952|-0.1560997664928436|0|0|0|-1|-1|3
2021-04-22 22:19:30.994 +0100|141639.4539371667|-0.181884765625|0.942657470703125|-0.1368560791015625|141639.4339771667|2.77747572278399|-1.084326052432331|-1.24726264620645|-0.4641498625278473|0.07412633299827576|-0.04335081577301025|0.08306917548179626|-0.01179295778274536|0.007714107632637024|XArbitraryZVertical|0.321368518486149|-0.5678092204073671|0.7384174342163852|-0.170454563114397|-0.2810368835926056|0.9481179118156433|-0.1486299335956573|0|0|0|-1|-1|3
2021-04-22 22:19:31.014 +0100|141639.4738971667|-0.1983642578125|0.9715576171875|-0.133697509765625|141639.4539371667|2.751029163196425|-1.107747261157752|-1.251444849973223|-0.4574095010757446|0.07163792848587036|-0.05081610009074211|0.09354287385940552|-0.01407557725906372|0.002645686268806458|XArbitraryZVertical|0.3215726137577543|-0.5713785829790647|0.7360337061148842|-0.1684400746111484|-0.2808904647827148|0.9494392275810242|-0.1402351409196854|0|0|0|-1|-1|3
2021-04-22 22:19:31.034 +0100|141639.4938571667|-0.197845458984375|1.005615234375|-0.122711181640625|141639.4738971667|2.728943741087082|-1.127272701422133|-1.255146955597202|-0.3381815552711487|0.05368561670184135|-0.05718477815389633|0.08706909418106079|0.01948243379592896|-0.003199517726898193|XArbitraryZVertical|0.3216045310135552|-0.5744240833161535|0.7340020536296645|-0.1668789904993417|-0.2803981602191925|0.9505950212478638|-0.133214995265007|0|0|0|-1|-1|3
2021-04-22 22:19:31.054 +0100|141639.5138171667|-0.2176666259765625|1.010650634765625|-0.1290740966796875|141639.4938571667|2.715765930352045|-1.138127203820886|-1.257433137533914|-0.1667023450136185|0.07277536392211914|-0.05572022125124931|0.08213058114051819|0.037680983543396|0.006280705332756042|XArbitraryZVertical|0.3212790367234505|-0.576327743712722|0.7329024296324896|-0.1657721116437437|-0.2798542380332947|0.9513022303581238|-0.1292522251605988|0|0|0|-1|-1|3
2021-04-22 22:19:31.074 +0100|141639.5337771667|-0.2111053466796875|1.01849365234375|-0.1383514404296875|141639.5138171667|2.712599617156113|-1.13942218667837|-1.258279817722861|-0.005763109773397446|0.07527820765972137|-0.05390723049640656|0.06223291158676147|0.06744951009750366|0.0009425878524780273|XArbitraryZVertical|0.3206483127112961|-0.5769820363231158|0.7327906222847895|-0.1652103212540302|-0.2792893648147583|0.9515628814697266|-0.1285527795553207|0|0|0|-1|-1|3
2021-04-22 22:19:31.093 +0100|141639.5537371667|-0.216644287109375|0.9725189208984375|-0.150482177734375|141639.5337771667|2.716639162338685|-1.133917046615919|-1.258412343415|0.078082375228405|0.0549047589302063|-0.05167141556739807|0.0717214047908783|0.06194603443145752|-0.006715402007102966|XArbitraryZVertical|0.3197657435527025|-0.5768296440311241|0.7333122236372551|-0.1651383143788089|-0.2784629166126251|0.9516035914421082|-0.130034863948822|0|0|0|-1|-1|3
2021-04-22 22:19:31.114 +0100|141639.5736981667|-0.20513916015625|0.9814453125|-0.169036865234375|141639.5537371667|2.724536892805888|-1.124950471328156|-1.258475083555543|0.1249042153358459|0.06678912043571472|-0.009898138232529163|0.05379748344421387|0.02854055166244507|-0.01312999427318573|XArbitraryZVertical|0.3187390139543465|-0.576328924721674|0.734078494137984|-0.1654669597444713|-0.2772321105003357|0.9516229033470154|-0.1325008273124695|0|0|0|-1|-1|3
2021-04-22 22:19:31.134 +0100|141639.5936581667|-0.22088623046875|0.9832305908203125|-0.1856536865234375|141639.5736981667|2.734279229890674|-1.11462068003342|-1.259277371218267|0.1261490881443024|0.02424304001033306|0.05009507015347481|0.07467782497406006|0.03133088350296021|-0.03064447641372681|XArbitraryZVertical|0.3175731087393418|-0.5758791103758663|0.7347532025709418|-0.1662783414772914|-0.2751632630825043|0.9518691301345825|-0.1350211352109909|0|0|0|-1|-1|3
2021-04-22 22:19:31.154 +0100|141639.6136181667|-0.2349853515625|1.001434326171875|-0.19403076171875|141639.5936581667|2.743566589746072|-1.105296732705572|-1.261036012147901|0.07896322757005692|0.003148354589939117|0.07800792157649994|0.0544542670249939|0.02572733163833618|-0.04475145041942596|XArbitraryZVertical|0.316432571220646|-0.5757220736298285|0.7350993631462107|-0.1674619032718554|-0.2723957300186157|0.952406644821167|-0.1368290483951569|0|0|0|-1|-1|3
2021-04-22 22:19:31.174 +0100|141639.6335781667|-0.2379913330078125|1.013046264648438|-0.1884613037109375|141639.6136181667|2.751743198700126|-1.097374883067678|-1.26322531037001|0.06473678350448608|-3.247195854783058e-05|0.08566877245903015|0.03868821263313293|0.04170966148376465|-0.05296348035335541|XArbitraryZVertical|0.3153956306270199|-0.575768823262395|0.7352143154360684|-0.168748025313593|-0.2694470584392548|0.9530717134475708|-0.1380317211151123|0|0|0|-1|-1|3
2021-04-22 22:19:31.193 +0100|141639.6535381667|-0.2476959228515625|1.013900756835938|-0.1837310791015625|141639.6335781667|2.760858945419577|-1.088365195917474|-1.265115409846386|0.09464781731367111|0.01453161053359509|0.08802682906389236|0.03179407119750977|0.05583339929580688|-0.05300998687744141|XArbitraryZVertical|0.3142975329971564|-0.5756805694914388|0.735468505031826|-0.1699860639821497|-0.2665965259075165|0.9536422491073608|-0.1396178901195526|0|0|0|-1|-1|3
2021-04-22 22:19:31.213 +0100|141639.6734981667|-0.2391815185546875|1.006011962890625|-0.1973724365234375|141639.6535381667|2.774553968804309|-1.074603450533592|-1.266333403605237|0.1829211115837097|0.04083048552274704|0.08582368493080139|0.01619163155555725|0.05996900796890259|-0.04020299017429352|XArbitraryZVertical|0.3129138298753248|-0.5750867543264124|0.7362012571925995|-0.1713713204595199|-0.263628363609314|0.9540081024169922|-0.1427203267812729|0|0|0|-1|-1|3
2021-04-22 22:19:31.233 +0100|141639.693459|-0.2501678466796875|0.9765777587890625|-0.211212158203125|141639.6734981667|2.793894959764935|-1.055077941024319|-1.266456149820551|0.2508317530155182|0.02815799415111542|0.1027187779545784|0.02426943182945251|0.06206828355789185|-0.04679876565933228|XArbitraryZVertical|0.3112492857557916|-0.5737880596554824|0.7375567551603467|-0.1729198609218612|-0.2606893181800842|0.9540448784828186|-0.1477822959423065|0|0|0|-1|-1|3
2021-04-22 22:19:31.253 +0100|141639.713419|-0.2323760986328125|0.957733154296875|-0.2239227294921875|141639.693459|2.815884875693735|-1.033128278264061|-1.266032297188252|0.2745836079120636|0.04455454275012016|0.1140939369797707|0.003961503505706787|0.02877867221832275|-0.05236482620239258|XArbitraryZVertical|0.3095320743435467|-0.5721469371298995|0.7391456613022819|-0.1746473836759349|-0.2577306628227234|0.9539178013801575|-0.1536755561828613|0|0|0|-1|-1|3
2021-04-22 22:19:31.273 +0100|141639.733379|-0.2153472900390625|0.9591827392578125|-0.2292022705078125|141639.713419|2.838889585781295|-1.010175861570906|-1.265544691786829|0.2894687950611115|0.03516130894422531|0.1316638737916946|0.02178698778152466|0.004602551460266113|-0.06234115362167358|XArbitraryZVertical|0.3077078716201856|-0.570453543338967|0.7407771229271289|-0.1764879922079016|-0.2545295059680939|0.9537713527679443|-0.1597972363233566|0|0|0|-1|-1|3
2021-04-22 22:19:31.293 +0100|141639.753339|-0.22369384765625|0.986572265625|-0.231964111328125|141639.733379|2.861601271060168|-0.9877678744516519|-1.265036901292342|0.2937683761119843|0.02992888912558556|0.1462515294551849|0.03057080507278442|0.01009583473205566|-0.05827325582504272|XArbitraryZVertical|0.3059652981015507|-0.5687898311098875|0.7423160169835684|-0.1784107937344275|-0.2512893974781036|0.9536186456680298|-0.1657267361879349|0|0|0|-1|-1|3
2021-04-22 22:19:31.313 +0100|141639.773299|-0.2249298095703125|0.98895263671875|-0.2330169677734375|141639.753339|2.884471723767377|-0.9652381345394359|-1.264233992680984|0.3095876276493073|0.03099756129086018|0.1208306699991226|0.03057713806629181|0.0293656587600708|-0.05946625769138336|XArbitraryZVertical|0.3042370878797904|-0.5670528644739842|0.7438894221311952|-0.1803320163760871|-0.2481219321489334|0.9533766508102417|-0.1717816889286041|0|0|0|-1|-1|3
2021-04-22 22:19:31.333 +0100|141639.793259|-0.2140655517578125|1.017562866210938|-0.2288055419921875|141639.773299|2.906674303260035|-0.9432126835224028|-1.262391542647576|0.3112500905990601|0.03718972951173782|0.1019652783870697|0.02058660984039307|0.0354163646697998|-0.05621665716171265|XArbitraryZVertical|0.3026479598700164|-0.5650543499416296|0.7456577994975228|-0.1819682281084558|-0.2456997483968735|0.9528189897537231|-0.1782355904579163|0|0|0|-1|-1|3
2021-04-22 22:19:31.353 +0100|141639.81322|-0.1797943115234375|0.9724578857421875|-0.2506866455078125|141639.793259|2.93015060171948|-0.9194801160876078|-1.259567618383315|0.3772287368774414|0.08084096759557724|0.07866111397743225|0.02070030570030212|0.05809742212295532|-0.04238194227218628|XArbitraryZVertical|0.3008910081084005|-0.5627089990694452|0.7477762377248752|-0.1834504579661075|-0.2435398399829865|0.9519580006599426|-0.1856463700532913|0|0|0|-1|-1|3
2021-04-22 22:19:31.373 +0100|141639.83318|-0.1792755126953125|0.9465484619140625|-0.2496795654296875|141639.81322|2.955974434504066|-0.8931288801169303|-1.255592295140858|0.400349348783493|0.07419718056917191|0.07417137920856476|0.05222465097904205|0.0322684645652771|-0.05434930324554443|XArbitraryZVertical|0.2989216158407954|-0.5598757880393952|0.750325855889194|-0.18492236960106|-0.2415101230144501|0.9507331252098083|-0.1943699419498444|0|0|0|-1|-1|3
2021-04-22 22:19:31.393 +0100|141639.85314|-0.157684326171875|0.940673828125|-0.2457733154296875|141639.83318|2.980320420639603|-0.8684480326231958|-1.252103792684064|0.3630864322185516|0.07700596004724503|0.08783072978258133|0.06059609353542328|-0.002883970737457275|-0.04295025765895844|XArbitraryZVertical|0.2969931175513816|-0.557305194401493|0.7526121388720297|-0.186496885613443|-0.2391698807477951|0.9496458768844604|-0.202412024140358|0|0|0|-1|-1|3
2021-04-22 22:19:31.413 +0100|141639.8731|-0.1815643310546875|0.9575347900390625|-0.2221527099609375|141639.85314|3.003229024020744|-0.8452204525568474|-1.24935400707293|0.327385425567627|0.05581992864608765|0.1168426722288132|0.08373841643333435|-0.00566565990447998|-0.03962419927120209|XArbitraryZVertical|0.2950210555115078|-0.5551039717342531|0.7545998011591123|-0.1881527265332373|-0.2363570034503937|0.9487807154655457|-0.2096443176269531|0|0|0|-1|-1|3
2021-04-22 22:19:31.433 +0100|141639.89306|-0.177978515625|0.9677886962890625|-0.2145233154296875|141639.8731|3.023356310766397|-0.8242870334498462|-1.247257264769723|0.2639559507369995|0.1030855029821396|0.1057014316320419|0.05306325852870941|0.008777439594268799|-0.01071318984031677|XArbitraryZVertical|0.2929892188292728|-0.5533618254239191|0.756313107964056|-0.1895745544657211|-0.233376532793045|0.9481161832809448|-0.2158960103988647|0|0|0|-1|-1|3
2021-04-22 22:19:31.453 +0100|141639.91302|-0.1834716796875|0.9770965576171875|-0.1835174560546875|141639.89306|3.039372603227166|-0.8065781498321003|-1.24607821622436|0.1732170134782791|0.1213465854525566|0.06662788242101669|0.04914097487926483|0.01652306318283081|0.002322673797607422|XArbitraryZVertical|0.2908738289548658|-0.5522754513686722|0.7576813130477102|-0.190534708155681|-0.2303240448236465|0.9477406740188599|-0.2207684814929962|0|0|0|-1|-1|3
2021-04-22 22:19:31.473 +0100|141639.93298|-0.1818389892578125|0.9769439697265625|-0.16162109375|141639.91302|3.050889103641401|-0.7927479334902678|-1.245187581822482|0.1411210745573044|0.1573040932416916|0.0153267914429307|0.04997812211513519|0.0270615816116333|0.03307214379310608|XArbitraryZVertical|0.2889256675895667|-0.5515971277824131|0.7588199917279256|-0.1909320107513732|-0.2278500497341156|0.9474561810493469|-0.2245251387357712|0|0|0|-1|-1|3
2021-04-22 22:19:31.493 +0100|141639.952941|-0.201385498046875|0.98492431640625|-0.1357574462890625|141639.93298|3.062874813808153|-0.777430733788076|-1.243495330967469|0.2199474424123764|0.1942503899335861|-0.002262588357552886|0.04591226577758789|0.03219699859619141|0.06349565088748932|XArbitraryZVertical|0.2866268179428782|-0.5507083468682639|0.7603233977738303|-0.1909810952310309|-0.2255083918571472|0.946913480758667|-0.2291307747364044|0|0|0|-1|-1|3
2021-04-22 22:19:31.513 +0100|141639.972901|-0.193817138671875|0.9620819091796875|-0.1355743408203125|141639.952941|3.076070581586973|-0.7603210729554148|-1.239988325987395|0.3450823128223419|0.2521869838237762|-0.03836555406451225|0.02828563749790192|0.03697711229324341|0.09543628990650177|XArbitraryZVertical|0.2841717014896998|-0.5491505065772938|0.7624314983839861|-0.1907313782561855|-0.223842442035675|0.9457802176475525|-0.235360324382782|0|0|0|-1|-1|3
2021-04-22 22:19:31.533 +0100|141639.992861|-0.196258544921875|0.9450225830078125|-0.15130615234375|141639.972901|3.091998216373999|-0.7396688513936561|-1.234387948202703|0.4516041576862335|0.2878653705120087|-0.04787161573767662|0.02724963426589966|0.02864867448806763|0.1125083565711975|XArbitraryZVertical|0.2813031806347393|-0.54676106988095|0.765320482921346|-0.1902777092010114|-0.222501277923584|0.943946361541748|-0.2438417077064514|0|0|0|-1|-1|3
2021-04-22 22:19:31.553 +0100|141640.012821|-0.1987152099609375|0.903778076171875|-0.1588287353515625|141639.992861|3.10878400962891|-0.7180151194284187|-1.228260576693032|0.4691864550113678|0.2874068021774292|-0.03999585285782814|0.02661912143230438|0.002826511859893799|0.1024549603462219|XArbitraryZVertical|0.278257063379353|-0.5441473442138239|0.7683887569477273|-0.1898830373280235|-0.2209704965353012|0.9419059753417969|-0.2529533505439758|0|0|0|-1|-1|3
2021-04-22 22:19:31.573 +0100|141640.032781|-0.2053680419921875|0.9059295654296875|-0.1494140625|141640.012821|3.122994623580079|-0.6994062701489574|-1.223302189086694|0.3867849409580231|0.2569178342819214|0.003561300924047828|0.01723331212997437|-0.02668541669845581|0.1023269593715668|XArbitraryZVertical|0.2754738425742265|-0.5420499091652867|0.7709452640550793|-0.1895777029704247|-0.2192293554544449|0.9402289986610413|-0.2605921030044556|0|0|0|-1|-1|3
2021-04-22 22:19:31.593 +0100|141640.052741|-0.204071044921875|0.9019622802734375|-0.15283203125|141640.032781|3.133916604587799|-0.6849759213988185|-1.220894411735588|0.2790486514568329|0.2049530595541|0.06165745109319687|0.01662109792232513|-0.0344536304473877|0.1176371872425079|XArbitraryZVertical|0.2731032852441948|-0.540993819365079|0.7725364095946171|-0.1895464122608693|-0.2168775945901871|0.9394063353538513|-0.2654805779457092|0|0|0|-1|-1|3
2021-04-22 22:19:31.613 +0100|141640.072702|-0.206298828125|0.920013427734375|-0.162200927734375|141640.052741|-3.14075756600708|-0.6737519806660943|-1.220930049957059|0.1800536811351776|0.1665923446416855|0.1124433130025864|0.008464768528938293|-0.04302597045898438|0.1175567507743835|XArbitraryZVertical|0.2710644470062996|-0.5409141072624628|0.7732466530041182|-0.1898045150463157|-0.2138634771108627|0.9394185543060303|-0.2678719758987427|0|0|0|-1|-1|3
2021-04-22 22:19:31.633 +0100|141640.092662|-0.209747314453125|0.929595947265625|-0.168243408203125|141640.072702|-3.133026465301127|-0.6638357600487884|-1.222476424071901|0.1062117069959641|0.1349997520446777|0.1564307361841202|0.001347437500953674|-0.02033102512359619|0.1080369353294373|XArbitraryZVertical|0.2691778802344589|-0.5414108885678935|0.7734318940644619|-0.1903176262836713|-0.2103014439344406|0.9399474859237671|-0.268835037946701|0|0|0|-1|-1|3
2021-04-22 22:19:31.653 +0100|141640.112622|-0.21063232421875|0.92132568359375|-0.18731689453125|141640.092662|-3.125768070351673|-0.6551381755342026|-1.225122832240169|0.04950914904475212|0.09698425233364105|0.183458536863327|-0.001446858048439026|-0.01254868507385254|0.09761333465576172|XArbitraryZVertical|0.2675415414612303|-0.542292591997083|0.773185532650474|-0.191114044981206|-0.2064390331506729|0.9408474564552307|-0.2686805427074432|0|0|0|-1|-1|3
2021-04-22 22:19:31.673 +0100|141640.132582|-0.2042236328125|0.912139892578125|-0.2035980224609375|141640.112622|-3.119738161850596|-0.6482223383273472|-1.228298563584072|0.03484776616096497|0.06603336334228516|0.1845764517784119|-0.01480409502983093|-0.01525264978408813|0.08789312839508057|XArbitraryZVertical|0.2662244493233254|-0.543383024863852|0.7726612933138783|-0.1919746524309174|-0.2027711272239685|0.9419187307357788|-0.2677188515663147|0|0|0|-1|-1|3
2021-04-22 22:19:31.693 +0100|141640.152542|-0.2169952392578125|0.917816162109375|-0.1974334716796875|141640.132582|-3.114555528397824|-0.6429976095925832|-1.231870459693845|-0.004562956281006336|0.02629942819476128|0.1943135857582092|-0.003438472747802734|-0.03312408924102783|0.0654720664024353|XArbitraryZVertical|0.2653066808276915|-0.5445844339622853|0.7718738963322338|-0.1930055302251423|-0.1993509829044342|0.943112313747406|-0.2660803198814392|0|0|0|-1|-1|3
2021-04-22 22:19:31.713 +0100|141640.172502|-0.2103118896484375|0.9239349365234375|-0.198211669921875|141640.152542|-3.110383315921326|-0.6394632844903203|-1.235675562025033|-0.01361675560474396|-0.004886136390268803|0.1738429367542267|-0.01833361387252808|-0.0273633599281311|0.0663449764251709|XArbitraryZVertical|0.2647555716937134|-0.5458514011724305|0.7708867029894677|-0.1941251404291952|-0.1962661445140839|0.9443706274032593|-0.2639014720916748|0|0|0|-1|-1|3
2021-04-22 22:19:31.733 +0100|141640.192463|-0.22137451171875|0.91302490234375|-0.168243408203125|141640.172502|-3.105918183196644|-0.6361126439482395|-1.238954670407449|0.004379688762128353|-0.04109873622655869|0.1640591025352478|-0.01248423755168915|-0.02640730142593384|0.06325748562812805|XArbitraryZVertical|0.2644077690538388|-0.5468600974504259|0.7699853981674225|-0.1953334885415939|-0.1935400664806366|0.9454439878463745|-0.2620651423931122|0|0|0|-1|-1|3
2021-04-22 22:19:31.753 +0100|141640.212423|-0.183685302734375|0.8917999267578125|-0.1406402587890625|141640.192463|-3.102760406540463|-0.6345258975598584|-1.241874098915515|-0.02056797221302986|-0.05349463224411011|0.1293644160032272|-0.02994874119758606|-0.03454130887985229|0.07710245251655579|XArbitraryZVertical|0.2644174426114357|-0.5477312193278605|0.769073127505437|-0.1964702361480462|-0.1914869397878647|0.9463910460472107|-0.2601478695869446|0|0|0|-1|-1|3
2021-04-22 22:19:31.773 +0100|141640.232383|-0.1855316162109375|0.88677978515625|-0.1853790283203125|141640.212423|-3.100611563391784|-0.6343363906503279|-1.243733897884415|0.0655839741230011|-0.1489216089248657|0.07836301624774933|-0.005406558513641357|-0.04666072130203247|0.1237097382545471|XArbitraryZVertical|0.2647788052660758|-0.5481870687705673|0.7683678067333326|-0.1974696732516679|-0.1903943717479706|0.9469901323318481|-0.258766233921051|0|0|0|-1|-1|3
2021-04-22 22:19:31.793 +0100|141640.252343|-0.2339019775390625|0.8737335205078125|-0.2284393310546875|141640.232383|-3.090990734645125|-0.630095463838273|-1.241458258178657|0.4115565419197083|-0.3107714354991913|0.05489896982908249|0.007977530360221863|-0.05651688575744629|0.08610925078392029|XArbitraryZVertical|0.2659678258759793|-0.5464479006337075|0.7686108899393116|-0.199732835605559|-0.19056436419487|0.9462566375732422|-0.2613116204738617|0|0|0|-1|-1|3
2021-04-22 22:19:31.812 +0100|141640.272303|-0.251220703125|0.7778472900390625|-0.1929473876953125|141640.252343|-3.074659575320483|-0.6236007742510188|-1.232578571124108|0.7074910402297974|-0.5438966751098633|-0.1039414554834366|-0.02330908179283142|-0.06451773643493652|0.04532402753829956|XArbitraryZVertical|0.2686030311231823|-0.541456495095223|0.7703146201689877|-0.2032065949540864|-0.1937626153230667|0.9433475136756897|-0.2693545520305634|0|0|0|-1|-1|3
2021-04-22 22:19:31.833 +0100|141640.292263|-0.2851715087890625|0.6344146728515625|0.01220703125|141640.272303|-3.065113449283067|-0.6293094358234467|-1.219961996872793|0.5391595363616943|-0.8958484530448914|-0.3130469024181366|-0.04611155390739441|-0.1260830163955688|0.05939826369285583|XArbitraryZVertical|0.2743143076269252|-0.5346303990183364|0.7720688301537195|-0.2069585132849384|-0.202286422252655|0.9390863180160522|-0.2778439819812775|0|0|0|-1|-1|3
2021-04-22 22:19:31.853 +0100|141640.312224|-0.2080230712890625|0.566986083984375|0.1943511962890625|141640.292263|-3.073192022832801|-0.6578369296537747|-1.21089044099565|-0.03097573854029179|-1.198642253875732|-0.4355841279029846|-0.07335212826728821|-0.2706623077392578|0.2302891314029694|XArbitraryZVertical|0.2838645089897473|-0.5292215690862407|0.7714288494868335|-0.2103404924383025|-0.2153290957212448|0.9359299540519714|-0.2786909341812134|0|0|0|-1|-1|3
2021-04-22 22:19:31.872 +0100|141640.332184|-0.2252349853515625|0.6803131103515625|0.140533447265625|141640.312224|-3.103277062580825|-0.7127235823028742|-1.209795148723182|-0.4234180748462677|-1.51527214050293|-0.4278312027454376|-0.001855194568634033|-0.3701906204223633|0.446294754743576|XArbitraryZVertical|0.2971209369300722|-0.5273540202883937|0.7669387804009045|-0.2131239360599347|-0.2309636026620865|0.9355436563491821|-0.2672337591648102|0|0|0|-1|-1|3
2021-04-22 22:19:31.892 +0100|141640.352144|-0.1800689697265625|0.61712646484375|-0.115966796875|141640.332184|-3.12931015937827|-0.771736168370287|-1.208149062340625|0.02252650260925293|-1.965941786766052|-0.421464204788208|0.05066442489624023|-0.2905215620994568|0.41690793633461|XArbitraryZVertical|0.3129836467144354|-0.5243244880774233|0.7611854014427906|-0.2184534110247338|-0.2473962157964706|0.9349609613418579|-0.2542501389980316|0|0|0|-1|-1|3
2021-04-22 22:19:31.912 +0100|141640.372104|-0.1819610595703125|0.46331787109375|-0.234527587890625|141640.352144|-3.13528620637835|-0.822707213579642|-1.196767914950893|0.4974839985370636|-2.657696008682251|-0.5629882216453552|0.0605970025062561|-0.2721718549728394|0.1963522434234619|XArbitraryZVertical|0.3320015331414615|-0.5152726184370723|0.7566081845006016|-0.2276255874006094|-0.2678116858005524|0.9308630228042603|-0.2485382258892059|0|0|0|-1|-1|3
2021-04-22 22:19:31.932 +0100|141640.392064|0.041168212890625|0.5973663330078125|-0.22998046875|141640.372104|-3.140634875135398|-0.8917879265248986|-1.183458603466784|0.1605314761400223|-3.702022314071655|-0.6187732815742493|0.1011791825294495|-0.4765927195549011|0.01192250847816467|XArbitraryZVertical|0.3581808010023711|-0.5030873138952844|0.7487114460980541|-0.2409167194081897|-0.293943852186203|0.92591792345047|-0.2372193336486816|0|0|0|-1|-1|3
2021-04-22 22:19:31.952 +0100|141640.412024|0.0760650634765625|0.7044677734375|-0.1666412353515625|141640.392064|3.123610470200221|-0.9921416970041465|-1.173017149257458|-0.1537249833345413|-4.5260009765625|-0.6394183039665222|0.310330331325531|-0.3458434343338013|-0.06677311658859253|XArbitraryZVertical|0.3920356784193113|-0.4902870712688712|0.7348218286620148|-0.2568341065129394|-0.3243078589439392|0.9219235777854919|-0.2118532359600067|0|0|0|-1|-1|3
2021-04-22 22:19:31.972 +0100|141640.431985|0.034210205078125|0.85516357421875|-0.37847900390625|141640.412024|3.090720333735327|-1.119104992223136|-1.161455598502725|-0.4139007031917572|-5.137819766998291|-0.9984899759292603|0.4335126578807831|-0.2405953407287598|0.03492957353591919|XArbitraryZVertical|0.4318192263087521|-0.4760987330061247|0.7157354549135362|-0.2731026254366374|-0.3580890297889709|0.9173834323883057|-0.1737243086099625|0|0|0|-1|-1|3
2021-04-22 22:19:31.992 +0100|141640.451945|-0.0795440673828125|1.032318115234375|-0.6725616455078125|141640.431985|3.048806415643242|-1.262312567110479|-1.143889911827213|-0.4396703541278839|-5.357287883758545|-1.249948740005493|0.4452311396598816|-0.1149479150772095|-0.1713146567344666|XArbitraryZVertical|0.4753675667240771|-0.4595311154288466|0.6929384881155162|-0.2875642447827783|-0.3945115208625793|0.9102510213851929|-0.1257136613130569|0|0|0|-1|-1|3
2021-04-22 22:19:32.012 +0100|141640.471905|-0.1069793701171875|1.513031005859375|-1.165420532226562|141640.451945|3.018741811165541|-1.393706750723678|-1.119729581999329|-0.02458936162292957|-5.063925743103027|-1.404395341873169|0.3662264347076416|0.07105600833892822|-0.5108214616775513|XArbitraryZVertical|0.5177949815171742|-0.4398758802399732|0.6694840536517304|-0.3003146314463556|-0.4291086494922638|0.8999825716018677|-0.07679513096809387|0|0|0|-1|-1|3
2021-04-22 22:19:32.032 +0100|141640.491865|-0.577239990234375|1.67425537109375|-1.604095458984375|141640.471905|3.039194029378915|-1.470678672254168|-1.093125977769154|1.275535583496094|-4.49688196182251|-1.049767017364502|0.385082483291626|0.5596091151237488|-0.951275110244751|XArbitraryZVertical|0.5526310931708222|-0.4142760592736947|0.6505774559694202|-0.3157902025618164|-0.4574100077152252|0.8880683183670044|-0.04594844207167625|0|0|0|-1|-1|3
2021-04-22 22:19:32.052 +0100|141640.511825|-0.9401397705078125|1.605224609375|-1.631546020507812|141640.491865|3.101202821228091|-1.496875552494059|-1.071850247821025|1.653264164924622|-3.596124172210693|-0.8714092373847961|0.01082354784011841|0.7822669148445129|-1.481598854064941|XArbitraryZVertical|0.5774120261422182|-0.3859091637685458|0.6369071160663694|-0.3346923413847044|-0.4771939814090729|0.8780873417854309|-0.03533893823623657|0|0|0|-1|-1|3
2021-04-22 22:19:32.072 +0100|141640.531785|-1.111785888671875|1.743743896484375|-1.214385986328125|141640.511825|-3.120309199053632|-1.502525354340423|-1.05521818665226|1.543235421180725|-2.335352420806885|-0.5313408970832825|-0.3943417072296143|0.7234519124031067|-1.627697587013245|XArbitraryZVertical|0.5936248672828742|-0.3616524410649197|0.6277522481336356|-0.3503488312079636|-0.4918896555900574|0.8700078129768372|-0.03363405913114548|0|0|0|-1|-1|3
2021-04-22 22:19:32.092 +0100|141640.551745|-0.9428253173828125|1.42156982421875|-0.63885498046875|141640.531785|-3.049824291341682|-1.474644921832264|-1.045809239770227|2.127156257629395|-0.8569912910461426|-0.1844957768917084|-0.5668641924858093|0.8769327998161316|-1.301340222358704|XArbitraryZVertical|0.598813151381428|-0.3425847214808734|0.6252753286417618|-0.3648140192569535|-0.49888676404953|0.8653303980827332|-0.04811703786253929|0|0|0|-1|-1|3
2021-04-22 22:19:32.112 +0100|141640.571706|-0.7569580078125|1.085540771484375|-0.0100250244140625|141640.551745|-2.958151304843708|-1.396555690449851|-1.036572510006466|2.398361682891846|0.6589980125427246|-0.1931997835636139|-0.5199300646781921|0.6707990169525146|-0.6977559924125671|XArbitraryZVertical|0.5908739866222047|-0.326699721418387|0.6333901760660853|-0.3780901868483679|-0.5014636516571045|0.8606641292572021|-0.08827044814825058|0|0|0|-1|-1|3
2021-04-22 22:19:32.132 +0100|141640.591666|-0.70074462890625|1.018402099609375|0.3191680908203125|141640.571706|-2.884420825618455|-1.309833126256825|-1.021726819728271|1.583544731140137|1.635635614395142|-0.4564333558082581|-0.2914924621582031|0.2635661959648132|-0.02548688650131226|XArbitraryZVertical|0.5766636814552772|-0.3164359769313604|0.6479385931383614|-0.3840612479328611|-0.5042237043380737|0.8530105352401733|-0.1346545368432999|0|0|0|-1|-1|3
2021-04-22 22:19:32.152 +0100|141640.611626|-0.7996826171875|0.9373931884765625|0.0750274658203125|141640.591666|-2.845991104245146|-1.237250373784584|-1.004418653976216|0.9390574097633362|2.334592342376709|-0.5948339104652405|-0.1968361735343933|0.1457428336143494|0.4862964153289795|XArbitraryZVertical|0.560516531238604|-0.3130246002371551|0.6651874515009092|-0.3812644902828258|-0.507006824016571|0.8438501954078674|-0.175673633813858|0|0|0|-1|-1|3
2021-04-22 22:19:32.172 +0100|141640.631586|-0.9512786865234375|0.9908294677734375|-0.2562713623046875|141640.611626|-2.83101071521154|-1.17343571458584|-0.9874807141592135|0.4786898493766785|2.778776407241821|-0.6072749495506287|-0.2562658786773682|0.1337271332740784|0.3715661466121674|XArbitraryZVertical|0.542684091303691|-0.3145140108346736|0.6838972149164362|-0.3726389945634729|-0.507879912853241|0.8346410393714905|-0.213149830698967|0|0|0|-1|-1|3
2021-04-22 22:19:32.192 +0100|141640.651546|-1.02642822265625|0.927520751953125|-0.2360687255859375|141640.631586|-2.823348712299825|-1.108153516860486|-0.9759580216716264|0.4297178089618683|3.114564180374146|-0.2977344393730164|-0.4024651646614075|0.1549910306930542|0.03139889240264893|XArbitraryZVertical|0.5220491175876358|-0.3200201736131436|0.7025547337242471|-0.362586326587557|-0.5014662742614746|0.8282391428947449|-0.250103622674942|0|0|0|-1|-1|3
2021-04-22 22:19:32.212 +0100|141640.671507|-0.9452362060546875|0.883819580078125|-0.2027130126953125|141640.651546|-2.809106343817742|-1.030276428438239|-0.9686389724407922|0.6422531604766846|3.483246088027954|0.02637651190161705|-0.5464165210723877|0.1149097681045532|0.02819475531578064|XArbitraryZVertical|0.4970338357247627|-0.3274479550796664|0.721566341664059|-0.3536627589451881|-0.4856734871864319|0.8241155743598938|-0.2914704084396362|0|0|0|-1|-1|3
2021-04-22 22:19:32.232 +0100|141640.6914672917|-1.119064331054688|1.009811401367188|-0.3599090576171875|141640.671507|-2.787192702916817|-0.9421039892303731|-0.963169247880698|0.6704107522964478|3.48877477645874|0.2076902985572815|-0.4977291226387024|0.06676602363586426|0.1784635186195374|XArbitraryZVertical|0.4686640742353864|-0.3353776125314907|0.7403207281442106|-0.3461232676433104|-0.461759477853775|0.82100510597229|-0.3357516825199127|0|0|0|-1|-1|3
2021-04-22 22:19:32.252 +0100|141640.7114272917|-1.054794311523438|0.9261322021484375|-0.2818603515625|141640.6914672917|-2.764966431652027|-0.8544017186090311|-0.9572966171015108|0.7652916312217712|3.564699411392212|0.07147163897752762|-0.6305538415908813|0.1458319425582886|0.02232223749160767|XArbitraryZVertical|0.4397334559268533|-0.3429304607730082|0.7578421901350902|-0.3386867495542344|-0.4342051148414612|0.8176381587982178|-0.37806636095047|0|0|0|-1|-1|3
2021-04-22 22:19:32.272 +0100|141640.7313872917|-0.8902130126953125|0.6744384765625|-0.3533172607421875|141640.7313872917|-2.740924827643626|-0.6857442590233822|-0.9327621845870447|0.2076369374990463|3.851760625839233|-0.3949575126171112|-0.550133228302002|-0.07359349727630615|0.1447989642620087|XArbitraryZVertical|0.3785545069835195|-0.355257632969283|0.7943041600088014|-0.3155463383212613|-0.3771743476390839|0.8032681941986084|-0.4609769880771637|0|0|0|-1|-1|3
2021-04-22 22:19:32.291 +0100|141640.7513472917|-0.88519287109375|0.517669677734375|-0.3625030517578125||||||||||||||||||||||||3
2021-04-22 22:19:32.312 +0100|141640.7713072917|-0.705963134765625|0.5978851318359375|-0.3264007568359375|141640.7513472917|-2.759791062647325|-0.6228100873793652|-0.9318981373050632|-0.8283110857009888|4.050689697265625|-0.4939916729927063|-0.546691358089447|-0.2695812582969666|0.1036114394664764|XArbitraryZVertical|0.3499066582354519|-0.3679546298576163|0.808858669137058|-0.2965171965089083|-0.3478403091430664|0.8027532696723938|-0.4843494296073914|0|0|0|-1|-1|3
2021-04-22 22:19:32.332 +0100|141640.7912682917|-0.6328277587890625|0.7005157470703125|-0.359466552734375|141640.7713072917|-2.794434965086646|-0.5672600588964525|-0.9478729140646549|-1.52472460269928|4.247889518737793|-0.3311375975608826|-0.4263113141059875|-0.2529118061065674|0.1709292232990265|XArbitraryZVertical|0.3209297052956696|-0.38856936877889|0.8193339199720641|-0.2733312693673072|-0.3134808838367462|0.8121763467788696|-0.4920359253883362|0|0|0|-1|-1|3
2021-04-22 22:19:32.351 +0100|141640.8112282917|-0.6363067626953125|0.7735137939453125|-0.4190826416015625|141640.7912682917|-2.831664589233762|-0.5127143229685868|-0.9742186876531664|-1.733194828033447|4.247114658355713|-0.1133235022425652|-0.3798922598361969|-0.1431359052658081|0.1523086130619049|XArbitraryZVertical|0.2912656102264592|-0.4127676438329317|0.8262494221673455|-0.2491971735395831|-0.2755950093269348|0.8272631764411926|-0.4895744323730469|0|0|0|-1|-1|3
2021-04-22 22:19:32.371 +0100|141640.8311882917|-0.69683837890625|0.880096435546875|-0.3625335693359375|141640.8112282917|-2.860818936232426|-0.4553862692689598|-1.001825910653737|-1.407334208488464|3.883031845092773|-0.007610748987644911|-0.394683837890625|-0.09590506553649902|0.0847962498664856|XArbitraryZVertical|0.2615124991069879|-0.435523935687089|0.8309303694643635|-0.2269031042661716|-0.2369538843631744|0.8424561023712158|-0.4838602244853973|0|0|0|-1|-1|3
2021-04-22 22:19:32.392 +0100|141640.8511482917|-0.685333251953125|0.8775177001953125|-0.130401611328125|141640.8311882917|-2.876130246925579|-0.3977414660747548|-1.019455186583041|-0.474589616060257|3.209615230560303|-0.02290430478751659|-0.4708682894706726|0.009642243385314941|0.07005065679550171|XArbitraryZVertical|0.2342330121126917|-0.4512929641704058|0.8353895041223437|-0.2087919775323943|-0.2028989046812057|0.8518227338790894|-0.4829391241073608|0|0|0|-1|-1|3
2021-04-22 22:19:32.411 +0100|141640.8711082917|-0.677978515625|0.7693634033203125|-0.0066070556640625|141640.8511482917|-2.875725749508277|-0.3407112551091385|-1.018301351780821|0.5206073522567749|2.480368852615356|0.02552971616387367|-0.5137778520584106|0.03423416614532471|0.3059235811233521|XArbitraryZVertical|0.2103937189638908|-0.4565214972620194|0.8419748094541591|-0.1959625445703794|-0.1753702014684677|0.8512178063392639|-0.4946452081203461|0|0|0|-1|-1|3
2021-04-22 22:19:32.431 +0100|141640.8910682917|-0.5735931396484375|0.6492156982421875|0.0209808349609375|141640.8711082917|-2.864772869838405|-0.2885031977570318|-1.005709408020168|0.7246425151824951|1.838558077812195|0.1362728327512741|-0.5345029830932617|-0.04661464691162109|0.4847164750099182|XArbitraryZVertical|0.190552622114284|-0.4549842277461407|0.8492593553168324|-0.1882494055455126|-0.1523561775684357|0.8445420861244202|-0.5133581161499023|0|0|0|-1|-1|3
2021-04-22 22:19:32.451 +0100|141640.9110292917|-0.4929046630859375|0.5608978271484375|-0.01593017578125|141640.8910682917|-2.851556934277501|-0.2464909037479033|-0.9950668083585422|0.4627212882041931|1.258716464042664|0.276523768901825|-0.4730190634727478|-0.1577655673027039|0.5461174249649048|XArbitraryZVertical|0.1753412217165209|-0.4530563094606149|0.8544643468901475|-0.1840822536606984|-0.1328463852405548|0.8387953639030457|-0.5279908776283264|0|0|0|-1|-1|3
2021-04-22 22:19:32.471 +0100|141640.9309892917|-0.4515228271484375|0.6183013916015625|-0.118865966796875|141640.9110292917|-2.836163805340629|-0.2135494295555194|-0.9907173701037316|0.1735075563192368|0.7647657990455627|0.4488985538482666|-0.3926323056221008|-0.261255145072937|0.5431618094444275|XArbitraryZVertical|0.1645693308274211|-0.4528762718937492|0.8569005827213069|-0.1831431600143736|-0.1161567270755768|0.836419403553009|-0.5356400609016418|0|0|0|-1|-1|3
2021-04-22 22:19:32.491 +0100|141640.9509492917|-0.3615570068359375|0.6466064453125|-0.153533935546875|141640.9309892917|-2.816806399805416|-0.1858794042886152|-0.9902531099956501|0.1224548295140266|0.4099765717983246|0.5661280155181885|-0.3603814244270325|-0.236723780632019|0.4400610327720642|XArbitraryZVertical|0.1570760887971707|-0.4536649553144805|0.8574549844247558|-0.1851659178885019|-0.1013647764921188|0.8361648321151733|-0.5390304327011108|0|0|0|-1|-1|3
2021-04-22 22:19:32.511 +0100|141640.9709092917|-0.306488037109375|0.6541595458984375|-0.1786651611328125|141640.9509492917|-2.795036705449295|-0.1619916143522568|-0.9887662631330445|0.2343273907899857|0.1631962954998016|0.5670914053916931|-0.2997054159641266|-0.2009493708610535|0.3930634260177612|XArbitraryZVertical|0.1516924777198748|-0.4535717171104915|0.8576183432174957|-0.1890850335741709|-0.08866125345230103|0.8353484272956848|-0.5425241589546204|0|0|0|-1|-1|3
2021-04-22 22:19:32.531 +0100|141640.9908692917|-0.268035888671875|0.6805419921875|-0.2287750244140625|141640.9709092917|-2.774469225888204|-0.1433758786385019|-0.9847403201620544|0.3110876679420471|-0.01084884721785784|0.4902995228767395|-0.2423079162836075|-0.1729574799537659|0.3672127723693848|XArbitraryZVertical|0.1481224153005139|-0.4520590781052235|0.8580047880849241|-0.1937275590211487|-0.07902687788009644|0.8331285119056702|-0.5474047064781189|0|0|0|-1|-1|3
2021-04-22 22:19:32.551 +0100|141641.0108292917|-0.19122314453125|0.6877288818359375|-0.3367919921875|141640.9908692917|-2.757176050977041|-0.1298279099481537|-0.9793128058477953|0.3452411890029907|-0.06996197253465652|0.4026627242565155|-0.2167524099349976|-0.1504732370376587|0.3519872426986694|XArbitraryZVertical|0.1458468908112195|-0.449753731859992|0.8585906739034759|-0.1981724533582962|-0.07218796014785767|0.8301143646240234|-0.5529005527496338|0|0|0|-1|-1|3
2021-04-22 22:19:32.571 +0100|141641.0307902917|-0.1308746337890625|0.65985107421875|-0.4520416259765625|141641.0108292917|-2.742795958928405|-0.1197634106427397|-0.9735971108223707|0.3102405071258545|-0.1320491433143616|0.3095673024654388|-0.1434009969234467|-0.142679750919342|0.2505759000778198|XArbitraryZVertical|0.1443412006530067|-0.4472306648784522|0.8592244900785403|-0.2021970758100022|-0.06718552112579346|0.8269138336181641|-0.5583006739616394|0|0|0|-1|-1|3
2021-04-22 22:19:32.591 +0100|141641.0507502917|-0.1036529541015625|0.703887939453125|-0.58740234375|141641.0307902917|-2.732736837069598|-0.1153713417258218|-0.970381365433483|0.06470341980457306|-0.2524873614311218|0.2189968228340149|-0.07755479216575623|-0.1704234480857849|0.1502785086631775|XArbitraryZVertical|0.1444580248226482|-0.4455528503832525|0.8592673984804177|-0.2056069984781998|-0.06503857672214508|0.8251012563705444|-0.5612290501594543|0|0|0|-1|-1|3
2021-04-22 22:19:32.611 +0100|141641.0707102917|-0.0764312744140625|0.7743682861328125|-0.6321868896484375|141641.0507502917|-2.727122502475168|-0.1170672248612609|-0.9720298351053241|-0.1708699315786362|-0.3769707083702087|0.1223595887422562|-0.04226192831993103|-0.1265996098518372|-0.00998234748840332|XArbitraryZVertical|0.1465639655678695|-0.4456857576788457|0.8581784287246295|-0.2083584165063351|-0.06583131104707718|0.826031506061554|-0.559766411781311|0|0|0|-1|-1|3
2021-04-22 22:19:32.631 +0100|141641.0906702917|-0.0132598876953125|0.8383636474609375|-0.6120758056640625|141641.0707102917|-2.724485020907331|-0.1229509020559669|-0.9766912826710871|-0.2709350883960724|-0.4273731410503387|0.07051823288202286|-0.01710376143455505|-0.07057845592498779|-0.07479965686798096|XArbitraryZVertical|0.150034784211113|-0.4468989435644385|0.8563745696553104|-0.210697862861061|-0.06865064054727554|0.8286498188972473|-0.5555418133735657|0|0|0|-1|-1|3
2021-04-22 22:19:32.651 +0100|141641.1106302917|0.022186279296875|0.9033966064453125|-0.5899810791015625|141641.0906702917|-2.724498723263489|-0.1307650743694426|-0.9829295239897968|-0.3211411237716675|-0.3550121486186981|0.009304052218794823|0.03517423570156097|-0.005649030208587646|-0.06753426790237427|XArbitraryZVertical|0.1538512926244154|-0.448780052805855|0.8543132925694068|-0.2123091887802087|-0.07231415063142776|0.8321256041526794|-0.5498524904251099|0|0|0|-1|-1|3
2021-04-22 22:19:32.671 +0100|141641.1305902917|0.0351715087890625|0.8754425048828125|-0.63079833984375|141641.1106302917|-2.726083170348769|-0.1374003983395306|-0.9884223503846867|-0.2261469811201096|-0.1795082837343216|-0.01397525984793901|0.08877676725387573|0.0633082389831543|-0.04456222057342529|XArbitraryZVertical|0.1567403505369345|-0.4505775546716563|0.8526645564160286|-0.2130155903954833|-0.07533379644155502|0.8351593017578125|-0.5448246598243713|0|0|0|-1|-1|3
2021-04-22 22:19:32.691 +0100|141641.1505512917|0.0566253662109375|0.9007415771484375|-0.7050323486328125|141641.1305902917|-2.727948376604889|-0.1408388261976025|-0.9927619971880474|-0.2373596131801605|-0.01606219820678234|-0.03092885576188564|0.1121891438961029|0.04596036672592163|-0.07731813192367554|XArbitraryZVertical|0.1581061339298239|-0.4522366838933939|0.8515584164555717|-0.2129150754299155|-0.07669720053672791|0.8375382423400879|-0.5409688353538513|0|0|0|-1|-1|3
2021-04-22 22:19:32.711 +0100|141641.1705112917|0.0356903076171875|0.9416961669921875|-0.744354248046875|141641.1505512917|-2.730320464580151|-0.1424121479334031|-0.9978069952079105|-0.2780218124389648|0.04009444266557693|-0.03462265804409981|0.1359379887580872|0.04461842775344849|-0.1471654176712036|XArbitraryZVertical|0.1586072726417131|-0.4544388879201558|0.8504781573663361|-0.2121699074482689|-0.07694752514362335|0.8402840495109558|-0.5366580486297607|0|0|0|-1|-1|3
2021-04-22 22:19:32.731 +0100|141641.1904712917|0.024658203125|0.923797607421875|-0.6589813232421875|141641.1705112917|-2.733037090732716|-0.1432110673632795|-1.001977228662935|-0.2226073443889618|0.07487261295318604|-0.07645905017852783|0.1084001064300537|0.09653353691101074|-0.2122845053672791|XArbitraryZVertical|0.1586299296007243|-0.4563713602782175|0.8496995629817763|-0.2111220432293727|-0.07687545567750931|0.8425376415252686|-0.5331234335899353|0|0|0|-1|-1|3
2021-04-22 22:19:32.751 +0100|141641.2104312917|0.0252227783203125|0.8803558349609375|-0.5247650146484375|141641.1904712917|-2.734494898609784|-0.1417545541609656|-1.004313674473592|-0.07588067650794983|0.1188847050070763|-0.08502794802188873|0.1016078814864159|0.09562826156616211|-0.1515623331069946|XArbitraryZVertical|0.1578458695926463|-0.4576487928586098|0.8494048375621461|-0.2101278923361852|-0.07582053542137146|0.8437938094139099|-0.531284511089325|0|0|0|-1|-1|3
2021-04-22 22:19:32.771 +0100|141641.2303912917|-0.0017547607421875|0.8451385498046875|-0.3943939208984375|141641.2104312917|-2.736692974815098|-0.1409190924557449|-1.003826891524616|0.08854712545871735|0.1533974558115005|-0.04207516089081764|0.109598770737648|0.0497012734413147|-0.0343780517578125|XArbitraryZVertical|0.1569531561832403|-0.4576991165178919|0.8498185151300666|-0.2090118186059276|-0.07543434947729111|0.8435325026512146|-0.5317544341087341|0|0|0|-1|-1|3
2021-04-22 22:19:32.791 +0100|141641.2503522917|-0.050201416015625|0.84527587890625|-0.3573150634765625|141641.2303912917|-2.736366160913221|-0.1369933978626962|-1.001634579743334|0.0939125195145607|0.1952577233314514|0.03170549869537354|0.07584169507026672|-0.0006786584854125977|0.1129473447799683|XArbitraryZVertical|0.1552019899750165|-0.4571364822298839|0.850619018667908|-0.2082932559815594|-0.07359863817691803|0.8423530459403992|-0.5338771343231201|0|0|0|-1|-1|3
2021-04-22 22:19:32.811 +0100|141641.2703122917|-0.076812744140625|0.8685760498046875|-0.4758148193359375|141641.2503522917|-2.733872598355489|-0.1309971327176047|-1.001350271965865|-0.06798886507749557|0.1816205680370331|0.1142465323209763|0.01786079257726669|0.006402015686035156|0.197234570980072|XArbitraryZVertical|0.1532008143271943|-0.4574455410921038|0.8508901060787238|-0.207988458982038|-0.07042732834815979|0.8421997427940369|-0.5345461964607239|0|0|0|-1|-1|3
2021-04-22 22:19:32.831 +0100|141641.2902722917|-0.0628204345703125|0.90985107421875|-0.5389404296875|141641.2703122917|-2.729735466850065|-0.1250588697151407|-1.004983161110222|-0.2422440350055695|0.06031784787774086|0.1459325700998306|0.002462416887283325|0.02626895904541016|0.09221768379211426|XArbitraryZVertical|0.1518925585482337|-0.4593155134988691|0.8500384691955915|-0.2083091763204835|-0.06686976552009583|0.8441529273986816|-0.5319158434867859|0|0|0|-1|-1|3
2021-04-22 22:19:32.850 +0100|141641.3102322917|-0.03619384765625|0.8661346435546875|-0.435791015625|141641.2902722917|-2.725492837481754|-0.1219328187736062|-1.009483888725725|-0.1110002994537354|-0.1173699647188187|0.1312809139490128|-0.008101582527160645|0.04670709371566772|-0.007650613784790039|XArbitraryZVertical|0.151880050085545|-0.4612587150499353|0.8487470569189296|-0.2092877857902154|-0.06474386155605316|0.8465572595596313|-0.5283457040786743|0|0|0|-1|-1|3
2021-04-22 22:19:32.870 +0100|141641.3301922917|-0.004302978515625|0.78057861328125|-0.354522705078125|141641.3102322917|-2.720665432424191|-0.121414585304808|-1.008563645156202|0.2288638800382614|-0.2162472754716873|0.1269242465496063|0.01991717517375946|0.03584474325180054|0.0588451623916626|XArbitraryZVertical|0.152702358045666|-0.4605494332369854|0.8485013884124669|-0.2112389237434976|-0.06456439197063446|0.8460670113563538|-0.5291523933410645|0|0|0|-1|-1|3
2021-04-22 22:19:32.890 +0100|141641.3501522917|0.01153564453125|0.7327728271484375|-0.3308258056640625|141641.3301922917|-2.713620793123406|-0.1198091282884264|-1.002565354359412|0.3499186336994171|-0.2006565481424332|0.1711316555738449|0.05699597299098969|-0.04105114936828613|0.166378915309906|XArbitraryZVertical|0.1531705265427966|-0.4575986948875803|0.8493188114443316|-0.214009586065521|-0.06432020664215088|0.8428542613983154|-0.5342844724655151|0|0|0|-1|-1|3
2021-04-22 22:19:32.910 +0100|141641.3701132917|0.0205841064453125|0.696014404296875|-0.338897705078125|141641.3501522917|-2.706964438526827|-0.1175589739075467|-0.9989354385899825|0.1239096373319626|-0.1279759556055069|0.1386846750974655|0.06469692289829254|-0.09452736377716064|0.2077193260192871|XArbitraryZVertical|0.1534450014762324|-0.4557667398744577|0.849644265197196|-0.2164167254501436|-0.06347624212503433|0.8408952951431274|-0.537462592124939|0|0|0|-1|-1|3
2021-04-22 22:19:32.930 +0100|141641.3900732917|0.0055694580078125|0.6970977783203125|-0.2962188720703125|141641.3701132917|-2.704016391380875|-0.1172865849889101|-1.000226451779743|-0.1926741302013397|-0.08239392936229706|0.05151089653372765|0.08645710349082947|-0.1378737092018127|0.201591968536377|XArbitraryZVertical|0.1541060246838577|-0.4561257854960499|0.8490365738681562|-0.2175721794352884|-0.06320273876190186|0.841593325138092|-0.5364012122154236|0|0|0|-1|-1|3
2021-04-22 22:19:32.950 +0100|141641.4100332917|0.04595947265625|0.7213592529296875|-0.1527862548828125|141641.3900732917|-2.705837446311444|-0.1206173318911418|-1.006529374756347|-0.435046523809433|-0.1154781058430672|-0.08049551397562027|0.0780518427491188|-0.1536361575126648|0.2112538814544678|XArbitraryZVertical|0.1556117163310662|-0.4586169037574893|0.847464089067124|-0.2173941248925554|-0.06434944272041321|0.8449808359146118|-0.5309110879898071|0|0|0|-1|-1|3
2021-04-22 22:19:32.970 +0100|141641.4299932917|0.01910400390625|0.7517242431640625|0.0063629150390625|141641.4100332917|-2.711990272061419|-0.1290000136491167|-1.014075982439631|-0.2498494684696198|-0.2226545214653015|-0.1457309871912003|0.09725691378116608|-0.1437318921089172|0.3365898132324219|XArbitraryZVertical|0.1583409037269726|-0.4614336189234896|0.8456495039562252|-0.216527869907083|-0.06797533482313156|0.848992645740509|-0.5240143537521362|0|0|0|-1|-1|3
2021-04-22 22:19:32.990 +0100|141641.4499532917|-0.1029205322265625|0.6122894287109375|0.11669921875|141641.4299932917|-2.71942081207052|-0.1420578441319029|-1.011637614167575|0.4866786003112793|-0.4708214402198792|-0.2765577733516693|0.1064920201897621|-0.0929412841796875|0.5101143717765808|XArbitraryZVertical|0.1619666928879589|-0.4595669994482225|0.8460002194098981|-0.2164461266368593|-0.075104720890522|0.8477016687393188|-0.5251299142837524|0|0|0|-1|-1|3
2021-04-22 22:19:33.010 +0100|141641.4699132917|-0.170806884765625|0.4566497802734375|0.4673614501953125|141641.4499532917|-2.728081060542591|-0.1638224253914556|-0.9947599576617085|0.9532840847969055|-1.009631633758545|-0.4657516777515411|0.03842111676931381|-0.1720943450927734|0.6064870357513428|XArbitraryZVertical|0.1679931167113773|-0.4506358398117298|0.8492205065454985|-0.2180144263887208|-0.08883617073297501|0.8386282324790955|-0.5374113321304321|0|0|0|-1|-1|3
2021-04-22 22:19:33.030 +0100|141641.4898742917|0.0034637451171875|0.39190673828125|0.9081268310546875|141641.4699132917|-2.744504594765278|-0.2047285175587818|-0.9790872171407905|0.2802342772483826|-1.743785381317139|-0.7074325680732727|-0.05730258673429489|-0.3587366938591003|0.8962287306785583|XArbitraryZVertical|0.1806742931147562|-0.4407843458274229|0.8512032701143015|-0.2202704917693109|-0.1133975312113762|0.8299885988235474|-0.5461319088935852|0|0|0|-1|-1|3
2021-04-22 22:19:33.050 +0100|141641.5098342917|-0.117584228515625|0.5867767333984375|0.8444061279296875|141641.4898742917|-2.77350663663366|-0.2728198526614611|-0.9801968356700883|-0.6658352017402649|-2.726223468780518|-0.8179000020027161|0.09796629846096039|-0.4503735899925232|1.382286548614502|XArbitraryZVertical|0.2032964272543067|-0.4365073364547152|0.8476146663029558|-0.222893626015179|-0.1500446647405624|0.830606997013092|-0.5362638235092163|0|0|0|-1|-1|3
2021-04-22 22:19:33.070 +0100|141641.5297942917|-0.30535888671875|0.711395263671875|0.6000823974609375|141641.5098342917|-2.810602276187851|-0.3715396786338483|-0.9883345251124611|-0.6342216730117798|-4.093913555145264|-0.8992503881454468|0.1495974212884903|-0.2814920544624329|1.405050277709961|XArbitraryZVertical|0.2371762580140185|-0.4329812491666357|0.8389633598164904|-0.2289440439460755|-0.199707418680191|0.8351109623908997|-0.5125493407249451|0|0|0|-1|-1|3
2021-04-22 22:19:33.090 +0100|141641.5497542917|-0.234344482421875|0.59375|0.486175537109375|141641.5297942917|-2.851322881315179|-0.5025969776833921|-0.989562375479687|-0.5099309086799622|-5.61822509765625|-1.107828617095947|0.003800421953201294|-0.1508497595787048|1.137787222862244|XArbitraryZVertical|0.283056701802192|-0.4234390633985191|0.8263912207968328|-0.2401164298175727|-0.264481782913208|0.8357858061790466|-0.4811565279960632|0|0|0|-1|-1|3
2021-04-22 22:19:33.110 +0100|141641.5697142917|-0.2047882080078125|0.6352996826171875|0.41693115234375|141641.5497542917|-2.902565630132433|-0.6719648609021706|-0.9889182767733253|-1.09026575088501|-7.027595520019531|-1.248282670974731|0.07348942756652832|-0.1973708868026733|0.9253508448600769|XArbitraryZVertical|0.3415546672668202|-0.4102245732805602|0.8064272717341983|-0.2544239748723346|-0.3421360552310944|0.8354319334030151|-0.4301124215126038|0|0|0|-1|-1|3
2021-04-22 22:19:33.130 +0100|141641.5896742917|-0.4898529052734375|1.02020263671875|-0.014495849609375|141641.5697142917|-2.970941958424498|-0.879043300533785|-0.9902299142958239|-1.476701736450195|-7.893362522125244|-1.338201642036438|0.2383009493350983|-0.2528548836708069|0.8056900501251221|XArbitraryZVertical|0.4096903402065501|-0.396501831995538|0.7761566571167601|-0.2692973369960556|-0.4224140048027039|0.8361521363258362|-0.3498802483081818|0|0|0|-1|-1|3
2021-04-22 22:19:33.150 +0100|141641.6096352917|-0.956390380859375|1.310775756835938|-0.7476043701171875|141641.5896742917|-3.033632224047217|-1.091814012549302|-0.9821359066605205|-0.9150093793869019|-8.099437713623047|-1.237769842147827|0.08608457446098328|0.09694892168045044|0.3797247707843781|XArbitraryZVertical|0.4789183820312973|-0.3777393206048798|0.7393541865971202|-0.2851414117049767|-0.4927623867988586|0.8316852450370789|-0.2559003829956055|0|0|0|-1|-1|3
2021-04-22 22:19:33.170 +0100|141641.6295952917|-1.4078369140625|1.708206176757812|-1.277740478515625|141641.6096352917|-3.071391450878795|-1.282597450299408|-0.9667320471465588|-0.5897245407104492|-7.816258907318115|-0.9925909042358398|-0.2641497254371643|0.4032228589057922|-0.3895421028137207|XArbitraryZVertical|0.5424432895572903|-0.3536046340518776|0.699322476491802|-0.3027658460153625|-0.5445667505264282|0.8230339288711548|-0.1614380776882172|0|0|0|-1|-1|3
2021-04-22 22:19:33.190 +0100|141641.6495552917|-1.694534301757812|1.8726806640625|-1.596588134765625|141641.6295952917|-3.091127153004006|-1.44731094755459|-0.9514221521117763|-0.09629175812005997|-7.041524887084961|-0.7144683599472046|-0.7658295631408691|0.8090181350708008|-1.117827177047729|XArbitraryZVertical|0.5970821037002381|-0.3282388662700584|0.6583209446198076|-0.3199466877302946|-0.5761054158210754|0.8142419457435608|-0.07150441408157349|0|0|0|-1|-1|3
2021-04-22 22:19:33.210 +0100|141641.6695152917|-2.056442260742188|1.968246459960938|-2.155593872070312|141641.6495552917|-3.080494723988198|-1.569538443564679|-0.9408582814444533|0.8031320571899414|-6.027895927429199|-0.2915533483028412|-1.034166812896729|1.042140007019043|-1.477729201316833|XArbitraryZVertical|0.6394019184359676|-0.3013215566716209|0.6206150841437873|-0.339422347671346|-0.5890944004058838|0.8080639839172363|-0.0007410123944282532|0|0|0|-1|-1|3
2021-04-22 22:19:33.230 +0100|141641.6894752917|-2.458480834960938|1.822769165039062|-2.72589111328125|141641.6695152917|-3.036503897335663|-1.642254083263337|-0.941319530293951|1.835384845733643|-4.743087291717529|0.2153087854385376|-1.359344959259033|1.141203045845032|-2.018290519714355|XArbitraryZVertical|0.6676609354316981|-0.2743088784733918|0.5890382800117321|-0.3633421955800565|-0.5872197151184082|0.8083356618881226|0.04203297197818756|0|0|0|-1|-1|3
2021-04-22 22:19:33.250 +0100|141641.7094362917|-2.922164916992188|1.682052612304688|-2.97857666015625|141641.6894752917|-2.96214238415108|-1.65994439387734|-0.9526454900170274|2.564085245132446|-3.022803783416748|0.4850825667381287|-1.79583477973938|1.070530891418457|-2.678228378295898|XArbitraryZVertical|0.6808636200768476|-0.2494443833924586|0.5670419591534664|-0.3907248191884125|-0.5772282481193542|0.814951479434967|0.051595538854599|0|0|0|-1|-1|3
2021-04-22 22:19:33.269 +0100|141641.7293962917|-3.362014770507812|1.023941040039062|-3.4329833984375|141641.7094362917|-2.859935634915672|-1.617787084358034|-0.9675223782337448|3.397383689880371|-1.100477457046509|0.532472550868988|-2.212994337081909|0.8938325643539429|-2.937508106231689|XArbitraryZVertical|0.6792258825196124|-0.2279850987181059|0.5578041136056759|-0.4189626362598243|-0.5667154788970947|0.8234825730323792|0.02665000967681408|0|0|0|-1|-1|3
2021-04-22 22:19:33.290 +0100|141641.7493562917|-3.558303833007812|0.8045806884765625|-3.081893920898438|141641.7293962917|-2.73756396998616|-1.518724234024432|-0.9760357239322458|3.324331998825073|0.9450621604919434|0.2313824892044067|-2.71977686882019|0.4021094441413879|-3.327892303466797|XArbitraryZVertical|0.6639566455730961|-0.2111394855953162|0.5628146854479821|-0.4447713995292893|-0.559551477432251|0.8282826542854309|-0.02916338108479977|0|0|0|-1|-1|3
2021-04-22 22:19:33.310 +0100|141641.7693162917|-3.708984375|0.4738311767578125|-2.61865234375|141641.7493562917|-2.613415104625937|-1.373972986004766|-0.9665063147193564|4.001022338867188|3.420168399810791|-0.3964958488941193|-2.942579030990601|-0.1114346981048584|-3.123051404953003|XArbitraryZVertical|0.6358928999895869|-0.2002128254740439|0.5839655037076755|-0.463184081435858|-0.557208240032196|0.8229057192802429|-0.1111100912094116|0|0|0|-1|-1|3
2021-04-22 22:19:33.329 +0100|141641.7892762917|-3.896255493164062|-1.405197143554688|-1.342758178710938|141641.7693162917|-2.478797025537458|-1.16746597921114|-0.9225718676749843|4.64102029800415|6.230216979980469|-1.604647397994995|-3.129231214523315|-0.02693980932235718|-2.444471597671509|XArbitraryZVertical|0.5875229396893235|-0.190608162429793|0.6267264657917622|-0.4750782298448729|-0.5553247928619385|0.7971570491790771|-0.2369706481695175|0|0|0|-1|-1|3
2021-04-22 22:19:33.349 +0100|141641.8092362917|-3.438491821289062|-0.888275146484375|0.3644866943359375|141641.7892762917|-2.429857615546303|-0.9732751703373698|-0.844911440553299|1.483152627944946|9.312153816223145|-3.618257999420166|-3.451736450195312|-1.533862709999084|-1.353220343589783|XArbitraryZVertical|0.526080247023717|-0.1910889903881653|0.68888555536353|-0.4606098040877337|-0.5487832427024841|0.7479123473167419|-0.3734491467475891|0|0|0|-1|-1|3
2021-04-22 22:19:33.369 +0100|141641.8291972917|-3.335006713867188|1.812576293945312|2.65130615234375|141641.8092362917|-2.521479174281423|-0.8327507644375393|-0.776188656491602|-1.303026795387268|11.27153015136719|-5.804409503936768|-2.922354698181152|-2.114002227783203|0.5370637178421021|XArbitraryZVertical|0.462116058544468|-0.2153647211870555|0.7594818500599426|-0.4040474047117908|-0.5279024243354797|0.7005648016929626|-0.4801335632801056|0|0|0|-1|-1|3
2021-04-22 22:19:33.389 +0100|141641.8491572917|-3.482986450195312|2.28192138671875|2.3394775390625|141641.8291972917|-2.659033201237618|-0.6771032478203109|-0.6814527114479645|1.846249938011169|13.71932888031006|-7.806118488311768|-3.091534614562988|0.5416317582130432|2.778156280517578|XArbitraryZVertical|0.3792771962013378|-0.231275859394748|0.8367406138974615|-0.3201960758670379|-0.4866060316562653|0.6299219727516174|-0.6053205728530884|0|0|0|-1|-1|3
2021-04-22 22:19:33.409 +0100|141641.8691172917|-4.127853393554688|-2.633071899414062|0.843902587890625|141641.8491572917|-2.778846561334535|-0.4666252886198564|-0.5460033370801335|2.372123956680298|13.71301364898682|-7.406703472137451|-2.733118295669556|2.127726554870605|2.913586378097534|XArbitraryZVertical|0.2663043378492688|-0.2178553597343829|0.910263213863587|-0.230308622664458|-0.384466141462326|0.5192757844924927|-0.7632420659065247|0|0|0|-1|-1|3
2021-04-22 22:19:33.429 +0100|141641.8890772917|-4.209793090820312|1.09625244140625|4.723724365234375|141641.8691172917|-2.9491535573454|-0.2976001934413737|-0.5466799036193257|-7.705037593841553|10.03225898742676|-4.687983989715576|-4.373441219329834|-1.634310960769653|1.447960138320923|XArbitraryZVertical|0.1677351225549661|-0.2520170398596213|0.9439853099003507|-0.1313175265173688|-0.2504904866218567|0.5198538899421692|-0.8167046904563904|0|0|0|-1|-1|3
2021-04-22 22:19:33.449 +0100|141641.9090372917|-1.088134765625|0.651092529296875|4.208984375|141641.8890772917|-3.083064880388783|-0.212284604867392|-0.75631807548465|-14.69783115386963|7.46656608581543|-0.7246462106704712|-4.288871288299561|-0.3621672391891479|4.56933069229126|XArbitraryZVertical|0.1091578251979558|-0.3640943100564759|0.9225756013049878|-0.06613788737826674|-0.1532518416643143|0.6862480044364929|-0.7110397815704346|0|0|0|-1|-1|3
2021-04-22 22:19:33.469 +0100|141641.9289982917|-0.269012451171875|2.84466552734375|2.060043334960938|141641.9090372917|-3.131849047284641|-0.1149175488124239|-1.045892691259803|-12.38126659393311|5.49854850769043|1.807531952857971|-1.794985175132751|-0.5059060454368591|5.117559432983398|XArbitraryZVertical|0.05218062489680403|-0.4983622196925666|0.8647719407172727|-0.03289447881748483|-0.05746195092797279|0.8653722405433655|-0.4978245496749878|0|0|0|-1|-1|3
2021-04-22 22:19:33.489 +0100|141641.9489582917|-0.3155364990234375|1.23736572265625|1.758956909179688|141641.9289982917|-3.113262071162836|-0.01359855350023238|-1.192648803634804|-1.696572065353394|3.003303289413452|-0.2878341376781464|-0.243147999048233|1.741502285003662|2.902017116546631|XArbitraryZVertical|0.01358000060515431|-0.5614559386665612|0.8272493802327265|-0.01553787661695047|-0.005020427983254194|0.9293501377105713|-0.3691656291484833|0|0|0|-1|-1|3
2021-04-22 22:19:33.509 +0100|141641.9689182917|0.3457489013671875|-0.3566741943359375|1.370361328125|141641.9489582917|3.093570414677947|-0.036493802748924|-1.137317348508578|6.061546802520752|1.872375845909119|-2.626577615737915|-0.4417665898799896|0.824774444103241|2.159923791885376|XArbitraryZVertical|0.002443334062843141|-0.5386263808016328|0.8424771259125756|0.01040444684955483|-0.01532512530684471|0.907509982585907|-0.4197513163089752|0|0|0|-1|-1|3
2021-04-22 22:19:33.529 +0100|141641.9888782917|-0.1060638427734375|-0.67864990234375|0.2570648193359375|141641.9689182917|2.989176866325238|-0.1074831557693757|-0.9975666404358091|6.404101371765137|0.02383776009082794|-3.009238958358765|0.3206024169921875|-0.820760190486908|2.065890312194824|XArbitraryZVertical|0.01066758821767347|-0.4798717066361143|0.8763086957485741|0.04114114981716489|-0.05818114802241325|0.8401537537574768|-0.5392187237739563|0|0|0|-1|-1|3
2021-04-22 22:19:33.549 +0100|141642.0088382917|-0.2916412353515625|0.0337066650390625|-0.2660064697265625|141641.9888782917|2.922892908820662|-0.1777174489621565|-0.8906261483247879|3.545925140380859|-1.495660662651062|-2.106355905532837|0.1556330621242523|-1.582931756973267|1.166809558868408|XArbitraryZVertical|0.03278687245289638|-0.4352185415865936|0.8977179038100668|0.06010413547941106|-0.1111835911870003|0.7774657011032104|-0.6190196871757507|0|0|0|-1|-1|3
2021-04-22 22:19:33.569 +0100|141642.0287982917|-0.4016571044921875|0.7741241455078125|-0.266448974609375|141642.0088382917|2.894379593495896|-0.2377666975810369|-0.8351422536690618|1.897133946418762|-2.157554626464844|-0.9610345363616943|-0.1334590762853622|-0.9017012715339661|0.4404304623603821|XArbitraryZVertical|0.05793843103305642|-0.4129731512166557|0.9066303042021306|0.06417127269843872|-0.1580594927072525|0.7413919568061829|-0.6521926522254944|0|0|0|-1|-1|3
2021-04-22 22:19:33.589 +0100|141642.0487592917|-0.512939453125|0.9177398681640625|-0.3894805908203125|141642.0287982917|2.88937526393794|-0.2826066622190372|-0.7981933882489018|1.66114330291748|-1.908828020095825|-0.359018474817276|-0.1918751746416092|-0.06117427349090576|0.3864989876747131|XArbitraryZVertical|0.08034809689105939|-0.397979404323699|0.9118679899320385|0.06044397378029428|-0.1946446299552917|0.7160962224006653|-0.6703131794929504|0|0|0|-1|-1|3
2021-04-22 22:19:33.609 +0100|141642.0687192917|-0.2570037841796875|0.728546142578125|-0.8742218017578125|141642.0487592917|2.898163298348677|-0.3089085267121444|-0.767296072222121|1.404024839401245|-1.346354842185974|0.0530218817293644|-0.2714648842811584|0.2150792479515076|0.3599287271499634|XArbitraryZVertical|0.09669694554547704|-0.384434345696726|0.9164793579494001|0.05409047299672311|-0.2188299745321274|0.6941915154457092|-0.6857198476791382|0|0|0|-1|-1|3
2021-04-22 22:19:33.629 +0100|141642.0886792917|0.0289459228515625|0.579833984375|-0.916290283203125|141642.0687192917|2.914240196723546|-0.322010486549023|-0.7486870153390924|0.7042077779769897|-1.186434388160706|0.5013300776481628|-0.14364393055439|0.1225446462631226|-0.05830627679824829|XArbitraryZVertical|0.1073045342276239|-0.3755277723050487|0.9194299877566645|0.04596969627941161|-0.2318438142538071|0.6806774735450745|-0.6949292421340942|0|0|0|-1|-1|3
2021-04-22 22:19:33.649 +0100|141642.1086392917|-0.1555633544921875|0.809783935546875|-0.9608612060546875|141642.0886792917|2.934206988069691|-0.3353302454116309|-0.7464873682252898|0.002199408365413547|-1.537596225738525|0.8198471665382385|0.2411598861217499|-0.09685057401657104|-0.2353520393371582|XArbitraryZVertical|0.1173428582347334|-0.3736773577211616|0.9194592728230575|0.03450494051438645|-0.241571381688118|0.6790643930435181|-0.6931917667388916|0|0|0|-1|-1|3
2021-04-22 22:19:33.669 +0100|141642.1285992917|-0.4238739013671875|1.047271728515625|-1.020965576171875|141642.1086392917|2.955789799104719|-0.3543267544700853|-0.7573674496358698|-0.4200618267059326|-1.774087071418762|0.9557394981384277|0.1819725930690765|0.02339202165603638|-0.2539937496185303|XArbitraryZVertical|0.1292865497129817|-0.3775327108937677|0.9167089583798659|0.01997247021650861|-0.2521167993545532|0.6870108842849731|-0.6815080642700195|0|0|0|-1|-1|3
2021-04-22 22:19:33.689 +0100|141642.1485602917|-0.2193756103515625|1.074859619140625|-1.045486450195312|141642.1285992917|2.976931007150785|-0.3735550351765304|-0.7685598387789329|0.0783383697271347|-1.571985363960266|0.9035843014717102|-0.1207509636878967|0.3085609078407288|-0.337640643119812|XArbitraryZVertical|0.141273348246823|-0.3812809538864671|0.9135842093256245|0.005535041217278084|-0.262351006269455|0.6951006054878235|-0.6693333387374878|0|0|0|-1|-1|3
2021-04-22 22:19:33.709 +0100|141642.1685202917|-0.136260986328125|0.80621337890625|-0.8698577880859375|141642.1485602917|3.007642950471114|-0.3797788696994569|-0.7629858634978592|1.214202404022217|-1.244926810264587|0.9269745349884033|-0.02244570851325989|0.4092281460762024|-0.3819172978401184|XArbitraryZVertical|0.1503195949488909|-0.3765185423893226|0.9140868709370237|-0.009118304772344508|-0.2679439187049866|0.6910826563835144|-0.6712756156921387|0|0|0|-1|-1|3
2021-04-22 22:19:33.729 +0100|141642.1884802917|-0.248016357421875|0.70684814453125|-1.144729614257812|141642.1685202917|3.045754214565251|-0.3771708877006268|-0.7432365567825114|1.43544590473175|-1.128650784492493|0.9616866707801819|0.1264069080352783|0.2005069851875305|-0.2077291011810303|XArbitraryZVertical|0.1573870082924708|-0.3646431871987216|0.9174319476655511|-0.02415654382758976|-0.2711667120456696|0.676674485206604|-0.6845293641090393|0|0|0|-1|-1|3
2021-04-22 22:19:33.749 +0100|141642.2084402917|-0.3133697509765625|0.6545257568359375|-1.2183837890625|141642.1884802917|3.082036291506424|-0.3758987211975258|-0.7302488060908655|0.6657028198242188|-1.186466336250305|1.040214896202087|0.07556238770484924|0.02621221542358398|-0.3842043280601501|XArbitraryZVertical|0.1640064626549137|-0.3558181688715359|0.9192094201784794|-0.03936489052618194|-0.273499071598053|0.6670550107955933|-0.6929906010627747|0|0|0|-1|-1|3
2021-04-22 22:19:33.769 +0100|141642.2284002917|-0.1075439453125|0.74493408203125|-0.91162109375|141642.2084402917|3.110535504006108|-0.3809079768082755|-0.7347488286695394|-0.2748284041881561|-1.211930751800537|1.099438905715942|-0.02578720450401306|-0.004797756671905518|-0.5547280311584473|XArbitraryZVertical|0.1711754702444499|-0.3553727807111414|0.9173439361211818|-0.05375383794132276|-0.2758482694625854|0.6704007983207703|-0.6888182759284973|0|0|0|-1|-1|3
2021-04-22 22:19:33.789 +0100|141642.2483602917|-0.060821533203125|0.885986328125|-0.66180419921875|141642.2284002917|3.133873896725035|-0.3876294299314041|-0.7524790135894543|-0.6472504138946533|-1.072557210922241|1.129817366600037|0.08516988158226013|0.02315288782119751|-0.3364625573158264|XArbitraryZVertical|0.1777386738364698|-0.3612347696815395|0.912905697168499|-0.06724471178997549|-0.2759350538253784|0.6834505200386047|-0.6758368015289307|0|0|0|-1|-1|3
2021-04-22 22:19:33.809 +0100|141642.2683212917|-0.1585235595703125|0.97442626953125|-0.90704345703125|141642.2483602917|-3.128957635101922|-0.3937567865312243|-0.7726976242016798|-0.6782429218292236|-0.9234005808830261|0.9989749193191528|0.2348566949367523|0.1575208306312561|-0.01620978116989136|XArbitraryZVertical|0.1835217215215502|-0.3683776186318575|0.9079131602805227|-0.07944449427691908|-0.2747124135494232|0.6980693340301514|-0.6612353920936584|0|0|0|-1|-1|3
2021-04-22 22:19:33.829 +0100|141642.2882812917|-0.21136474609375|0.8967742919921875|-1.048873901367188|141642.2683212917|-3.112719266244102|-0.3988526404934229|-0.7916926774676326|-0.6197500824928284|-0.7501742243766785|0.7764717936515808|0.144629031419754|0.222064733505249|-0.1952082514762878|XArbitraryZVertical|0.1882246077705324|-0.3752688380822282|0.9031866215154184|-0.08943583323771759|-0.2728789448738098|0.7115436196327209|-0.647489607334137|0|0|0|-1|-1|3
2021-04-22 22:19:33.848 +0100|141642.3082412917|-0.1737823486328125|0.6755828857421875|-0.8332061767578125|141642.2882812917|-3.100085012747873|-0.4035701796749349|-0.8059659253935288|-0.3109785616397858|-0.6661014556884766|0.6408334970474243|0.06154143810272217|0.2329064011573792|-0.4026247262954712|XArbitraryZVertical|0.192297510181259|-0.3802984378299121|0.8994059892270527|-0.09728262985463683|-0.2719142138957977|0.7214998006820679|-0.6367895603179932|0|0|0|-1|-1|3
2021-04-22 22:19:33.868 +0100|141642.3282012917|-0.106689453125|0.644561767578125|-0.6008453369140625|141642.3082412917|-3.084427546730796|-0.4054804419958877|-0.8141729478567652|-0.05206357687711716|-0.68808913230896|0.6931114792823792|0.06151100993156433|0.008955776691436768|-0.286827564239502|XArbitraryZVertical|0.1959071976593741|-0.3823836358063961|0.8968248342061341|-0.1053963809770939|-0.2707851827144623|0.7271581292152405|-0.6308062672615051|0|0|0|-1|-1|3
2021-04-22 22:19:33.888 +0100|141642.3481612917|-0.2078857421875|0.8088836669921875|-0.6119232177734375|141642.3282012917|-3.06524106838328|-0.4069856570750701|-0.8223375802235898|-0.2292520254850388|-0.8391806483268738|0.8192595839500427|0.18740513920784|-0.1114623546600342|-0.003692150115966797|XArbitraryZVertical|0.2000525751652318|-0.3840787405274456|0.8940038613519626|-0.1149768336073877|-0.2693752348423004|0.7327385544776917|-0.6249249577522278|0|0|0|-1|-1|3
2021-04-22 22:19:33.908 +0100|141642.3681222917|-0.200714111328125|0.7895965576171875|-0.6592559814453125|141642.3481612917|-3.046627638132838|-0.40918531672518|-0.8339917539283387|-0.2287134677171707|-0.7308847308158875|0.8031109571456909|0.05467173457145691|0.04388010501861572|0.02638077735900879|XArbitraryZVertical|0.2043724006044738|-0.3873045194470729|0.8903261891784049|-0.1246858894388524|-0.2673333883285522|0.740619421005249|-0.6164542436599731|0|0|0|-1|-1|3
2021-04-22 22:19:33.928 +0100|141642.3880822917|-0.1909027099609375|0.678436279296875|-0.5650787353515625|141642.3681222917|-3.02526574859892|-0.4069566894676527|-0.8408876624958479|0.1788359731435776|-0.6265572309494019|0.7758815884590149|0.07771286368370056|0.0508914589881897|-0.0422896146774292|XArbitraryZVertical|0.207403277708379|-0.3883452162841021|0.8877677732467996|-0.1343145899972489|-0.2639310359954834|0.7452353239059448|-0.6123437285423279|0|0|0|-1|-1|3
2021-04-22 22:19:33.948 +0100|141642.4080422917|-0.1045684814453125|0.5978240966796875|-0.4333343505859375|141642.3880822917|-3.001272255440603|-0.4004323801216722|-0.8414005093531853|0.3191524147987366|-0.5139102339744568|0.7077191472053528|0.05381819605827332|-0.04422277212142944|0.003180384635925293|XArbitraryZVertical|0.2091507515176336|-0.3865303083027834|0.8866739054403544|-0.1437348439115604|-0.2597812712192535|0.7455771565437317|-0.6137005686759949|0|0|0|-1|-1|3
2021-04-22 22:19:33.968 +0100|141642.4280022917|-0.1581573486328125|0.666015625|-0.552215576171875|141642.4080422917|-2.980102716404643|-0.3945929442692679|-0.8427853475776977|0.06496769934892654|-0.493084192276001|0.6421135663986206|0.1405006647109985|-0.1437320113182068|0.1742959022521973|XArbitraryZVertical|0.2106398213828556|-0.38536241413924|0.8854350999062666|-0.1520902582800189|-0.2557960450649261|0.7464993596076965|-0.6142533421516418|0|0|0|-1|-1|3
2021-04-22 22:19:33.988 +0100|141642.4479622917|-0.18603515625|0.668426513671875|-0.6109771728515625|141642.4280022917|-2.963644734642684|-0.3915116447637187|-0.8481450548232778|-0.096037358045578|-0.4352841079235077|0.5871180295944214|0.09787654876708984|-0.09957331418991089|0.09205889701843262|XArbitraryZVertical|0.2124413933324216|-0.3862679220274051|0.8833654910952123|-0.1591577197968055|-0.25237175822258|0.7500548958778381|-0.6113315224647522|0|0|0|-1|-1|3
2021-04-22 22:19:34.008 +0100|141642.4679222917|-0.184112548828125|0.663482666015625|-0.5349273681640625|141642.4479622917|-2.9485896047553|-0.3887522036639771|-0.8543231583192558|-0.09547874331474304|-0.4192928969860077|0.5548348426818848|0.08037412166595459|-0.08965271711349487|-0.006502270698547363|XArbitraryZVertical|0.2141464446798012|-0.3876575409605334|0.8811408610784571|-0.1656921937333678|-0.2489227056503296|0.7541266083717346|-0.6077258586883545|0|0|0|-1|-1|3
2021-04-22 22:19:34.028 +0100|141642.4878832917|-0.1652984619140625|0.6769561767578125|-0.471405029296875|141642.4679222917|-2.935467546452306|-0.3866547372726624|-0.859928056953422|-0.1299190670251846|-0.3716506659984589|0.460227906703949|0.04849416017532349|-0.08537185192108154|0.04041773080825806|XArbitraryZVertical|0.2157969998901656|-0.3889350447463956|0.8790743774143744|-0.1714341673018025|-0.2460497170686722|0.7577956318855286|-0.6043223738670349|0|0|0|-1|-1|3
2021-04-22 22:19:34.048 +0100|141642.5078432917|-0.159210205078125|0.738555908203125|-0.5504913330078125|141642.4878832917|-2.926304436008117|-0.386952343832022|-0.8671572148986921|-0.3164932727813721|-0.3502723574638367|0.3731564879417419|0.07701100409030914|-0.08391976356506348|0.136146605014801|XArbitraryZVertical|0.2177643267138261|-0.3911504220534071|0.8767035759151636|-0.1759856663568749|-0.2441557943820953|0.7624927759170532|-0.5991600751876831|0|0|0|-1|-1|3
2021-04-22 22:19:34.068 +0100|141642.5278032917|-0.1304931640625|0.739532470703125|-0.59844970703125|141642.5078432917|-2.921612676197967|-0.3904144387278255|-0.8769727666442619|-0.4384886622428894|-0.3518800437450409|0.2843281626701355|0.08246462047100067|-0.04071873426437378|0.06363546848297119|XArbitraryZVertical|0.2202772851369156|-0.3947115133890938|0.873792720346225|-0.1793522444892901|-0.2433685809373856|0.768806517124176|-0.5913614630699158|0|0|0|-1|-1|3
2021-04-22 22:19:34.088 +0100|141642.5477632917|-0.101287841796875|0.741363525390625|-0.5301361083984375|141642.5278032917|-2.91824195556368|-0.3950063802760841|-0.8859997740729674|-0.284686267375946|-0.3600262403488159|0.2696877717971802|0.1136859208345413|-0.03603816032409668|-0.01258242130279541|XArbitraryZVertical|0.2230177330245194|-0.397943463514205|0.871014075581665|-0.1823151673865319|-0.2434009164571762|0.7745477557182312|-0.5838081836700439|0|0|0|-1|-1|3
2021-04-22 22:19:34.108 +0100|141642.5677232917|-0.1483154296875|0.776824951171875|-0.4850616455078125|141642.5477632917|-2.91253350424146|-0.3976671017266983|-0.8914710846216128|-0.1299166679382324|-0.3716320097446442|0.275825023651123|0.1237711161375046|-0.04842889308929443|0.03961467742919922|XArbitraryZVertical|0.2253564577725809|-0.3994911425441931|0.8689900169664337|-0.1856818217496965|-0.2433085441589355|0.777996838092804|-0.5792425870895386|0|0|0|-1|-1|3
2021-04-22 22:19:34.128 +0100|141642.5876842917|-0.146484375|0.7952728271484375|-0.4847564697265625|141642.5876842917|-2.901865581422505|-0.406349263029565|-0.9037722662314245|-0.2140853703022003|-0.4830650687217712|0.308574914932251|0.1025744080543518|0.01232218742370605|0.07509386539459229|XArbitraryZVertical|0.2313643194012645|-0.4029063732975998|0.8642628759218522|-0.1928390846982945|-0.2445269972085953|0.7856662273406982|-0.5682740211486816|0|0|0|-1|-1|3
2021-04-22 22:19:34.148 +0100|141642.6076442917|-0.143035888671875|0.7131500244140625|-0.3526153564453125||||||||||||||||||||||||3
2021-04-22 22:19:34.168 +0100|141642.6276042917|-0.115203857421875|0.612030029296875|-0.044647216796875|141642.6076442917|-2.89324780454398|-0.4091997312332632|-0.9095972162122024|-0.1110118478536606|-0.4560722708702087|0.3930124640464783|0.1025054901838303|-0.04053884744644165|0.1742206215858459|XArbitraryZVertical|0.234388955422955|-0.4042012556319695|0.8617854393136587|-0.1975070782185477|-0.2443207651376724|0.7892564535140991|-0.5633663535118103|0|0|0|-1|-1|3
2021-04-22 22:19:34.188 +0100|141642.6475642917|-0.002288818359375|0.4021148681640625|0.245513916015625|141642.6276042917|-2.881359917743472|-0.4073089553748618|-0.9130207343587953|0.09466227889060974|-0.2785358428955078|0.4024881720542908|0.1019244492053986|-0.1685366630554199|0.4285449981689453|XArbitraryZVertical|0.2360178995872733|-0.4045046709220617|0.8600479881069332|-0.2024576124405944|-0.2421833425760269|0.7913541197776794|-0.5613430738449097|0|0|0|-1|-1|3
2021-04-22 22:19:34.208 +0100|141642.6675242917|0.09747314453125|0.1927337646484375|0.555755615234375|141642.6475642917|-2.867775625909387|-0.4023288789603248|-0.9129248486909547|0.1377341896295547|-0.3280218541622162|0.3034920692443848|0.2348978370428085|-0.3339290618896484|0.7160993218421936|XArbitraryZVertical|0.2366194997035643|-0.4033673420303686|0.8592665968699608|-0.2072849176808728|-0.2394145280122757|0.7912954688072205|-0.562611997127533|0|0|0|-1|-1|3
2021-04-22 22:19:34.228 +0100|141642.6874842917|0.0449371337890625|0.3125|0.68438720703125|141642.6675242917|-2.864145284576103|-0.4093110716341986|-0.9160601195628508|-0.4151476919651031|-0.7712267637252808|0.01916804537177086|0.3064962029457092|-0.5704919099807739|1.051017761230469|XArbitraryZVertical|0.2403994540587399|-0.4035891176536236|0.8573443468625204|-0.2104391121747278|-0.2423483580350876|0.7932085990905762|-0.5586478710174561|0|0|0|-1|-1|3
2021-04-22 22:19:34.248 +0100|141642.7074447917|0.055267333984375|0.3930511474609375|0.4155426025390625|141642.6874842917|-2.879983978634444|-0.4463285490255698|-0.9290917082267107|-1.121505975723267|-1.719658017158508|-0.3484275341033936|0.3382376134395599|-0.5410215854644775|1.220115780830383|XArbitraryZVertical|0.2531587389299491|-0.4073669741711221|0.851474455836797|-0.212024000715984|-0.2583732604980469|0.8010765910148621|-0.5399255752563477|0|0|0|-1|-1|3
2021-04-22 22:19:34.268 +0100|141642.7274047917|0.051055908203125|0.410858154296875|0.2725372314453125|141642.7074447917|-2.915331439284353|-0.5210693020299533|-0.9461490138183064|-1.236904382705688|-3.01688814163208|-0.7064318656921387|0.3141642212867737|-0.4077733755111694|1.019497156143188|XArbitraryZVertical|0.2775393598615541|-0.4115485194027586|0.8413826496713159|-0.2137171785144638|-0.291123628616333|0.811169445514679|-0.5071994662284851|0|0|0|-1|-1|3
2021-04-22 22:19:34.288 +0100|141642.7473647917|0.1075439453125|0.4886322021484375|0.31170654296875|141642.7274047917|-2.962584357078483|-0.6365328715121548|-0.9538428707016775|-0.9003801345825195|-4.691487312316895|-1.21585476398468|0.4024154543876648|-0.4154988527297974|0.7387630939483643|XArbitraryZVertical|0.3158607031209473|-0.4093982629789881|0.8275786073828825|-0.2184924177513108|-0.3438982963562012|0.8156448006629944|-0.465250164270401|0|0|0|-1|-1|3
2021-04-22 22:19:34.308 +0100|141642.7673247917|-0.1404266357421875|0.694549560546875|0.1287384033203125|141642.7473647917|-3.015335470912206|-0.7902922096810685|-0.9470545119074165|-0.6588743925094604|-6.35084867477417|-1.536887168884277|0.5424618721008301|-0.3604357838630676|0.7086459398269653|XArbitraryZVertical|0.3684558817538633|-0.3984358706924935|0.8086741823978303|-0.227013656781838|-0.415020763874054|0.8116986155509949|-0.410978227853775|0|0|0|-1|-1|3
2021-04-22 22:19:34.328 +0100|141642.7872847917|-0.636627197265625|1.459945678710938|-0.67608642578125|141642.7673247917|-3.069545816771411|-0.971512756075708|-0.9331169302928947|-0.9795342087745667|-7.276092529296875|-1.549058794975281|0.4311494827270508|-0.197858452796936|0.5532808303833008|XArbitraryZVertical|0.4310340614000427|-0.3825056884368079|0.7817314211818466|-0.2383176160340404|-0.4915900528430939|0.8034794330596924|-0.3357980847358704|0|0|0|-1|-1|3
2021-04-22 22:19:34.347 +0100|141642.8072457917|-1.288803100585938|2.31658935546875|-1.712570190429688|141642.7872847917|-3.123862227185507|-1.162273894767547|-0.9149907769189308|-0.7663058042526245|-7.402780532836914|-1.642007231712341|0.05499303340911865|0.4583122134208679|-0.1989944875240326|XArbitraryZVertical|0.4957724898587713|-0.3648114088494075|0.7477036435534123|-0.2491216521014382|-0.5596169233322144|0.7925569415092468|-0.24224454164505|0|0|0|-1|-1|3
2021-04-22 22:19:34.367 +0100|141642.8272057917|-2.386703491210938|2.529144287109375|-2.976608276367188|141642.8072457917|-3.138295476485661|-1.316412678865654|-0.8840984760989357|1.104265093803406|-6.817822933197021|-1.515409231185913|-0.5082270503044128|1.361345052719116|-1.236118793487549|XArbitraryZVertical|0.5534576564224634|-0.3375107827663066|0.7146163641307153|-0.2628586729630652|-0.6135845184326172|0.7733437418937683|-0.1595421880483627|0|0|0|-1|-1|3
2021-04-22 22:19:34.387 +0100|141642.8471657917|-3.15740966796875|2.499679565429688|-3.98382568359375|141642.8272057917|-3.081556130345469|-1.397650637785011|-0.8503681371633284|3.144540309906006|-5.402691841125488|-1.024564862251282|-1.422912120819092|1.754701614379883|-2.585472106933594|XArbitraryZVertical|0.5952538395401028|-0.2980689898467733|0.6891530991319404|-0.2861745357211881|-0.6498425602912903|0.7515233159065247|-0.1136554852128029|0|0|0|-1|-1|3
2021-04-22 22:19:34.407 +0100|141642.8671257917|-3.317474365234375|1.80853271484375|-4.36651611328125|141642.8471657917|-2.966047612388974|-1.398323988488681|-0.8264255080192436|4.641898632049561|-3.117231607437134|-0.02054874040186405|-2.33809757232666|1.798725843429565|-3.647124290466309|XArbitraryZVertical|0.614082782640498|-0.2544911584003072|0.6756115876324404|-0.3188820660084299|-0.6674575805664062|0.7355143427848816|-0.1162731721997261|0|0|0|-1|-1|3
