loggingTime(txt)|accelerometerTimestamp_sinceReboot(s)|accelerometerAccelerationX(G)|accelerometerAccelerationY(G)|accelerometerAccelerationZ(G)|motionTimestamp_sinceReboot(s)|motionYaw(rad)|motionRoll(rad)|motionPitch(rad)|motionRotationRateX(rad/s)|motionRotationRateY(rad/s)|motionRotationRateZ(rad/s)|motionUserAccelerationX(G)|motionUserAccelerationY(G)|motionUserAccelerationZ(G)|motionAttitudeReferenceFrame(txt)|motionQuaternionX(R)|motionQuaternionY(R)|motionQuaternionZ(R)|motionQuaternionW(R)|motionGravityX(G)|motionGravityY(G)|motionGravityZ(G)|motionMagneticFieldX(µT)|motionMagneticFieldY(µT)|motionMagneticFieldZ(µT)|motionHeading(°)|motionMagneticFieldCalibrationAccuracy(Z)|label
2021-04-08 20:14:56.692 +0100|19846.08911504167|-0.1228485107421875|-0.0017242431640625|-0.928863525390625|19846.06915404167|1.169639747330613|-0.0631477933843777|-0.01407906358042198|-0.114220067858696|-0.03478050976991653|-0.3219768404960632|-0.06231174618005753|0.04353947937488556|0.06283408403396606|XArbitraryZVertical|0.01156034597839757|-0.03020585114521504|0.551945664500453|0.8332526872754348|-0.06309957802295685|0.01407859846949577|-0.9979079365730286|0|0|0|-1|-1|3
2021-04-08 20:14:56.702 +0100|19846.10907504167|-0.0651702880859375|-0.0296173095703125|-0.98358154296875|19846.08911504167|1.167450308422377|-0.06954200740164135|-0.01198815490158105|0.1137480884790421|-0.1191136613488197|-0.1023451611399651|0.09247662127017975|-0.04595303907990456|-0.07869118452072144|XArbitraryZVertical|0.01416084892479988|-0.03230862753785452|0.5509669084912807|0.833781280840113|-0.06948097795248032|0.01198786776512861|-0.9975112676620483|0|0|0|-1|-1|3
2021-04-08 20:14:56.706 +0100|19846.12903604167|-0.0155181884765625|0.0141143798828125|-0.9910125732421875|19846.10907504167|1.166673338741671|-0.06796594344689513|-0.01143310439943496|0.002542986767366529|0.1039836555719376|0.04385865107178688|-0.0587686225771904|-0.03100898861885071|0.05518209934234619|XArbitraryZVertical|0.01394589063208961|-0.03150417403564886|0.5506469550305221|0.8340270371025933|-0.06790918856859207|0.01143285539001226|-0.997626006603241|0|0|0|-1|-1|3
2021-04-08 20:14:56.725 +0100|19846.14899704167|-0.0395660400390625|0.0100555419921875|-0.9971771240234375|19846.12903604167|1.167611015736564|-0.06702884532236818|-0.01132225510209327|0.03247350454330444|-0.006261251866817474|0.008852462284266949|0.04330863803625107|-0.01643281243741512|0.004358530044555664|XArbitraryZVertical|0.01374869344320552|-0.03107644344477035|0.5510430229891279|0.8337847365893104|-0.06697437167167664|0.01132201310247183|-0.9976904392242432|0|0|0|-1|-1|3
2021-04-08 20:14:56.745 +0100|19846.16895804167|-0.07720947265625|-0.04327392578125|-0.98406982421875|19846.14899704167|1.167482005600758|-0.06831370869204473|-0.01004459862968133|0.07821156084537506|-0.09217929840087891|-0.02596100047230721|0.04681919515132904|0.007290448993444443|-0.002855837345123291|XArbitraryZVertical|0.01463345073037549|-0.03126121573679987|0.5509639881427426|0.8338148984383258|-0.06825714558362961|0.01004442945122719|-0.9976171851158142|0|0|0|-1|-1|3
2021-04-08 20:14:56.766 +0100|19846.18891904167|-0.0376739501953125|-0.0629119873046875|-1.00372314453125|19846.16895804167|1.165319195404211|-0.06818913414524599|-0.009201978814558781|-0.03367776796221733|-0.07096093893051147|-0.1750243455171585|0.003650426864624023|-0.01014699973165989|0.003371059894561768|XArbitraryZVertical|0.01491699508924449|-0.03099341836170957|0.5500519890678863|0.8344218703832127|-0.06813342124223709|0.00920184887945652|-0.9976337552070618|0|0|0|-1|-1|3
2021-04-08 20:14:56.785 +0100|19846.20888004167|-0.068206787109375|-0.02337646484375|-1.003280639648438|19846.18891904167|1.16429731819561|-0.06992002332556869|-0.009851495934629084|-0.1170269027352333|-0.09308595210313797|-0.03354577347636223|0.03658090531826019|-0.1232079863548279|0.01121056079864502|XArbitraryZVertical|0.01510569671996027|-0.03190181592521003|0.5496211122979761|0.8346681053360663|-0.06985967606306076|0.009851336479187012|-0.99750816822052|0|0|0|-1|-1|3
2021-04-08 20:14:56.805 +0100|19846.22884104167|-0.061676025390625|-0.00384521484375|-1.021270751953125|19846.20888004167|1.162654219026179|-0.07077321525975289|-0.01189832269813777|-0.1204963028430939|-0.04408250749111176|-0.07673807442188263|0.01541193574666977|-0.04152971506118774|0.009053170680999756|XArbitraryZVertical|0.01445879373013157|-0.03283193703503617|0.5489559326462301|0.8350811182104451|-0.07070913910865784|0.01189804170280695|-0.9974260330200195|0|0|0|-1|-1|3
2021-04-08 20:14:56.825 +0100|19846.24880204167|-0.0407562255859375|-0.006927490234375|-1.020858764648438|19846.22884104167|1.161626616628601|-0.0705519398894449|-0.01382850783194913|-0.07313159853219986|-0.03123451396822929|-0.04605428501963615|0.003913238644599915|-0.02757534012198448|-0.01974928379058838|XArbitraryZVertical|0.01357479735133525|-0.03327596428573519|0.5485534274663753|0.8353429090457393|-0.07048668712377548|0.01382806710898876|-0.9974168539047241|0|0|0|-1|-1|3
2021-04-08 20:14:56.845 +0100|19846.26876204167|-0.0508270263671875|0.00445556640625|-1.016265869140625|19846.24880204167|1.160276176584935|-0.07093690165186776|-0.01491247305302527|-0.06130976229906082|-0.0436013825237751|-0.07392452657222748|0.02123334258794785|-0.01994642242789268|-0.02748245000839233|XArbitraryZVertical|0.01320472014611409|-0.0337427544205607|0.5480006012160283|0.8356927986918395|-0.07086954265832901|0.01491192076355219|-0.9973741173744202|0|0|0|-1|-1|3
2021-04-08 20:14:56.865 +0100|19846.28872304167|-0.0491485595703125|0.010101318359375|-1.00457763671875|19846.26876204167|1.158846564016477|-0.07164750546795266|-0.01398740269587613|-0.04544281587004662|-0.02730826660990715|-0.06420408189296722|0.02812282741069794|-0.01796859130263329|-0.01958519220352173|XArbitraryZVertical|0.01376193056763182|-0.03379625414924261|0.5473863234369972|0.8360842941283178|-0.0715792179107666|0.01398694701492786|-0.9973368644714355|0|0|0|-1|-1|3
2021-04-08 20:14:56.885 +0100|19846.30868404167|-0.02850341796875|0.0068817138671875|-0.99749755859375|19846.28872304167|1.157672731685784|-0.07142280213710439|-0.01330099474502969|-0.02248193882405758|0.01542369648814201|-0.04681985452771187|0.01973593980073929|-0.006082294508814812|-0.009809434413909912|XArbitraryZVertical|0.01396780252413972|-0.03352279928132886|0.5468880945357933|0.8364177919259785|-0.07135578244924545|0.01330060232430696|-0.9973622560501099|0|0|0|-1|-1|3
2021-04-08 20:14:56.906 +0100|19846.32864504167|-0.020263671875|0.0063629150390625|-1.001815795898438|19846.30868404167|1.156891829689423|-0.07095601468956664|-0.0122794843654097|0.05756105110049248|0.01957567036151886|-0.03019791096448898|0.02792303264141083|-0.007548050954937935|0.001238405704498291|XArbitraryZVertical|0.01425459613349464|-0.03305402203756139|0.546551332636561|0.8366516873338049|-0.07089114189147949|0.01227917615324259|-0.9974084496498108|0|0|0|-1|-1|3
2021-04-08 20:14:56.925 +0100|19846.34860604167|-0.0316925048828125|-0.0113067626953125|-0.99407958984375|19846.32864504167|1.156189213512759|-0.07072501095062157|-0.01012043722893384|0.1137627214193344|-0.02563159354031086|-0.05280743911862373|0.04873620718717575|0.0003329049795866013|0.001812934875488281|XArbitraryZVertical|0.01508353556863164|-0.03237304549924001|0.5462303657827333|0.8368733041983502|-0.07066244632005692|0.0101202642545104|-0.9974489212036133|0|0|0|-1|-1|3
2021-04-08 20:14:56.945 +0100|19846.36856704167|-0.0433807373046875|-0.0141143798828125|-0.9791107177734375|19846.34860604167|1.155122955979382|-0.07088985122737683|-0.007755973070167906|0.07382004708051682|-0.0331198163330555|-0.06576833873987198|0.04696425795555115|-0.007846549153327942|-0.006386876106262207|XArbitraryZVertical|0.01610119947370151|-0.03180517269481942|0.545750673670033|0.8371889803196627|-0.07082836329936981|0.007755895145237446|-0.9974583387374878|0|0|0|-1|-1|3
2021-04-08 20:14:56.965 +0100|19846.38852804167|-0.0574951171875|-0.0049896240234375|-0.977020263671875|19846.36856704167|1.153747590537738|-0.07110700663738791|-0.006820409691069399|0.01585790887475014|-0.03214888274669647|-0.07751224935054779|0.03491327911615372|-0.0239703357219696|0.01061809062957764|XArbitraryZVertical|0.01653037978173251|-0.03165226025444008|0.5451600586225566|0.8375711769709396|-0.07104545086622238|0.00682035693898797|-0.9974497556686401|0|0|0|-1|-1|3
2021-04-08 20:14:56.985 +0100|19846.40848804167|-0.065765380859375|-0.018280029296875|-0.9693450927734375|19846.38852804167|1.152316755018447|-0.07088369214183296|-0.006798639219483085|-0.02131717279553413|-0.007208165246993303|-0.07801327854394913|0.02054563909769058|-0.01367940008640289|0.02378714084625244|XArbitraryZVertical|0.01645604734681239|-0.0315645873715359|0.5445622315234754|0.8379648175945202|-0.07082270830869675|0.006798586808145046|-0.9974657297134399|0|0|0|-1|-1|3
2021-04-08 20:14:57.005 +0100|19846.42844904167|-0.09832763671875|-0.0347137451171875|-0.9318389892578125|19846.40848804167|1.150197442646693|-0.07016252845086285|-0.00766123929626357|-0.06978550553321838|-0.01058377511799335|-0.1344588845968246|0.01146402955055237|-0.01724277995526791|0.02464044094085693|XArbitraryZVertical|0.01586482782496755|-0.03151404343718669|0.5436917165902195|0.8385431184231343|-0.07010292261838913|0.007661164272576571|-0.9975103735923767|0|0|0|-1|-1|3
2021-04-08 20:14:57.025 +0100|19846.44841004167|-0.1339569091796875|-0.0372314453125|-0.8937225341796875|19846.42844904167|1.14663345997702|-0.06935462773783749|-0.009715048791850003|-0.1740470677614212|0.007351921871304512|-0.2064463496208191|-0.01305527985095978|-0.03711877390742302|0.04466795921325684|XArbitraryZVertical|0.01472735601886286|-0.03175968593049006|0.5422304076729293|0.8395002774531193|-0.06929577142000198|0.009714895859360695|-0.9975488781929016|0|0|0|-1|-1|3
2021-04-08 20:14:57.059 +0100|19846.46837104167|-0.1925201416015625|-0.0400238037109375|-0.835845947265625|19846.44841004167|1.141156914130732|-0.068352107255953|-0.01363318527880534|-0.3057560920715332|0.02164691686630249|-0.3297683000564575|-0.04875699430704117|-0.05251124873757362|0.08733963966369629|XArbitraryZVertical|0.01272173867302174|-0.032435504985391|0.5399870356575316|0.8409519312015702|-0.06829255074262619|0.01363276317715645|-0.9975721836090088|0|0|0|-1|-1|3
2021-04-08 20:14:57.071 +0100|19846.48833204167|-0.2757568359375|-0.07275390625|-0.7711334228515625|19846.46837104167|1.132055932135726|-0.06803281378097695|-0.01975918148035833|-0.4358666241168976|-0.01938722655177116|-0.5507017374038696|-0.09087629616260529|-0.0560881569981575|0.1301060318946838|XArbitraryZVertical|0.009904245818175398|-0.03399930466967045|0.5362309156849767|0.8433282604145372|-0.06796707212924957|0.01975789666175842|-0.9974918961524963|0|0|0|-1|-1|3
2021-04-08 20:14:57.085 +0100|19846.50829304167|-0.336090087890625|-0.077362060546875|-0.676513671875|19846.48833204167|1.117371604703367|-0.06831135783882415|-0.02944750914301142|-0.7319992780685425|0.03550201654434204|-0.8461117744445801|-0.1642689108848572|-0.08712055534124374|0.1985901594161987|XArbitraryZVertical|0.00562218072227709|-0.03675343896047727|0.5301320024493306|0.8470996805968821|-0.06822864711284637|0.02944325283169746|-0.9972351789474487|0|0|0|-1|-1|3
2021-04-08 20:14:57.106 +0100|19846.52825404167|-0.3784942626953125|-0.0353546142578125|-0.624725341796875|19846.50829304167|1.096078727507549|-0.06763581552301709|-0.04696008416273673|-1.150806307792664|0.1304781585931778|-1.184910416603088|-0.2414496243000031|-0.1255704164505005|0.2754833102226257|XArbitraryZVertical|-0.002416626584791476|-0.041077063970955|0.5212508332079475|0.8524110979238131|-0.06750975549221039|0.0469428263604641|-0.9966136813163757|0|0|0|-1|-1|3
2021-04-08 20:14:57.125 +0100|19846.54821504167|-0.3657379150390625|0.0657501220703125|-0.6595001220703125|19846.52825404167|1.067236602855136|-0.06501591776706064|-0.07283907405362214|-1.639994859695435|0.3128495812416077|-1.503007054328918|-0.3012141585350037|-0.1367690861225128|0.3312245607376099|XArbitraryZVertical|-0.01481135707349|-0.0464759497831262|0.5090649743955336|0.859344836345168|-0.06479784846305847|0.07277468591928482|-0.9952412247657776|0|0|0|-1|-1|3
2021-04-08 20:14:57.145 +0100|19846.56817504167|-0.3428192138671875|0.1585235595703125|-0.6864776611328125|19846.54821504167|1.032077895747981|-0.05915490393978223|-0.1069120313972575|-1.985261678695679|0.5216453671455383|-1.810104966163635|-0.3178645670413971|-0.1009701937437057|0.3656286597251892|XArbitraryZVertical|-0.03188084738083942|-0.05203856835109084|0.4938927340407801|0.8673786934931311|-0.05878285318613052|0.1067084744572639|-0.9925512075424194|0|0|0|-1|-1|3
2021-04-08 20:14:57.165 +0100|19846.58813604167|-0.3538818359375|0.1877593994140625|-0.749237060546875|19846.56817504167|0.9898806613868905|-0.05369975749651448|-0.147835675112406|-2.364529132843018|0.5564453601837158|-2.170892477035522|-0.2906152307987213|-0.03343567252159119|0.3195757269859314|XArbitraryZVertical|-0.05224805637113299|-0.05862527522341532|0.4752560802519492|0.8763361896418732|-0.0530884861946106|0.1472977548837662|-0.9876664280891418|0|0|0|-1|-1|3
2021-04-08 20:14:57.185 +0100|19846.60809704167|-0.3303375244140625|0.2691497802734375|-0.780548095703125|19846.58813604167|0.9400270792346219|-0.04951877690296885|-0.1978858982247579|-2.938456535339355|0.7456144094467163|-2.441591024398804|-0.3032431304454803|-0.01921248435974121|0.2634624242782593|XArbitraryZVertical|-0.07688543230412349|-0.06668863382663121|0.4527254942493329|0.8858221536613983|-0.04853254929184914|0.1965969204902649|-0.9792824983596802|0|0|0|-1|-1|3
2021-04-08 20:14:57.205 +0100|19846.62805804167|-0.3501434326171875|0.48040771484375|-0.820770263671875|19846.60809704167|0.8834560436763799|-0.04491461461207702|-0.2622093928947981|-3.729619026184082|1.0231032371521|-2.733922958374023|-0.2998049259185791|-0.03893813490867615|0.2082846164703369|XArbitraryZVertical|-0.1086341204044907|-0.07599884447937265|0.4263804076481864|0.8947751431330798|-0.04336483404040337|0.2592150568962097|-0.964845597743988|0|0|0|-1|-1|3
2021-04-08 20:14:57.225 +0100|19846.64801904167|-0.3694000244140625|0.644622802734375|-0.783721923828125|19846.62805804167|0.8209166163692339|-0.04069701676762986|-0.339599259317012|-4.17003345489502|1.236506581306458|-2.913721323013306|-0.2961864769458771|0.03552886843681335|0.1344601511955261|XArbitraryZVertical|-0.1469142299163076|-0.08580470570527671|0.3963623321436618|0.9021922479906671|-0.03836214542388916|0.3331092596054077|-0.9421074986457825|0|0|0|-1|-1|3
2021-04-08 20:14:57.244 +0100|19846.66798004167|-0.3395538330078125|0.718505859375|-0.7682037353515625|19846.64801904167|0.7542947139698566|-0.03918062690660432|-0.4211198424438764|-4.171005725860596|1.420953154563904|-2.943135499954224|-0.3243283033370972|0.1645978689193726|0.1154077649116516|XArbitraryZVertical|-0.1872261945398713|-0.09476644097681826|0.3638736023322089|0.9075030906843291|-0.03574833646416664|0.4087827205657959|-0.9119313359260559|0|0|0|-1|-1|3
2021-04-08 20:14:57.265 +0100|19846.68794104167|-0.221160888671875|0.85211181640625|-0.7811737060546875|19846.66798004167|0.6864097269891853|-0.03837798526826058|-0.497457507716935|-3.638945817947388|1.678853631019592|-2.796387910842896|-0.3320347368717194|0.2018091678619385|0.1048519611358643|XArbitraryZVertical|-0.2255147201382685|-0.1003360439705144|0.3305391348369495|0.9109444517953554|-0.03371824324131012|0.4771927297115326|-0.8781515955924988|0|0|0|-1|-1|3
2021-04-08 20:14:57.285 +0100|19846.70790104167|0.0317230224609375|1.207794189453125|-0.8819732666015625|19846.68794104167|0.6220488998485308|-0.03456777148351246|-0.5577124819431104|-2.347659111022949|2.003731966018677|-2.519662380218506|-0.265445351600647|0.2446648478507996|0.07780492305755615|XArbitraryZVertical|-0.2569255635367764|-0.1000433812361198|0.2986973017367646|0.9136524134475449|-0.02932380884885788|0.5292466878890991|-0.8479611277580261|0|0|0|-1|-1|3
2021-04-08 20:14:57.304 +0100|19846.72786204167|0.139617919921875|0.7313690185546875|-1.03375244140625|19846.70790104167|0.5662706625194641|-0.02632075914463518|-0.5717232175569986|1.336706042289734|1.395295381546021|-2.154829502105713|-0.08228342235088348|0.4852251410484314|0.03969955444335938|XArbitraryZVertical|-0.2672060473709592|-0.0908936325245922|0.2715704490576101|0.920102634241393|-0.02213240973651409|0.5410820245742798|-0.8406785726547241|0|0|0|-1|-1|3
2021-04-08 20:14:57.325 +0100|19846.74782304167|0.17034912109375|-0.1854705810546875|-1.103118896484375|19846.72786204167|0.5157895390009533|-0.05039113171482536|-0.4987126531645434|4.656204223632812|-0.8776850700378418|-2.348827123641968|0.2188563048839569|0.7134017944335938|0.02918446063995361|XArbitraryZVertical|-0.2323166417341379|-0.08652655203240282|0.2530903849983144|0.9351403079420677|-0.04423471540212631|0.4782953858375549|-0.8770842552185059|0|0|0|-1|-1|3
2021-04-08 20:14:57.344 +0100|19846.76778404167|0.0437469482421875|-0.24566650390625|-1.013702392578125|19846.74782304167|0.4665554686514029|-0.0869957724947866|-0.4252469294992957|1.94146454334259|-0.6714770197868347|-2.751688480377197|0.2389377355575562|-0.2688068747520447|-0.1229183077812195|XArbitraryZVertical|-0.1952891825359623|-0.09008964938973618|0.2346759077292557|0.9479838724440582|-0.07914773374795914|0.4125457406044006|-0.9074919819831848|0|0|0|-1|-1|3
2021-04-08 20:14:57.364 +0100|19846.78774504167|-0.111907958984375|0.4329833984375|-1.145965576171875|19846.76778404167|0.403014285750311|-0.1216634789998077|-0.4087945568586209|-0.5848453044891357|-0.2232454866170883|-3.090739965438843|0.2430160194635391|-0.7415575981140137|-0.155771017074585|XArbitraryZVertical|-0.1865876838591802|-0.09887411903237631|0.2077074816714171|0.9551265810606382|-0.1113632842898369|0.3975034952163696|-0.9108178615570068|0|0|0|-1|-1|3
2021-04-08 20:14:57.384 +0100|19846.80770604167|-0.1390380859375|0.4636993408203125|-1.135711669921875|19846.78774504167|0.3372498225808116|-0.1504722577656742|-0.4224778351731412|-1.499872326850891|-0.1143618896603584|-2.659324884414673|0.09044471383094788|-0.3147295117378235|-0.2199339270591736|XArbitraryZVertical|-0.1937784833866731|-0.1075409373504561|0.1791686796298017|0.9585319816883472|-0.1367247849702835|0.4100216925144196|-0.9017696976661682|0|0|0|-1|-1|3
2021-04-08 20:14:57.404 +0100|19846.82766704167|-0.2026824951171875|0.2759246826171875|-1.25531005859375|19846.80770604167|0.2744747307213575|-0.1795348915208287|-0.4491200988033142|-2.033537149429321|-0.1110948249697685|-2.569049596786499|0.02089379727840424|0.1153579950332642|-0.2425553798675537|XArbitraryZVertical|-0.2077392390026906|-0.116915533268297|0.1526096941498668|0.9591066562963582|-0.1608628928661346|0.434173047542572|-0.8863503336906433|0|0|0|-1|-1|3
2021-04-08 20:14:57.424 +0100|19846.84762804167|-0.150177001953125|0.543792724609375|-0.98724365234375|19846.82766704167|0.2119901865688722|-0.2085089016312603|-0.4893116975146622|-3.052355527877808|0.2626829147338867|-2.063987731933594|0.01542872190475464|-0.1325235664844513|-0.439622163772583|XArbitraryZVertical|-0.2288732718534789|-0.1258872270601638|0.1271544111383404|0.9568706490654834|-0.1827110946178436|0.4700184762477875|-0.8635388612747192|0|0|0|-1|-1|3
2021-04-08 20:14:57.444 +0100|19846.86758804167|-0.023284912109375|0.7077484130859375|-0.73431396484375|19846.84762804167|0.1501071822109861|-0.2274912844066981|-0.5482017035287926|-3.663071870803833|0.7584162950515747|-2.017517328262329|-0.0003405511379241943|-0.1111181974411011|-0.2911298871040344|XArbitraryZVertical|-0.2599822669635932|-0.1291212109254161|0.1023534755314742|0.9514519762022985|-0.1924850791692734|0.5211532711982727|-0.8314738869667053|0|0|0|-1|-1|3
2021-04-08 20:14:57.464 +0100|19846.88754904167|-0.0504150390625|0.387298583984375|-0.783843994140625|19846.86758804167|0.08262288608978208|-0.2491963537531956|-0.605636368779405|-3.471974849700928|0.8737736344337463|-1.973919749259949|0.09379711747169495|0.03879350423812866|0.0541614294052124|XArbitraryZVertical|-0.2907479992364858|-0.130740796568298|0.07614384079466091|0.9447617255479402|-0.2027604579925537|0.5692853927612305|-0.7967448830604553|0|0|0|-1|-1|3
2021-04-08 20:14:57.484 +0100|19846.90751004167|-0.1669158935546875|0.4236907958984375|-0.75103759765625|19846.88754904167|0.01138567606159947|-0.2767734994091263|-0.6602666087128183|-2.862437009811401|0.4749854505062103|-2.009769439697266|0.0730006992816925|0.1048435568809509|-0.47132408618927|XArbitraryZVertical|-0.3203219068597454|-0.1323219584809291|0.05005083338681012|0.9366855459260499|-0.2158233821392059|0.6133274435997009|-0.7597695589065552|0|0|0|-1|-1|3
2021-04-08 20:14:57.504 +0100|19846.9274715|-0.272247314453125|0.8855133056640625|-0.764312744140625|19846.90751004167|-0.04465389480614001|-0.3057694314774829|-0.6875562678728085|-1.095510840415955|0.2524938583374023|-1.406362771987915|0.2208684980869293|-0.3595490455627441|0.128845751285553|XArbitraryZVertical|-0.3362330821680631|-0.1359064647434492|0.03054230999065272|0.9314204985399992|-0.2326334714889526|0.6346505880355835|-0.7369534969329834|0|0|0|-1|-1|3
2021-04-08 20:14:57.524 +0100|19846.9474325|-0.12347412109375|0.949066162109375|-0.939666748046875|19846.9274715|-0.07624792969103558|-0.318665477334598|-0.6926682553940524|-0.2275359779596329|0.5540188550949097|-0.8237859606742859|-0.001288264989852905|0.03248947858810425|0.05988878011703491|XArbitraryZVertical|-0.3405968152221023|-0.1363560926171766|0.01842061058085457|0.9300868973220038|-0.2410980314016342|0.6385927796363831|-0.7308016419410706|0|0|0|-1|-1|3
2021-04-08 20:14:57.561 +0100|19846.9673935|-0.0424957275390625|0.833709716796875|-0.923492431640625|19846.9474325|-0.09086027769971601|-0.3157763517093012|-0.6860176267773938|0.376410037279129|0.5661120414733887|-0.4320909380912781|0.01243934035301208|0.3253870606422424|-0.1513697504997253|XArbitraryZVertical|-0.338520792047535|-0.1328369982304028|0.01058936861725281|0.9314751830424739|-0.2402992844581604|0.6334607601165771|-0.7355160117149353|0|0|0|-1|-1|3
2021-04-08 20:14:57.576 +0100|19846.9873545|-0.0680389404296875|0.7624053955078125|-0.8612518310546875|19846.9873545|-0.09481195954895098|-0.299420058493677|-0.6694532074023023|0.2330568879842758|0.498369425535202|0.04714454710483551|0.1783067137002945|0.1600373387336731|-0.1477150917053223|XArbitraryZVertical|-0.3311471566135674|-0.1253218461079622|0.004685285681648684|0.9352080437183002|-0.2313009649515152|0.6205573081970215|-0.7492719888687134|0|0|0|-1|-1|3
2021-04-08 20:14:57.584 +0100|19847.0073155|-0.0615234375|0.7107391357421875|-0.852142333984375||||||||||||||||||||||||3
2021-04-08 20:14:57.604 +0100|19847.0272755|-0.0395355224609375|0.66204833984375|-0.831390380859375|19847.0073155|-0.09049488100735616|-0.2850039192829943|-0.6680214311148027|0.02092662081122398|0.6398133039474487|0.2406695336103439|0.1425235122442245|0.1204655766487122|-0.1077485680580139|XArbitraryZVertical|-0.3302483743844733|-0.1193557764655318|0.004212356305860594|0.9363079991367036|-0.2207252830266953|0.6194339394569397|-0.7533804178237915|0|0|0|-1|-1|3
2021-04-08 20:14:57.624 +0100|19847.0472365|-0.047271728515625|0.62738037109375|-0.792694091796875|19847.0272755|-0.08306075303269575|-0.2678492322052921|-0.6721474998920356|-0.2292215079069138|0.6429815888404846|0.4154098331928253|0.167539969086647|0.06800681352615356|-0.08310681581497192|XArbitraryZVertical|-0.3317817496195757|-0.1123766600759882|0.00515139729371674|0.9366247809527726|-0.2070912569761276|0.6226677894592285|-0.7545847296714783|0|0|0|-1|-1|3
2021-04-08 20:14:57.644 +0100|19847.0671975|-0.081512451171875|0.49139404296875|-0.727874755859375|19847.0472365|-0.07385678440054121|-0.2494876682027709|-0.6811822966193603|-0.507632851600647|0.5967420935630798|0.4957835972309113|0.1490034908056259|0.01532363891601562|-0.06930428743362427|XArbitraryZVertical|-0.3355523937323655|-0.1049564670729648|0.007004824164500807|0.9361302653039154|-0.1918048858642578|0.629711925983429|-0.7527774572372437|0|0|0|-1|-1|3
2021-04-08 20:14:57.664 +0100|19847.0871585|-0.100830078125|0.4545135498046875|-0.6828460693359375|19847.0671975|-0.06551802202083057|-0.2330255056224113|-0.6977763947156311|-0.9626767635345459|0.5564197897911072|0.5440147519111633|0.1160511821508408|-0.07508599758148193|-0.007229447364807129|XArbitraryZVertical|-0.3429313732508857|-0.09806620610912212|0.009147666152425248|0.9341828788752278|-0.1769495010375977|0.6425153613090515|-0.7455621957778931|0|0|0|-1|-1|3
2021-04-08 20:14:57.684 +0100|19847.1071195|-0.090057373046875|0.5599517822265625|-0.6638641357421875|19847.0871585|-0.05724562698471813|-0.2156543620084469|-0.7237628932286791|-1.378134608268738|0.6289002299308777|0.6331539154052734|0.06377097964286804|-0.2084270715713501|0.03370583057403564|XArbitraryZVertical|-0.3547145220989342|-0.09053370003202328|0.01147510244894866|0.9305105284131916|-0.1603443473577499|0.6622089743614197|-0.7319625020027161|0|0|0|-1|-1|3
2021-04-08 20:14:57.704 +0100|19847.1270805|-0.1041717529296875|0.6572265625|-0.706634521484375|19847.1071195|-0.04783983658142892|-0.1977932864421498|-0.754587510348289|-1.423754215240479|0.4972573220729828|0.6699225306510925|0.05017781257629395|-0.1843618154525757|0.06104505062103271|XArbitraryZVertical|-0.3686962775172947|-0.08299634081596742|0.01423758594397063|0.9257279127096709|-0.1431653648614883|0.6849882006645203|-0.7143493294715881|0|0|0|-1|-1|3
2021-04-08 20:14:57.724 +0100|19847.1470415|-0.121612548828125|0.7733001708984375|-0.7012176513671875|19847.1270805|-0.03597689523845458|-0.1816741744151271|-0.7823666731526261|-1.140462398529053|0.3054352104663849|0.6973511576652527|0.03221176564693451|-0.0936463475227356|0.01178455352783203|XArbitraryZVertical|-0.3811576078810261|-0.07701607113198197|0.01802126833320142|0.921120396057463|-0.1281442642211914|0.7049599289894104|-0.69757479429245|0|0|0|-1|-1|3
2021-04-08 20:14:57.744 +0100|19847.1670025|-0.1431884765625|0.9470062255859375|-0.6757354736328125|19847.1470415|-0.02199167274647839|-0.1669691795651795|-0.8039029262885429|-0.8249219059944153|0.1815190762281418|0.6436967849731445|0.001415275037288666|-0.01132887601852417|-0.02401477098464966|XArbitraryZVertical|-0.3906727133902336|-0.07245028204205507|0.02253650832170264|0.9173973992995319|-0.1153226047754288|0.7200698256492615|-0.6842515468597412|0|0|0|-1|-1|3
2021-04-08 20:14:57.764 +0100|19847.1869625|-0.1881256103515625|1.100082397460938|-0.6458282470703125|19847.1670025|-0.007105937053095532|-0.1531918799436486|-0.8193667153418174|-0.5150536298751831|0.1104458719491959|0.6122785806655884|-0.02664096653461456|0.1238250732421875|-0.0102769136428833|XArbitraryZVertical|-0.3973978575910795|-0.06877720520682606|0.02723019877823607|0.9146602014756674|-0.1041731014847755|0.7307136654853821|-0.6746892929077148|0|0|0|-1|-1|3
2021-04-08 20:14:57.784 +0100|19847.2069235|-0.2483673095703125|1.108444213867188|-0.61529541015625|19847.1869625|0.009012734140368267|-0.1408497845721366|-0.8266256594842019|-0.02763380855321884|-0.06692289561033249|0.5884942412376404|-0.06671351194381714|0.297630250453949|0.008057355880737305|XArbitraryZVertical|-0.4003552813161249|-0.06624628957477859|0.03237882551775849|0.9133886746800769|-0.09509115666151047|0.7356499433517456|-0.6706541776657104|0|0|0|-1|-1|3
2021-04-08 20:14:57.804 +0100|19847.2268845|-0.2411651611328125|0.988861083984375|-0.6203765869140625|19847.2069235|0.02732419253972704|-0.1298826392520173|-0.8241688981997779|0.3990434408187866|-0.1442456990480423|0.611484706401825|-0.1329682171344757|0.3932449817657471|0.03932285308837891|XArbitraryZVertical|-0.3988261516347039|-0.06491781123622599|0.03848122650898669|0.9139161784193456|-0.08796423673629761|0.73398357629776|-0.6734467744827271|0|0|0|-1|-1|3
2021-04-08 20:14:57.823 +0100|19847.2468455|-0.17901611328125|0.8766326904296875|-0.641571044921875|19847.2268845|0.04778135498768591|-0.1164215921416557|-0.8149320576131139|0.6507606506347656|-0.01298983488231897|0.6584813594818115|-0.1744906902313232|0.319852888584137|0.07234305143356323|XArbitraryZVertical|-0.3942239702527324|-0.06285009420891186|0.04494386665674042|0.9157605820040964|-0.07967537641525269|0.7276790142059326|-0.6812746524810791|0|0|0|-1|-1|3
2021-04-08 20:14:57.844 +0100|19847.2668065|-0.1571502685546875|0.793243408203125|-0.6337127685546875|19847.2468455|0.06828298607464135|-0.1016972839514704|-0.8032451402635608|0.6379460692405701|-0.01667863316833973|0.6079952120780945|-0.1358658820390701|0.2087780237197876|0.0686112642288208|XArbitraryZVertical|-0.3885825954868615|-0.06008156312411158|0.05123527814517855|0.9180244275012619|-0.07049441337585449|0.7196131944656372|-0.6907875537872314|0|0|0|-1|-1|3
2021-04-08 20:14:57.863 +0100|19847.2867675|-0.15325927734375|0.7044677734375|-0.5716400146484375|19847.2668065|0.08581356292739394|-0.09014193685251091|-0.7929082092071567|0.4881657660007477|-0.08956924825906754|0.5071479082107544|-0.1012094914913177|0.1190702319145203|0.0503532886505127|XArbitraryZVertical|-0.3836199835187624|-0.05806929420739187|0.05690867160911686|0.9199050264900557|-0.06317386031150818|0.7123972177505493|-0.6989273428916931|0|0|0|-1|-1|3
2021-04-08 20:14:57.884 +0100|19847.3067285|-0.1179046630859375|0.6473388671875|-0.5356903076171875|19847.2867675|0.09937854818748912|-0.0822287242946296|-0.7861544927610252|0.2530173063278198|-0.06312613189220428|0.393124133348465|-0.09943605959415436|0.03946024179458618|0.09555792808532715|XArbitraryZVertical|-0.3803508413557426|-0.0569299012641151|0.06156631650064754|0.9210331353234887|-0.05803504958748817|0.7076413631439209|-0.7041844725608826|0|0|0|-1|-1|3
2021-04-08 20:14:57.903 +0100|19847.3266895|-0.0832672119140625|0.66485595703125|-0.5116729736328125|19847.3067285|0.1091774484686268|-0.07609888118877019|-0.7827591261701731|0.1852355748414993|-0.03723626583814621|0.2729758322238922|-0.08178175985813141|-0.03995430469512939|0.1663767695426941|XArbitraryZVertical|-0.3787015121682926|-0.05590964502519907|0.06488873795125411|0.9215469239873262|-0.05389979481697083|0.7052382230758667|-0.7069185376167297|0|0|0|-1|-1|3
2021-04-08 20:14:57.923 +0100|19847.3466495|-0.0771942138671875|0.66473388671875|-0.5099945068359375|19847.3266895|0.1155552387073454|-0.07303312052049427|-0.7786680736335133|0.2912489175796509|-0.1093562096357346|0.1337390840053558|-0.04316603392362595|-0.05155903100967407|0.1957774758338928|XArbitraryZVertical|-0.3767359361383654|-0.05562383913474508|0.06722277965781839|0.9222023523093188|-0.05194239690899849|0.7023319005966187|-0.7099520564079285|0|0|0|-1|-1|3
2021-04-08 20:14:57.944 +0100|19847.3666105|-0.0737762451171875|0.60601806640625|-0.4964447021484375|19847.3466495|0.1178927075378935|-0.07431692873944044|-0.7714799180706063|0.4348971545696259|-0.1718388646841049|-0.02296672016382217|-0.02537114545702934|-0.02252876758575439|0.202740490436554|XArbitraryZVertical|-0.3733043015305101|-0.05651048123619518|0.06849887357687282|0.9234491987410507|-0.0532272681593895|0.697196900844574|-0.7149009108543396|0|0|0|-1|-1|3
2021-04-08 20:14:57.963 +0100|19847.3865715|-0.06036376953125|0.579742431640625|-0.4798431396484375|19847.3666105|0.1160840207880922|-0.0789067782777591|-0.7626033191267982|0.4067180454730988|-0.1508687138557434|-0.1757804155349731|-0.01983482018113136|-0.05567342042922974|0.2157252430915833|XArbitraryZVertical|-0.3690894179057665|-0.05811891380790583|0.06845456046459046|0.9250455924789643|-0.05699358135461807|0.6908060908317566|-0.7207903861999512|0|0|0|-1|-1|3
2021-04-08 20:14:57.983 +0100|19847.4065325|-0.04632568359375|0.604034423828125|-0.4730987548828125|19847.3865715|0.1094899686698776|-0.08604889810052678|-0.755324087821263|0.2733307182788849|-0.1092371195554733|-0.362593948841095|-0.004507459700107574|-0.0991896390914917|0.2380213141441345|XArbitraryZVertical|-0.3656674773493418|-0.06007861265020272|0.06665111591590291|0.9264100383792265|-0.06257057189941406|0.6855246424674988|-0.7253556847572327|0|0|0|-1|-1|3
2021-04-08 20:14:58.003 +0100|19847.4264935|-0.0460357666015625|0.642486572265625|-0.485504150390625|19847.4065325|0.09772367939208103|-0.09585384897376756|-0.751010874237472|0.0821736603975296|-0.07614946365356445|-0.5389882922172546|0.01625052094459534|-0.09323537349700928|0.2551562190055847|XArbitraryZVertical|-0.3637075116997287|-0.06240924902875211|0.06293614808662776|0.9272869543205614|-0.06996186822652817|0.6823780536651611|-0.7276438474655151|0|0|0|-1|-1|3
2021-04-08 20:14:58.023 +0100|19847.4464545|-0.043548583984375|0.67877197265625|-0.487579345703125|19847.4264935|0.08061821101499508|-0.1090068523055379|-0.749718537489579|-0.077664814889431|-0.05912292003631592|-0.7162103056907654|0.03543224930763245|-0.05608105659484863|0.2483047842979431|XArbitraryZVertical|-0.3632579742324821|-0.06538529206425138|0.05737403645889322|0.9276189396839265|-0.07962211966514587|0.6814327836036682|-0.7275367975234985|0|0|0|-1|-1|3
2021-04-08 20:14:58.043 +0100|19847.4664155|-0.0431060791015625|0.7320709228515625|-0.503997802734375|19847.4464545|0.05881756835676732|-0.1247446099947087|-0.7515602798214945|-0.2857549488544464|-0.01648677885532379|-0.8438676595687866|0.0456625297665596|-0.02192062139511108|0.235995352268219|XArbitraryZVertical|-0.3644213605462743|-0.06872781248795456|0.05016535294147122|0.9273386969804871|-0.09090527147054672|0.6827795505523682|-0.7249470949172974|0|0|0|-1|-1|3
2021-04-08 20:14:58.071 +0100|19847.4863755|-0.0403594970703125|0.7850341796875|-0.518035888671875|19847.4664155|0.03359985480640504|-0.142121760506156|-0.7563140395701879|-0.4453300535678864|-0.01414447464048862|-0.9127646684646606|0.0577542632818222|0.01942896842956543|0.213186502456665|XArbitraryZVertical|-0.3671160176975414|-0.0721620273362675|0.0417832984248349|0.9264301835474544|-0.1030275225639343|0.6862450838088989|-0.7200369238853455|0|0|0|-1|-1|3
2021-04-08 20:14:58.083 +0100|19847.5063365|-0.041748046875|0.9140167236328125|-0.589263916015625|19847.4863755|0.006151468582411273|-0.1609990196926464|-0.7629785848804116|-0.4806956350803375|0.01730367541313171|-0.9399831891059875|0.07516928762197495|0.05777901411056519|0.2199803590774536|XArbitraryZVertical|-0.3708661203458446|-0.07577286382170226|0.03278308144901974|0.9250093199210283|-0.1158649399876595|0.6910773515701294|-0.713433563709259|0|0|0|-1|-1|3
2021-04-08 20:14:58.104 +0100|19847.5262975|-0.0769195556640625|1.064956665039062|-0.668701171875|19847.5063365|-0.02087848813319914|-0.1796083416905411|-0.7682218214028929|-0.3320259749889374|-0.01470847986638546|-0.8877426981925964|0.08739441633224487|0.1488322019577026|0.1617271900177002|XArbitraryZVertical|-0.3740725419127693|-0.07924779861243234|0.02396632975470607|0.9236965162826281|-0.1284715384244919|0.6948575377464294|-0.7075790166854858|0|0|0|-1|-1|3
2021-04-08 20:14:58.124 +0100|19847.5462585|-0.1319732666015625|1.072799682617188|-0.706756591796875|19847.5262975|-0.04495384467477088|-0.1973896415216616|-0.7698759399940033|-0.155209869146347|-0.1055203527212143|-0.7810698747634888|0.0880870521068573|0.3004297614097595|0.07603448629379272|XArbitraryZVertical|-0.3756324119452495|-0.08290266259179171|0.01626160289727845|0.9229101201911316|-0.140806645154953|0.6960461735725403|-0.7040548920631409|0|0|0|-1|-1|3
2021-04-08 20:14:58.143 +0100|19847.5662195|-0.1448974609375|1.030014038085938|-0.711151123046875|19847.5462585|-0.06490639973736913|-0.2133918847800257|-0.7684634237616565|0.01024012081325054|-0.06934279948472977|-0.6428565979003906|0.04844136536121368|0.3918225169181824|0.02306139469146729|XArbitraryZVertical|-0.3757225804907399|-0.08658314257538578|0.009987197469931581|0.922624674279826|-0.1522626578807831|0.6950312852859497|-0.7026718258857727|0|0|0|-1|-1|3
2021-04-08 20:14:58.163 +0100|19847.5861805|-0.1760711669921875|1.034225463867188|-0.756988525390625|19847.5662195|-0.07957310413329152|-0.2242009912015365|-0.7647098621783847|0.1261478215456009|0.01103001460433006|-0.4895413815975189|0.01752869784832001|0.3517252206802368|-0.006909608840942383|XArbitraryZVertical|-0.3745993434103534|-0.08895817490528846|0.005032692497386728|0.9228957324618851|-0.1604277491569519|0.6923276782035828|-0.703523576259613|0|0|0|-1|-1|3
2021-04-08 20:14:58.183 +0100|19847.6061415|-0.1975250244140625|1.034622192382812|-0.774017333984375|19847.5861805|-0.08938087246674555|-0.2301825721424412|-0.7577082286333893|0.404767781496048|0.06670515239238739|-0.3459668755531311|0.004647433757781982|0.3383007645606995|-0.03301036357879639|XArbitraryZVertical|-0.3718089575414065|-0.09017339493906916|0.001197906936773909|0.9239186232103026|-0.1657349765300751|0.6872584819793701|-0.7072536945343018|0|0|0|-1|-1|3
2021-04-08 20:14:58.203 +0100|19847.6261025|-0.1927490234375|0.9676971435546875|-0.7817535400390625|19847.6061415|-0.09372118043203796|-0.2312225373915705|-0.7465321929742239|0.5791141986846924|0.1512814611196518|-0.2241197228431702|-0.02405636012554169|0.3650928735733032|-0.05690950155258179|XArbitraryZVertical|-0.3668581032981315|-0.09032503226911245|-0.001308086520561944|0.9258806205085277|-0.1682201623916626|0.6790972948074341|-0.7145130634307861|0|0|0|-1|-1|3
2021-04-08 20:14:58.223 +0100|19847.6460635|-0.181121826171875|0.863006591796875|-0.771697998046875|19847.6261025|-0.09516757566405891|-0.2286041862444512|-0.7341877334329785|0.5737076997756958|0.2033425718545914|-0.1710206419229507|-0.02919821441173553|0.3385155200958252|-0.06310117244720459|XArbitraryZVertical|-0.3612224430437795|-0.08937379137773468|-0.003219099710098939|0.9281812209774215|-0.1682357788085938|0.6699843406677246|-0.7230613231658936|0|0|0|-1|-1|3
2021-04-08 20:14:58.243 +0100|19847.6660235|-0.15936279296875|0.7675018310546875|-0.7861175537109375|19847.6460635|-0.09637992397490583|-0.2245823060079697|-0.7245976118550691|0.332669585943222|0.296913743019104|-0.1377271264791489|-0.02070511877536774|0.2560813426971436|-0.03994929790496826|XArbitraryZVertical|-0.3568311032917735|-0.08769396711506541|-0.005091498502505263|0.9300298978606324|-0.1667496263980865|0.6628342270851135|-0.7299626469612122|0|0|0|-1|-1|3
2021-04-08 20:14:58.262 +0100|19847.6859845|-0.1504974365234375|0.6968231201171875|-0.82208251953125|19847.6660235|-0.09824141169772449|-0.2191727403833447|-0.7202603832293415|0.05605040118098259|0.3599944710731506|-0.09233327955007553|-0.00910969078540802|0.1509824991226196|-0.04545974731445312|XArbitraryZVertical|-0.3548851820071205|-0.08502870897065097|-0.007181474549078799|0.9310076945188857|-0.1634219586849213|0.659580409526825|-0.7336532473564148|0|0|0|-1|-1|3
2021-04-08 20:14:58.283 +0100|19847.7059455|-0.15460205078125|0.6578216552734375|-0.836944580078125|19847.6859845|-0.100629571096895|-0.2129198272855794|-0.7214506863658264|-0.1982665359973907|0.4233477711677551|-0.05561520904302597|0.0054817795753479|0.07489299774169922|-0.06963425874710083|XArbitraryZVertical|-0.3555107677150214|-0.08164363250220416|-0.009333368148612504|0.9310528573982132|-0.1586652994155884|0.6604745984077454|-0.7338927984237671|0|0|0|-1|-1|3
2021-04-08 20:14:58.303 +0100|19847.7259065|-0.17138671875|0.6929168701171875|-0.834503173828125|19847.7059455|-0.1030698854940126|-0.2055896240163032|-0.7275539983785569|-0.4139304757118225|0.4798610806465149|0.002081818412989378|0.0006149858236312866|0.000574648380279541|-0.09866541624069214|XArbitraryZVertical|-0.3583984527465142|-0.07753985675034129|-0.0114248153156154|0.9302728514682307|-0.1524557173252106|0.6650449633598328|-0.7310762405395508|0|0|0|-1|-1|3
2021-04-08 20:14:58.323 +0100|19847.7458675|-0.1651763916015625|0.6906890869140625|-0.8310546875|19847.7259065|-0.1049582886055197|-0.1966282472458195|-0.7369247461365547|-0.4967193305492401|0.5514315366744995|0.04588309302926064|-0.01925136148929596|-0.0003516077995300293|-0.1085689067840576|XArbitraryZVertical|-0.362751831237621|-0.07263965684083809|-0.01339286597079607|0.9289538974424675|-0.1446743607521057|0.6720137596130371|-0.7262691855430603|0|0|0|-1|-1|3
2021-04-08 20:14:58.342 +0100|19847.7658285|-0.166656494140625|0.6806182861328125|-0.809906005859375|19847.7458675|-0.1053182407350505|-0.1856467907010767|-0.7458288573072744|-0.3532987833023071|0.5753171443939209|0.09810128808021545|-0.03534908592700958|0.02117270231246948|-0.1106600761413574|XArbitraryZVertical|-0.3668031457229106|-0.0671059206402753|-0.01508306563989093|0.9277526575608325|-0.1355804204940796|0.6785808801651001|-0.7219045162200928|0|0|0|-1|-1|3
2021-04-08 20:14:58.363 +0100|19847.7857895|-0.163848876953125|0.663970947265625|-0.8020172119140625|19847.7658285|-0.103213101856233|-0.1724905337538357|-0.75100307158499|-0.09087663888931274|0.5999935865402222|0.1460620760917664|-0.04198342561721802|0.003404140472412109|-0.1035269498825073|XArbitraryZVertical|-0.3690233239838583|-0.06118247250174259|-0.01626286877918897|0.9272616578174622|-0.1254670768976212|0.6823723316192627|-0.7201569676399231|0|0|0|-1|-1|3
2021-04-08 20:14:58.382 +0100|19847.8057505|-0.137298583984375|0.579437255859375|-0.8087005615234375|19847.7857895|-0.09846441955362956|-0.1569871421074625|-0.7497212695629306|0.279687225818634|0.6349302530288696|0.1601699888706207|-0.05250748991966248|0.0006490349769592285|-0.07700139284133911|XArbitraryZVertical|-0.3681640949805478|-0.05491621599325346|-0.01697838350900049|0.9279823535988343|-0.1144242212176323|0.6814348101615906|-0.7228788137435913|0|0|0|-1|-1|3
2021-04-08 20:14:58.402 +0100|19847.8257105|-0.1214447021484375|0.4666900634765625|-0.8104400634765625|19847.8057505|-0.09269213525401172|-0.1401287124429806|-0.7422356749309261|0.4763225913047791|0.657094419002533|0.1357851922512054|-0.0500384122133255|-0.04837298393249512|-0.08312982320785522|XArbitraryZVertical|-0.364401737284905|-0.04841058368358486|-0.01770824269069407|0.9298140817724064|-0.1029315143823624|0.6759371757507324|-0.7297355532646179|0|0|0|-1|-1|3
2021-04-08 20:14:58.422 +0100|19847.8456715|-0.1143341064453125|0.3925323486328125|-0.8084716796875|19847.8257105|-0.08862227272232101|-0.1239464240835853|-0.7329132162764052|0.4622178375720978|0.6964339017868042|0.04980690777301788|-0.03639637678861618|-0.1467743515968323|-0.07042527198791504|XArbitraryZVertical|-0.35983194478465|-0.04192314167850908|-0.01910647573372361|0.9318789966079049|-0.09188482910394669|0.6690376400947571|-0.7375268340110779|0|0|0|-1|-1|3
2021-04-08 20:14:58.442 +0100|19847.8656325|-0.114013671875|0.376434326171875|-0.8182373046875|19847.8456715|-0.0881115599752204|-0.1100591917296172|-0.724212842542404|0.343719482421875|0.7599221467971802|-0.02667171135544777|-0.03253737092018127|-0.2395716905593872|-0.06244051456451416|XArbitraryZVertical|-0.3556306802152861|-0.03580733107439382|-0.02165800396885263|0.9336892427451322|-0.08227033913135529|0.6625460386276245|-0.744489312171936|0|0|0|-1|-1|3
2021-04-08 20:14:58.462 +0100|19847.8855935|-0.10040283203125|0.3907318115234375|-0.8232879638671875|19847.8656325|-0.08883648864034388|-0.0949705025108082|-0.7191277173130242|0.1424181312322617|0.8009071350097656|-0.08586686104536057|-0.04266766458749771|-0.281851053237915|-0.07185566425323486|XArbitraryZVertical|-0.3530956508590676|-0.02878154060239743|-0.0248314984774816|0.9348147025246084|-0.07134660333395004|0.6587286591529846|-0.7489901781082153|0|0|0|-1|-1|3
2021-04-08 20:14:58.482 +0100|19847.9055545|-0.088897705078125|0.441680908203125|-0.8383941650390625|19847.8855935|-0.09150482782936945|-0.08041990764552689|-0.7169115939321243|0.05685710906982422|0.8061432242393494|-0.1230510696768761|-0.04880204051733017|-0.2831727862358093|-0.06756681203842163|XArbitraryZVertical|-0.3518998814272745|-0.0215719721619131|-0.02870656834271994|0.9353486587109024|-0.06055830791592598|0.6570596694946289|-0.7514022588729858|0|0|0|-1|-1|3
2021-04-08 20:14:58.502 +0100|19847.92551425|-0.0826263427734375|0.4408721923828125|-0.8523712158203125|19847.9055545|-0.09544585210323744|-0.06740065920665148|-0.7169593719437195|-0.06069628521800041|0.7535443902015686|-0.1838196069002151|-0.04076944291591644|-0.2379817962646484|-0.07117635011672974|XArbitraryZVertical|-0.3517577050528122|-0.01478837189370886|-0.03283881935581482|0.9353980334377539|-0.05076864361763|0.6570956707000732|-0.752095639705658|0|0|0|-1|-1|3
2021-04-08 20:14:58.522 +0100|19847.94547525|-0.0680389404296875|0.397308349609375|-0.8525390625|19847.92551425|-0.1003794489064861|-0.0567688360100083|-0.7182373317815895|-0.09453076124191284|0.6459356546401978|-0.1809624880552292|-0.0429108515381813|-0.211158275604248|-0.1056367158889771|XArbitraryZVertical|-0.3521982358819495|-0.008912032604851657|-0.03698753785624233|0.9351519477037264|-0.04272210225462914|0.6580584645271301|-0.7517539858818054|0|0|0|-1|-1|3
2021-04-08 20:14:58.542 +0100|19847.96543625|-0.0512542724609375|0.3379058837890625|-0.8224334716796875|19847.94547525|-0.1059185730106272|-0.04834115264749792|-0.7180352984526995|-0.2079763263463974|0.589657187461853|-0.1890498846769333|-0.04164254665374756|-0.2342758178710938|-0.09667152166366577|XArbitraryZVertical|-0.3519573478341882|-0.004002229181974577|-0.0410653670083426|0.935106251487806|-0.03639153391122818|0.6579063534736633|-0.7522200345993042|0|0|0|-1|-1|3
2021-04-08 20:14:58.574 +0100|19847.98539625|-0.0236053466796875|0.2935333251953125|-0.8013916015625|19847.96543625|-0.1120330521910177|-0.041831038574561|-0.7198428622765801|-0.2797210216522217|0.5109143257141113|-0.2163115888834|-0.02820327505469322|-0.2897742390632629|-0.09077352285385132|XArbitraryZVertical|-0.3526672289815674|0.0001712111722072059|-0.0450339930953285|0.9346645392154375|-0.03144397586584091|0.6592665314674377|-0.7512515783309937|0|0|0|-1|-1|3
2021-04-08 20:14:58.582 +0100|19848.00535725|0.0230560302734375|0.281951904296875|-0.7864227294921875|19847.98539625|-0.1181492892773632|-0.03555057532978395|-0.7249047760023708|-0.2243352383375168|0.5274700522422791|-0.2142297029495239|-0.01408961601555347|-0.3555530309677124|-0.05684137344360352|XArbitraryZVertical|-0.3548751236205435|0.004339945275798898|-0.04890449582718822|0.9336237380040001|-0.02660622633993626|0.663064181804657|-0.748089611530304|0|0|0|-1|-1|3
2021-04-08 20:14:58.602 +0100|19848.02531825|0.0461273193359375|0.266143798828125|-0.783843994140625|19848.00535725|-0.124301971512549|-0.02970307212116833|-0.7285258129407145|-0.1351070702075958|0.4517725706100464|-0.2588235437870026|0.02388347312808037|-0.377195417881012|-0.03793942928314209|XArbitraryZVertical|-0.3563954444474142|0.008275478925773169|-0.05274865610070684|0.9328084209356654|-0.0221598893404007|0.665770411491394|-0.7458276152610779|0|0|0|-1|-1|3
2021-04-08 20:14:58.622 +0100|19848.04527925|0.0312652587890625|0.297637939453125|-0.743988037109375|19848.02531825|-0.1325870709799472|-0.02698303224833822|-0.7293872558373147|0.002772834151983261|0.3768159449100494|-0.348814070224762|0.05861290544271469|-0.3986356854438782|-0.04504728317260742|XArbitraryZVertical|-0.3566821353016207|0.01104883011512555|-0.05708140899331102|0.932414995263611|-0.02011564746499062|0.666412889957428|-0.7453115582466125|0|0|0|-1|-1|3
2021-04-08 20:14:58.642 +0100|19848.06524025|-0.020904541015625|0.35137939453125|-0.7493133544921875|19848.04527925|-0.1438153685116849|-0.02794759306802905|-0.7285862427962654|0.1141362115740776|0.2778508067131042|-0.5099360346794128|0.06360389292240143|-0.3891881704330444|-0.007851541042327881|XArbitraryZVertical|-0.3562714871542815|0.01257272164221108|-0.06215867878227278|0.932227935232541|-0.0208494458347559|0.6658154726028442|-0.7458251118659973|0|0|0|-1|-1|3
2021-04-08 20:14:58.662 +0100|19848.08520125|-0.15380859375|0.2979736328125|-0.680755615234375|19848.06524025|-0.160454450612176|-0.03502624874420222|-0.7227680079667029|0.4153042137622833|0.09857967495918274|-0.7884495854377747|0.03874453529715538|-0.3337341547012329|-0.002846717834472656|XArbitraryZVertical|-0.353690623053384|0.01200270086415282|-0.06878136628725288|0.9327530618127763|-0.02626353688538074|0.6614631414413452|-0.7495177388191223|0|0|0|-1|-1|3
2021-04-08 20:14:58.682 +0100|19848.10516225|-0.33251953125|0.242401123046875|-0.48309326171875|19848.08520125|-0.1870946246614816|-0.05274515847458781|-0.7117938002751202|0.560882031917572|-0.1138867288827896|-1.283508539199829|-0.03576463460922241|-0.3104036450386047|0.03123974800109863|XArbitraryZVertical|-0.349095917857514|0.007926972149809527|-0.07837903303320516|0.9337698053047856|-0.0399196669459343|0.6531930565834045|-0.7561383843421936|0|0|0|-1|-1|3
2021-04-08 20:14:58.702 +0100|19848.12512325|-0.4704132080078125|0.2163238525390625|-0.3077392578125|19848.10516225|-0.226078446574042|-0.08118624443801699|-0.6984473800913015|0.5704936385154724|-0.1839288175106049|-1.779927611351013|-0.1836054921150208|-0.384270191192627|0.1710497736930847|XArbitraryZVertical|-0.3440058652417904|0.0006753097045693104|-0.0921053922020416|0.9344390134756976|-0.06210751831531525|0.6430293917655945|-0.7633190155029297|0|0|0|-1|-1|3
2021-04-08 20:14:58.722 +0100|19848.14508325|-0.570281982421875|0.142608642578125|-0.21954345703125|19848.12512325|-0.2761698477176572|-0.1181101175388336|-0.6830034595932308|0.5812245607376099|-0.3425738215446472|-2.203856229782104|-0.3145579695701599|-0.3927215933799744|0.3779127597808838|XArbitraryZVertical|-0.3387912490129443|-0.009065312069833166|-0.1098936720543896|0.9343777847869582|-0.09140288084745407|0.6311255693435669|-0.7702766060829163|0|0|0|-1|-1|3
2021-04-08 20:14:58.742 +0100|19848.16504425|-0.591339111328125|0.1023712158203125|-0.2295074462890625|19848.14508325|-0.3339195761612504|-0.1622898449966745|-0.6655509109363346|0.4950410425662994|-0.4553895592689514|-2.504966259002686|-0.4022496342658997|-0.4403526782989502|0.5329097509384155|XArbitraryZVertical|-0.3337963431600802|-0.02143518389928063|-0.130441188143433|0.9333305091698405|-0.1270938068628311|0.6174925565719604|-0.7762410640716553|0|0|0|-1|-1|3
2021-04-08 20:14:58.762 +0100|19848.18500525|-0.6231231689453125|0.1685943603515625|-0.3041229248046875|19848.16504425|-0.3988916625852063|-0.2129591140668614|-0.6493535274673804|0.0964450016617775|-0.6735143065452576|-2.85926365852356|-0.4177839756011963|-0.4870409965515137|0.572184145450592|XArbitraryZVertical|-0.3308642231036784|-0.03588431589870337|-0.1534803556092872|0.930422005672105|-0.1683374345302582|0.6046716570854187|-0.7784823775291443|0|0|0|-1|-1|3
2021-04-08 20:14:58.782 +0100|19848.20496625|-0.7052001953125|0.3582763671875|-0.412872314453125|19848.18500525|-0.4733400696057398|-0.2737699906019084|-0.6376643505183628|-0.4252869188785553|-0.9324951767921448|-3.215979337692261|-0.3823614716529846|-0.4844494462013245|0.506750762462616|XArbitraryZVertical|-0.3322518635240637|-0.05316059684006825|-0.1789860209553501|0.9245251486047944|-0.2172334939241409|0.5953204035758972|-0.7735652923583984|0|0|0|-1|-1|3
2021-04-08 20:14:58.802 +0100|19848.22492725|-0.8085174560546875|0.561767578125|-0.500946044921875|19848.20496625|-0.5589976456708085|-0.3447538413473749|-0.6307831135209104|-0.9957404136657715|-1.083707213401794|-3.56832218170166|-0.3872738480567932|-0.330926775932312|0.4105916023254395|XArbitraryZVertical|-0.3387179280314473|-0.0724314109100752|-0.207239338937288|0.9149185481942175|-0.2729290425777435|0.5897773504257202|-0.7600477337837219|0|0|0|-1|-1|3
2021-04-08 20:14:58.822 +0100|19848.24488825|-0.884918212890625|0.67822265625|-0.53515625|19848.22492725|-0.6553631272837078|-0.4233548453214053|-0.6263575390692868|-1.460879683494568|-1.087610483169556|-3.838649988174438|-0.4213015735149384|-0.1215823888778687|0.2690240740776062|XArbitraryZVertical|-0.3495122295998709|-0.09230189042456877|-0.2380750587393848|0.9014666014261723|-0.3328344225883484|0.5861976742744446|-0.7386431097984314|0|0|0|-1|-1|3
2021-04-08 20:14:58.842 +0100|19848.26484925|-0.950164794921875|0.7701416015625|-0.514129638671875|19848.24488825|-0.7582329450297619|-0.5043950822073622|-0.6196568538033548|-1.642698049545288|-0.990193247795105|-3.945637226104736|-0.4598312377929688|0.04372566938400269|0.1805640459060669|XArbitraryZVertical|-0.3622398188858399|-0.1115041049748312|-0.2706487912914257|0.8849285971382861|-0.3934258818626404|0.5807558298110962|-0.7126982808113098|0|0|0|-1|-1|3
2021-04-08 20:14:58.862 +0100|19848.28481025|-1.055130004882812|0.9125823974609375|-0.385711669921875|19848.26484925|-0.8617317832132915|-0.5829145632816372|-0.605416638359859|-1.454492449760437|-1.050161957740784|-3.973592281341553|-0.4629503488540649|0.1588313579559326|0.1466988325119019|XArbitraryZVertical|-0.3739941371295595|-0.1299595661080994|-0.3040231254882894|0.8664923797120549|-0.4526236951351166|0.5691047310829163|-0.6864777803421021|0|0|0|-1|-1|3
2021-04-08 20:14:58.881 +0100|19848.30477125|-1.103988647460938|1.118621826171875|-0.3973236083984375|19848.28481025|-0.955552860747471|-0.6560249891653124|-0.579660155027158|-0.9161484241485596|-0.9069656729698181|-3.911787986755371|-0.4896839261054993|0.2865195274353027|0.2127396464347839|XArbitraryZVertical|-0.3822095232541984|-0.1497527843219778|-0.3353756406694194|0.8479465712590706|-0.5103322267532349|0.5477396249771118|-0.6629799604415894|0|0|0|-1|-1|3
2021-04-08 20:14:58.901 +0100|19848.32473125|-1.116973876953125|1.2081298828125|-0.48876953125|19848.30477125|-1.030862704146008|-0.7145046959968396|-0.5400079940525503|-0.1146805435419083|-0.8891443610191345|-3.588988780975342|-0.5247113704681396|0.4788839817047119|0.2479323148727417|XArbitraryZVertical|-0.3835540646147302|-0.1700693023782701|-0.3638987085711043|0.831589215267229|-0.5620052814483643|0.5141428709030151|-0.6479254364967346|0|0|0|-1|-1|3
2021-04-08 20:14:58.921 +0100|19848.34469225|-1.136611938476562|1.168136596679688|-0.5941619873046875|19848.32473125|-1.089140623580953|-0.7608056248507437|-0.4923799997829846|0.1513432711362839|-0.8476954698562622|-3.373691082000732|-0.5036841630935669|0.7206959128379822|0.2117918729782104|XArbitraryZVertical|-0.3801058499520344|-0.1907817551188788|-0.38911493187919|0.8171362854150321|-0.607599139213562|0.4727244973182678|-0.6382437348365784|0|0|0|-1|-1|3
2021-04-08 20:14:58.941 +0100|19848.36465325|-1.112991333007812|1.00640869140625|-0.595855712890625|19848.34469225|-1.139971856171756|-0.79976433072603|-0.4469321098532898|-0.2213218063116074|-0.7299240231513977|-3.052364587783813|-0.4801303148269653|0.7663615345954895|0.06853687763214111|XArbitraryZVertical|-0.376712273019573|-0.2094623300622016|-0.412053005378498|0.8027614538541333|-0.6467474102973938|0.4322010278701782|-0.6284267902374268|0|0|0|-1|-1|3
2021-04-08 20:14:58.961 +0100|19848.38461425|-1.014251708984375|0.945404052734375|-0.540130615234375|19848.36465325|-1.192276996603082|-0.8326000537747084|-0.4136067135225831|-0.9600719213485718|-0.3766796886920929|-2.617075443267822|-0.4596675634384155|0.6883869171142578|0.01376277208328247|XArbitraryZVertical|-0.3776039702790716|-0.2220597810486913|-0.4338470518277084|0.7873255179142594|-0.6773114204406738|0.40191450715065|-0.6162093877792358|0|0|0|-1|-1|3
2021-04-08 20:14:58.981 +0100|19848.40457525|-0.9019012451171875|0.95562744140625|-0.4618682861328125|19848.38461425|-1.24681792508101|-0.8589168759513542|-0.3944847238081121|-1.478647232055664|-0.1354892253875732|-2.151789426803589|-0.3680340051651001|0.5706539154052734|0.02616560459136963|XArbitraryZVertical|-0.3830265045139898|-0.2274830795854632|-0.4542527396024791|0.7714899058605239|-0.6989834904670715|0.384332537651062|-0.6030842661857605|0|0|0|-1|-1|3
2021-04-08 20:14:59.001 +0100|19848.42453625|-0.7859039306640625|0.9106903076171875|-0.3992156982421875|19848.40457525|-1.300162335082611|-0.880661479091433|-0.3850861127271122|-1.621866941452026|-0.02558434940874577|-1.777312278747559|-0.2440864443778992|0.5775468945503235|0.09021669626235962|XArbitraryZVertical|-0.3910094767284267|-0.2282604379321299|-0.4724718239963516|0.7561609508228972|-0.7146852016448975|0.3756389319896698|-0.5900174975395203|0|0|0|-1|-1|3
2021-04-08 20:14:59.021 +0100|19848.44449725|-0.7203521728515625|0.75970458984375|-0.2699737548828125|19848.42453625|-1.347523898036647|-0.8987831309477148|-0.3782889165007611|-1.32980215549469|-0.07627538591623306|-1.541590809822083|-0.1163880825042725|0.5721361637115479|0.1510416269302368|XArbitraryZVertical|-0.3985563773831525|-0.2277710839496506|-0.4881283575537269|0.7422964331428127|-0.7272406816482544|0.3693309128284454|-0.5785462856292725|0|0|0|-1|-1|3
2021-04-08 20:14:59.041 +0100|19848.46445825|-0.754302978515625|0.528839111328125|-0.0950927734375|19848.44449725|-1.386088197449735|-0.9156722573144099|-0.36822213944705|-0.884911060333252|-0.2015366405248642|-1.508490800857544|-0.01224231719970703|0.4960146844387054|0.2251574993133545|XArbitraryZVertical|-0.4039522862110518|-0.2293760311344305|-0.5011468745709129|0.7301103319341641|-0.7398184537887573|0.3599573075771332|-0.5684183835983276|0|0|0|-1|-1|3
2021-04-08 20:14:59.074 +0100|19848.48441825|-0.9310150146484375|0.2213592529296875|0.0645751953125|19848.46445825|-1.417064509587437|-0.9349551960431339|-0.3508701160225885|-0.3799926042556763|-0.6522459387779236|-1.623215198516846|0.04577445983886719|0.2963908314704895|0.3595845699310303|XArbitraryZVertical|-0.4070461765123083|-0.2355349966049367|-0.5122641955507893|0.7186252637589196|-0.7555531859397888|0.3437150418758392|-0.5576733350753784|0|0|0|-1|-1|3
2021-04-08 20:14:59.081 +0100|19848.50437925|-1.024993896484375|-0.0680084228515625|0.234832763671875|19848.48441825|-1.443414019554078|-0.9614681667452337|-0.326713296904032|-0.3407823145389557|-1.047681450843811|-1.76874041557312|-0.06528007984161377|0.0983792245388031|0.5162253975868225|XArbitraryZVertical|-0.4096912858408806|-0.2472485095728849|-0.5215304456821837|0.7064187038622619|-0.7766548991203308|0.3209319114685059|-0.5420424342155457|0|0|0|-1|-1|3
2021-04-08 20:14:59.101 +0100|19848.52434025|-0.956298828125|-0.0646209716796875|0.240478515625|19848.50437925|-1.474234601876952|-0.991167629414669|-0.3022300884899883|-0.7455375790596008|-0.9125884771347046|-1.905026197433472|-0.2002798914909363|-0.2591829299926758|0.6889505386352539|XArbitraryZVertical|-0.4140498764306342|-0.2590724729542773|-0.5315465648611172|0.6920278856109027|-0.7987443208694458|0.2976499497890472|-0.5228883028030396|0|0|0|-1|-1|3
2021-04-08 20:14:59.121 +0100|19848.54430125|-0.8956298828125|-0.0101776123046875|0.1540985107421875|19848.52434025|-1.514106356498351|-1.018672269715031|-0.2792406486888116|-1.255385160446167|-0.756730854511261|-2.135726928710938|-0.186893105506897|-0.3711310029029846|0.7631230354309082|XArbitraryZVertical|-0.4199305049644346|-0.2675221726612627|-0.5444501047974126|0.6750292410667417|-0.8184329867362976|0.2756257951259613|-0.5041804909706116|0|0|0|-1|-1|3
2021-04-08 20:14:59.141 +0100|19848.56426225|-0.933013916015625|-0.0223541259765625|0.109527587890625|19848.54430125|-1.564966527488381|-1.048208995405777|-0.2536913013523925|-1.663133978843689|-0.85665363073349|-2.583182096481323|-0.07502371072769165|-0.2799404859542847|0.6811623573303223|XArbitraryZVertical|-0.4276667646206094|-0.2748218367995855|-0.5606064150736092|0.6536778503941514|-0.8387953639030457|0.2509788274765015|-0.4831481873989105|0|0|0|-1|-1|3
2021-04-08 20:14:59.161 +0100|19848.58422325|-0.961395263671875|-0.0183258056640625|0.0975494384765625|19848.56426225|-1.626472017137348|-1.080342825970412|-0.2224562646104854|-2.07997989654541|-0.8804514408111572|-3.024755716323853|-0.04557812213897705|-0.2326505184173584|0.5957726240158081|XArbitraryZVertical|-0.4367385241153454|-0.2820458288940905|-0.5799976892009556|0.6271462814598506|-0.8603826761245728|0.220626026391983|-0.4594192206859589|0|0|0|-1|-1|3
2021-04-08 20:14:59.181 +0100|19848.60418425|-0.9939117431640625|0.0147705078125|-0.017608642578125|19848.58422325|-1.698706935618839|-1.111823689851314|-0.1869660590660072|-2.594034433364868|-0.8126595020294189|-3.350069046020508|-0.06992179155349731|-0.2062955647706985|0.5586289167404175|XArbitraryZVertical|-0.4468778638439189|-0.287483728727201|-0.6024696688015194|0.5955532643565451|-0.8808844685554504|0.1858786940574646|-0.4353065490722656|0|0|0|-1|-1|3
2021-04-08 20:14:59.201 +0100|19848.62414525|-1.168792724609375|0.1977386474609375|-0.1639251708984375|19848.60418425|-1.779987055229545|-1.142544926118616|-0.1487684935751785|-2.991201400756836|-0.9276611804962158|-3.545474290847778|-0.06927317380905151|-0.164273276925087|0.4738506376743317|XArbitraryZVertical|-0.4583491075077341|-0.2908078940457974|-0.6265806899780575|0.5592348222502226|-0.899645209312439|0.1482203453779221|-0.4106937348842621|0|0|0|-1|-1|3
2021-04-08 20:14:59.221 +0100|19848.64410525|-1.350448608398438|0.4156341552734375|-0.3319244384765625|19848.62414525|-1.86633202014438|-1.174044658889413|-0.107034999656132|-3.116403102874756|-1.048826217651367|-3.709914207458496|-0.1468155980110168|-0.01718614250421524|0.2739079892635345|XArbitraryZVertical|-0.4709262369643328|-0.2934654907939828|-0.6504008621668355|0.518734273595623|-0.9170428514480591|0.1068307459354401|-0.3842129707336426|0|0|0|-1|-1|3
2021-04-08 20:14:59.241 +0100|19848.66406625|-1.40142822265625|0.51806640625|-0.4956512451171875|19848.64410525|-1.951057003991742|-1.200435195155006|-0.06003545143555068|-2.971774101257324|-0.8668479323387146|-3.80683708190918|-0.3442938923835754|0.2640048563480377|0.1180146038532257|XArbitraryZVertical|-0.4813488079350515|-0.2960630232623962|-0.6734614050110403|0.4765498800009343|-0.9305172562599182|0.05999939516186714|-0.3613000214099884|0|0|0|-1|-1|3
2021-04-08 20:14:59.261 +0100|19848.68402725|-1.358749389648438|0.631591796875|-0.68804931640625|19848.66406625|-2.0318304899939|-1.216566626028086|-0.009258869048351086|-2.806822776794434|-0.4384791254997253|-3.793199300765991|-0.4496387243270874|0.4538140594959259|-0.06746804714202881|XArbitraryZVertical|-0.4877157754905203|-0.2978367709106758|-0.6961042334650756|0.4345867329787542|-0.9378738403320312|0.009258736856281757|-0.3468531668186188|0|0|0|-1|-1|3
2021-04-08 20:14:59.281 +0100|19848.70398825|-1.27081298828125|0.6533355712890625|-0.798126220703125|19848.68402725|-2.108869434283962|-1.219625167864859|0.04156513333520156|-2.682790756225586|-0.02310851588845253|-3.640890598297119|-0.4513059854507446|0.6193567514419556|-0.2527342438697815|XArbitraryZVertical|-0.4895258301116441|-0.2975132414739599|-0.7185989119097529|0.3942919795999124|-0.9381596446037292|-0.04155316576361656|-0.3437006771564484|0|0|0|-1|-1|3
2021-04-08 20:14:59.300 +0100|19848.72394925|-1.082611083984375|0.6071929931640625|-0.8163909912109375|19848.70398825|-2.182545993500553|-1.210759585258274|0.08897817966464039|-2.600493907928467|0.4291849434375763|-3.35466742515564|-0.3931816816329956|0.7470324039459229|-0.4119934141635895|XArbitraryZVertical|-0.4875195968529646|-0.2947323775848786|-0.7404992235164137|0.3565368223554029|-0.9321816563606262|-0.08886081725358963|-0.3509149253368378|0|0|0|-1|-1|3
2021-04-08 20:14:59.321 +0100|19848.74391025|-0.8346710205078125|0.6996307373046875|-0.948760986328125|19848.72394925|-2.25437208513157|-1.190346678924292|0.1288247981443579|-2.62861156463623|0.8328846096992493|-2.912762403488159|-0.2583191394805908|0.7466623187065125|-0.4218233227729797|XArbitraryZVertical|-0.4824589959964421|-0.2882756069210739|-0.7618407982120989|0.3220703433357784|-0.920803964138031|-0.1284687668085098|-0.3682609796524048|0|0|0|-1|-1|3
2021-04-08 20:14:59.341 +0100|19848.76387125|-0.5569610595703125|0.8084716796875|-1.079055786132812|19848.74391025|-2.324893987372|-1.159876113030588|0.1567080772249307|-2.808254718780518|1.209728479385376|-2.3834228515625|-0.06184136867523193|0.8022303581237793|-0.4746580719947815|XArbitraryZVertical|-0.4753733623483972|-0.2770216072168362|-0.7823945589544599|0.2917842532950632|-0.9055201411247253|-0.1560674756765366|-0.3945583999156952|0|0|0|-1|-1|3
2021-04-08 20:14:59.360 +0100|19848.78383225|-0.3334503173828125|1.076171875|-0.9962615966796875|19848.76387125|-2.397628362103381|-1.120447157301262|0.1711216234551343|-3.073643445968628|1.516521096229553|-1.91787314414978|0.1938474178314209|0.9103226065635681|-0.6018847227096558|XArbitraryZVertical|-0.4669109765184795|-0.2598709534007993|-0.8028174325553383|0.2644724350277728|-0.8871459364891052|-0.170287698507309|-0.4289224445819855|0|0|0|-1|-1|3
2021-04-08 20:14:59.381 +0100|19848.80379325|-0.15069580078125|1.327987670898438|-0.9571685791015625|19848.78383225|-2.466626801205673|-1.07614730289456|0.1732334940418139|-2.786227703094482|1.712903380393982|-1.347437143325806|0.425143837928772|1.106281399726868|-0.5861389636993408|XArbitraryZVertical|-0.4571646884730576|-0.2391479154354141|-0.8219014451869522|0.241426884710509|-0.8669621348381042|-0.1723683476448059|-0.4676174521446228|0|0|0|-1|-1|3
2021-04-08 20:14:59.400 +0100|19848.82375325|-0.2073974609375|1.44256591796875|-0.905517578125|19848.80379325|-2.518960251897036|-1.033398067177432|0.1678088503600453|-1.966851234436035|1.590318322181702|-0.7198464870452881|0.618766188621521|1.371260166168213|-0.4536616206169128|XArbitraryZVertical|-0.4462922312955862|-0.2201526161328742|-0.8374312041515086|0.2259763286834598|-0.846976637840271|-0.1670223772525787|-0.5047121644020081|0|0|0|-1|-1|3
2021-04-08 20:14:59.420 +0100|19848.84371425|-0.3683929443359375|1.399459838867188|-0.818511962890625|19848.82375325|-2.551007333845207|-1.000183980356342|0.1576847693164265|-1.309750556945801|1.250129342079163|-0.04959460347890854|0.6891159415245056|1.577868461608887|-0.4145516157150269|XArbitraryZVertical|-0.437212697885825|-0.2052363953899732|-0.8479386997691842|0.2184561915357877|-0.8311294317245483|-0.1570321172475815|-0.5334461331367493|0|0|0|-1|-1|3
2021-04-08 20:14:59.440 +0100|19848.86367525|-0.558380126953125|1.621978759765625|-0.805999755859375|19848.84371425|-2.567615170280056|-0.9728769350880094|0.1383426694933928|-1.24416196346283|1.270435929298401|0.7556262612342834|0.5261926651000977|1.556479811668396|-0.2760263681411743|XArbitraryZVertical|-0.4299935736374417|-0.1906111413203019|-0.8549666853066634|0.2186434336580806|-0.8186120986938477|-0.1379018127918243|-0.5575458407402039|0|0|0|-1|-1|3
2021-04-08 20:14:59.460 +0100|19848.88363625|-0.8550872802734375|1.904342651367188|-0.7426300048828125|19848.86367525|-2.578718975273091|-0.9454471104114995|0.1023113686668124|-1.844268321990967|1.367002367973328|1.511226534843445|0.3546605706214905|1.549580574035645|-0.2610185146331787|XArbitraryZVertical|-0.4241832935697568|-0.1700260167384436|-0.8606508954246423|0.2245881917290176|-0.8065191507339478|-0.1021329686045647|-0.5823193788528442|0|0|0|-1|-1|3
2021-04-08 20:14:59.480 +0100|19848.90359725|-1.183670043945312|2.3033447265625|-0.6520538330078125|19848.88363625|-2.593538881897814|-0.9172404609080814|0.04573495639896696|-2.671899318695068|1.418123245239258|2.147471904754639|0.09371000528335571|1.823580503463745|-0.1642134189605713|XArbitraryZVertical|-0.4205336364856171|-0.1395086091888713|-0.8657225094601148|0.2328380601251098|-0.7930967211723328|-0.04571901261806488|-0.6073775887489319|0|0|0|-1|-1|3
2021-04-08 20:14:59.500 +0100|19848.923559625|-1.631622314453125|2.8787841796875|-0.4965972900390625|19848.90359725|-2.609852850383993|-0.8856992608278471|-0.03205494202132932|-3.407640933990479|1.708649873733521|2.936894416809082|-0.242153525352478|2.045876026153564|-0.06966423988342285|XArbitraryZVertical|-0.4172114109209822|-0.09860559742417073|-0.8698715116587485|0.2439984233900696|-0.7739598751068115|0.03204945102334023|-0.6324231624603271|0|0|0|-1|-1|3
2021-04-08 20:14:59.520 +0100|19848.943520625|-2.125396728515625|3.3310546875|-0.2788543701171875|19848.923559625|-2.619074596406496|-0.8517743601785317|-0.1296292184494231|-3.516793012619019|1.761526703834534|3.968040704727173|-0.6407496333122253|2.430516481399536|0.04997348785400391|XArbitraryZVertical|-0.4135068043151314|-0.04950393280908599|-0.8710106763416834|0.2605802209383808|-0.7461372017860413|0.1292664855718613|-0.6531229615211487|0|0|0|-1|-1|3
2021-04-08 20:14:59.540 +0100|19848.963481625|-2.608428955078125|4.0045166015625|-0.1959228515625|19848.943520625|-2.60741253307893|-0.8160988597864604|-0.2415974252338818|-3.141003370285034|1.512926578521729|5.179200172424316|-1.167648077011108|2.907610893249512|0.2917587161064148|XArbitraryZVertical|-0.4091535569441356|0.00272155638436324|-0.8662783636466328|0.2866145331930162|-0.7073216438293457|0.239253968000412|-0.6651719212532043|0|0|0|-1|-1|3
2021-04-08 20:14:59.560 +0100|19848.983442625|-3.243865966796875|5.397018432617188|-0.0719451904296875|19848.963481625|-2.56222790323512|-0.7761606741842955|-0.3655175148590721|-2.390348434448242|1.04121994972229|6.767899513244629|-1.724274396896362|3.211490154266357|0.4496544003486633|XArbitraryZVertical|-0.4046600384770919|0.05492638603778219|-0.8526519469634051|0.3259112149863952|-0.6542660593986511|0.3574326634407043|-0.6664667129516602|0|0|0|-1|-1|3
2021-04-08 20:14:59.580 +0100|19849.003402625|-4.001937866210938|5.51898193359375|0.3145294189453125|19848.983442625|-2.463497243076796|-0.72695351704344|-0.4928969452251788|-0.6985615491867065|-0.4016657769680023|8.513526916503906|-2.288598299026489|4.240365982055664|0.4324296116828918|XArbitraryZVertical|-0.4009936250114512|0.1003701703820296|-0.8259773040518736|0.3832642155554378|-0.5854866504669189|0.473179966211319|-0.6582598686218262|0|0|0|-1|-1|3
2021-04-08 20:14:59.600 +0100|19849.023363625|-4.445404052734375|4.796585083007812|-0.1556396484375|19849.003402625|-2.289767720442005|-0.6533487480520345|-0.6084902673038144|0.6844562292098999|-1.271222710609436|10.22603893280029|-3.152513742446899|5.024332523345947|0.8725836873054504|XArbitraryZVertical|-0.3960295726250982|0.1318926678256734|-0.7831728876798588|0.4608744655393976|-0.498747318983078|0.5716293454170227|-0.6515297889709473|0|0|0|-1|-1|3
2021-04-08 20:14:59.620 +0100|19849.043324625|-4.39215087890625|4.90399169921875|-0.8702850341796875|19849.023363625|-2.063283520174785|-0.5411677160228188|-0.7414510567144952|-2.445271015167236|-1.483988404273987|11.93016719818115|-3.90724778175354|4.563379764556885|0.8170594573020935|XArbitraryZVertical|-0.3930304954390153|0.1716773452055071|-0.7210246299737554|0.5442218574577882|-0.3799082040786743|0.675358772277832|-0.6321078538894653|0|0|0|-1|-1|3
2021-04-08 20:14:59.640 +0100|19849.063285625|-4.638992309570312|6.96478271484375|-1.527206420898438|19849.043324625|-1.783809017802953|-0.3697723170690149|-0.9476134373788933|-7.499659538269043|-2.448846578598022|13.79869079589844|-4.238677978515625|3.702882528305054|-0.04791140556335449|XArbitraryZVertical|-0.4089390456601797|0.2463352984308632|-0.6280600292644312|0.6145148798617204|-0.2109231203794479|0.8120249509811401|-0.5441755652427673|0|0|0|-1|-1|3
2021-04-08 20:14:59.660 +0100|19849.083246625|-5.718231201171875|8.515792846679688|-2.521591186523438|19849.063285625|-1.253609131478346|0.02901970881413095|-1.168004311034597|-8.372206687927246|-4.446819305419922|15.2810173034668|-4.475425243377686|4.925397396087646|-0.7736886739730835|XArbitraryZVertical|-0.4394084762162526|0.3331792682993158|-0.4957726122370051|0.6709108526678739|0.01137379743158817|0.9199701547622681|-0.3918235301971436|0|0|0|-1|-1|3
2021-04-08 20:14:59.680 +0100|19849.103207625|-6.341064453125|4.525604248046875|-3.320541381835938|19849.083246625|-0.3554031223689496|0.760466397230376|-1.167085649580386|-3.058889627456665|-6.396913051605225|16.09979629516602|-5.33930778503418|6.848823547363281|-1.674050211906433|XArbitraryZVertical|-0.4488262364742969|0.3952823627933212|-0.3382499245118967|0.7265631314539469|0.2707642912864685|0.9196096658706665|-0.2846137285232544|0|0|0|-1|-1|3
2021-04-08 20:14:59.700 +0100|19849.123168625|-6.285324096679688|4.99188232421875|-2.750396728515625|19849.103207625|0.1663166995369881|1.103492989166899|-0.9438297120381371|-4.483924865722656|-5.409594535827637|17.78757858276367|-6.993731021881104|5.983585834503174|-3.002766132354736|XArbitraryZVertical|-0.4245784339323208|0.4331128036770595|-0.1744574091636137|0.7757005104754963|0.5237899422645569|0.8098108768463135|-0.2642928957939148|0|0|0|-1|-1|3
2021-04-08 20:14:59.720 +0100|19849.143129625|-6.089752197265625|4.517257690429688|-2.0491943359375|19849.123168625|0.4865633898288353|1.244390261488775|-0.64866846447219|-4.688148975372314|-4.469472885131836|17.95659255981445|-7.376366138458252|5.072602272033691|-2.444542407989502|XArbitraryZVertical|-0.3844074719354688|0.4737860843914641|0.005278479245983357|0.7922941672475384|0.754814088344574|0.6041258573532104|-0.2555152773857117|0|0|0|-1|-1|3
2021-04-08 20:14:59.740 +0100|19849.163089625|-5.978134155273438|3.234146118164062|-1.616180419921875|19849.143129625|0.6914750737285826|1.251725532649619|-0.3347035046304371|-2.232637882232666|-4.338562965393066|17.13313865661621|-7.055787086486816|4.305957317352295|-2.235582590103149|XArbitraryZVertical|-0.322758412731954|0.4976829521176064|0.1790164398744833|0.7849152534912939|0.89683598279953|0.3284891545772552|-0.2962773740291595|0|0|0|-1|-1|3
2021-04-08 20:14:59.760 +0100|19849.183050625|-6.410934448242188|1.144500732421875|-0.2173309326171875|19849.163089625|0.8088699218248548|1.1864476875931|-0.03162388777390949|1.71868908405304|-4.564915657043457|15.00783157348633|-6.901066303253174|3.8837571144104|-1.572955012321472|XArbitraryZVertical|-0.2320053467941715|0.5087136316354157|0.3181003626543037|0.765634506594165|0.9265794157981873|0.03161861747503281|-0.374767929315567|0|0|0|-1|-1|3
2021-04-08 20:14:59.779 +0100|19849.203011625|-5.1376953125|-1.021377563476562|0.7011566162109375|19849.183050625|0.8600445699215862|1.106210949397238|0.231903230091478|4.019269943237305|-2.454889297485352|10.96235275268555|-7.157352447509766|2.576755046844482|-0.5686717629432678|XArbitraryZVertical|-0.1280561878337415|0.5153372857730509|0.4075928436579815|0.7428979498071252|0.8700755834579468|-0.2298302203416824|-0.4360581934452057|0|0|0|-1|-1|3
2021-04-08 20:14:59.799 +0100|19849.222972625|-3.844680786132812|-1.759262084960938|1.352005004882812|19849.203011625|0.8759379386280589|1.075739066923102|0.4277725561206968|3.416741847991943|-0.4100963175296783|7.305567741394043|-6.676490306854248|0.3579917550086975|0.7816236019134521|XArbitraryZVertical|-0.04723592072384856|0.5306901719475455|0.454397863580317|0.7139043753549532|0.8006518483161926|-0.4148451089859009|-0.4322734177112579|0|0|0|-1|-1|3
2021-04-08 20:14:59.820 +0100|19849.242933625|-2.955398559570312|-1.806045532226562|1.307846069335938|19849.222972625|0.8875940732908307|1.070433207886899|0.5549080346303313|1.929945349693298|0.3413103222846985|4.526161670684814|-5.17617130279541|-1.040013313293457|1.510007381439209|XArbitraryZVertical|0.002164466439805226|0.5441656703083947|0.481370455115689|0.6871402029663164|0.7457523941993713|-0.5268651247024536|-0.4077580869197845|0|0|0|-1|-1|3
2021-04-08 20:14:59.840 +0100|19849.262894625|-2.263137817382812|-2.040069580078125|0.797119140625|19849.242933625|0.8937140048556727|1.080871883302081|0.6288169698730167|1.154066443443298|0.9392763376235962|2.338539600372314|-4.101347923278809|-1.160727500915527|1.796492099761963|XArbitraryZVertical|0.02770465334435582|0.5558382560842513|0.4958738687497909|0.666622528377263|0.7135925889015198|-0.5881884098052979|-0.3805525600910187|0|0|0|-1|-1|3
2021-04-08 20:14:59.860 +0100|19849.282855625|-1.743789672851562|-2.005950927734375|0.37109375|19849.262894625|0.8977740701840279|1.096986026228761|0.6629139788609226|0.05310641229152679|0.8500731587409973|0.9159373641014099|-3.267074584960938|-1.328201770782471|1.421439290046692|XArbitraryZVertical|0.03622219260967603|0.5646834594393795|0.5030150812557797|0.65329664539758|0.7013710141181946|-0.6154162883758545|-0.3596410751342773|0|0|0|-1|-1|3
2021-04-08 20:14:59.879 +0100|19849.302816625|-1.275344848632812|-1.535934448242188|0.0734405517578125|19849.282855625|0.9185300992628874|1.097207033756375|0.662947578850852|-1.478061676025391|0.4172042608261108|-0.1521861404180527|-2.702850341796875|-1.45726466178894|0.9116160869598389|XArbitraryZVertical|0.03031710414428218|0.5651040398705499|0.5097765280484267|0.6479708368641937|0.7014319896697998|-0.6154427528381348|-0.3594765961170197|0|0|0|-1|-1|3
2021-04-08 20:14:59.900 +0100|19849.322777625|-0.9208831787109375|-1.00823974609375|-0.1689605712890625|19849.302816625|0.9569772647898158|1.076526342573725|0.6314219906663207|-2.566840648651123|-0.1542681902647018|-1.220670819282532|-2.206109046936035|-1.197547912597656|0.5885188579559326|XArbitraryZVertical|0.01227342891933965|0.5553273994625852|0.517089484623122|0.6512137733659997|0.7105807662010193|-0.5902931690216064|-0.3829216957092285|0|0|0|-1|-1|3
2021-04-08 20:14:59.919 +0100|19849.342737625|-0.65118408203125|-0.4749298095703125|-0.4108123779296875|19849.322777625|0.9931972834529376|1.048375602887849|0.5741634462968227|-2.646965265274048|-0.5637330412864685|-2.360749483108521|-1.810046434402466|-0.7307008504867554|0.3741823732852936|XArbitraryZVertical|-0.01317736610440063|0.5388348964887288|0.5201892041779838|0.662485233915572|0.7276497483253479|-0.5431325435638428|-0.4189666211605072|0|0|0|-1|-1|3
2021-04-08 20:14:59.939 +0100|19849.362698625|-0.3708953857421875|-0.1236419677734375|-0.64447021484375|19849.342737625|1.004096306769349|1.026776527025028|0.5026322657335247|-1.728415012359619|-0.9834886193275452|-3.307416915893555|-1.533559799194336|-0.2600560784339905|0.140148937702179|XArbitraryZVertical|-0.03902934120985002|0.5212433287804067|0.513079678314865|0.6808315455145099|0.749808132648468|-0.4817339181900024|-0.4535641968250275|0|0|0|-1|-1|3
2021-04-08 20:14:59.960 +0100|19849.382659625|-0.00445556640625|0.0904083251953125|-0.91064453125|19849.362698625|0.9836309769700459|1.015304510191785|0.4263338069157362|-0.7368165254592896|-1.157924890518188|-4.09849214553833|-1.30419659614563|0.1603321433067322|-0.01825672388076782|XArbitraryZVertical|-0.06140196202373174|0.5061143870877362|0.4939869452091425|0.7043116602395848|0.7735880613327026|-0.4135355651378632|-0.4801560640335083|0|0|0|-1|-1|3
2021-04-08 20:14:59.979 +0100|19849.402620625|0.1207733154296875|0.21539306640625|-1.150177001953125|19849.382659625|0.9406469353230056|1.00271409857199|0.3482652180953019|-0.1407774686813354|-1.734568953514099|-4.79332447052002|-0.9734814763069153|0.3231106400489807|-0.2832075953483582|XArbitraryZVertical|-0.07907389171400966|0.4908040938571162|0.4656205594153256|0.7321586522517317|0.7923297882080078|-0.3412676751613617|-0.5057173371315002|0|0|0|-1|-1|3
2021-04-08 20:14:59.999 +0100|19849.422581625|0.0599365234375|0.4810028076171875|-1.284027099609375|19849.402620625|0.882370157496465|0.9742944630400708|0.2641491734327302|0.07178115844726562|-2.770506858825684|-5.250146865844727|-0.6898607611656189|0.3970753252506256|-0.5163564682006836|XArbitraryZVertical|-0.09291750440010692|0.4692894127533426|0.4297942604875789|0.765774683826047|0.7986107468605042|-0.2610880434513092|-0.5422675609588623|0|0|0|-1|-1|3
2021-04-08 20:15:00.019 +0100|19849.442542625|0.17449951171875|0.7869720458984375|-1.366455078125|19849.422581625|0.8201632045235014|0.9309035749384854|0.1748537734049913|-0.3743102848529816|-2.7839035987854|-5.529409408569336|-0.7206989526748657|0.5114743113517761|-0.6476823091506958|XArbitraryZVertical|-0.1066990747427794|0.4411495550169391|0.3908512345220728|0.8007733631360764|0.7899285554885864|-0.1739641427993774|-0.5880047678947449|0|0|0|-1|-1|3
2021-04-08 20:15:00.039 +0100|19849.462503625|0.1298828125|1.116226196289062|-1.314682006835938|19849.442542625|0.7601354635785352|0.8847840488264153|0.07986932986515038|-0.663725733757019|-2.649802446365356|-5.593269824981689|-0.6568092703819275|0.7160007357597351|-0.706285297870636|XArbitraryZVertical|-0.1251864064157266|0.4106211593070838|0.3508734927503535|0.8322298147958971|0.7713115215301514|-0.07978443801403046|-0.6314372420310974|0|0|0|-1|-1|3
2021-04-08 20:15:00.060 +0100|19849.482464625|-0.0033111572265625|1.259796142578125|-1.192108154296875|19849.462503625|0.6965087351989181|0.8329205521131643|-0.01194074740051565|-0.4213899075984955|-2.69706916809082|-5.51272439956665|-0.5491877198219299|0.955696702003479|-0.6570419073104858|XArbitraryZVertical|-0.1431772559129337|0.3783720171515291|0.3098132986250303|0.8604363436039334|0.7398465275764465|0.01194046344608068|-0.6726697683334351|0|0|0|-1|-1|3
2021-04-08 20:15:00.079 +0100|19849.502425625|-0.11749267578125|1.131118774414062|-0.8773040771484375|19849.482464625|0.6226386833637116|0.778024019874564|-0.09273512531674874|0.1908844262361526|-2.432185411453247|-5.473036289215088|-0.6469012498855591|1.135731339454651|-0.5674004554748535|XArbitraryZVertical|-0.1568786963582887|0.3475175871389558|0.2663889700826057|0.8852443825839983|0.6988574862480164|0.09260226786136627|-0.7092412114143372|0|0|0|-1|-1|3
2021-04-08 20:15:00.099 +0100|19849.522385625|-0.3019561767578125|0.8317718505859375|-0.5983734130859375|19849.502425625|0.5342112840448017|0.7173715828891042|-0.1586496887869158|0.9151133298873901|-2.56486701965332|-5.491288185119629|-0.6970172524452209|1.056936144828796|-0.301794707775116|XArbitraryZVertical|-0.1639309479325949|0.3179467513291666|0.2195353175993446|0.9076568016032192|0.6491503119468689|0.1579850018024445|-0.7440730333328247|0|0|0|-1|-1|3
2021-04-08 20:15:00.119 +0100|19849.542346625|-0.586212158203125|0.5271759033203125|-0.3955230712890625|19849.522385625|0.4320218109117592|0.6452448104885871|-0.2112849804201153|1.274583220481873|-2.816239833831787|-5.676320552825928|-0.8031084537506104|0.7754836082458496|0.05691218376159668|XArbitraryZVertical|-0.1652587614054027|0.286525211134662|0.1694883157133337|0.9283678101357099|0.5880204439163208|0.2097164839506149|-0.7811856865882874|0|0|0|-1|-1|3
2021-04-08 20:15:00.139 +0100|19849.562307625|-1.248931884765625|0.365203857421875|-0.0483551025390625|19849.542346625|0.3176935968167843|0.5539498651967819|-0.2562820881490396|1.221845030784607|-3.819611310958862|-6.123666763305664|-0.9153636693954468|0.4311618804931641|0.3192132115364075|XArbitraryZVertical|-0.1642717560040459|0.2483473189905846|0.1163994164879205|0.947517711596175|0.5088692307472229|0.2534858286380768|-0.8226767778396606|0|0|0|-1|-1|3
2021-04-08 20:15:00.159 +0100|19849.582268625|-2.16839599609375|0.3883056640625|0.2272491455078125|19849.562307625|0.1878549522712127|0.4240508152129145|-0.300478882749999|0.7504107356071472|-5.638168811798096|-7.038376808166504|-1.248489618301392|0.1153392791748047|0.646060049533844|XArbitraryZVertical|-0.1651929220460292|0.1934290949950009|0.05929751827297253|0.9652877180307662|0.3930205106735229|0.2959776520729065|-0.8705929517745972|0|0|0|-1|-1|3
2021-04-08 20:15:00.179 +0100|19849.602229625|-2.62286376953125|0.4049072265625|-0.1021270751953125|19849.582268625|0.03915714541502942|0.2612271253076842|-0.3450544957082178|-0.3019563257694244|-5.520172595977783|-7.595940589904785|-1.96190071105957|0.02977970242500305|1.060574293136597|XArbitraryZVertical|-0.1726896603167823|0.1249520714000766|-0.003232387393008733|0.9770132551630708|0.2430432587862015|0.3382479548454285|-0.9091305136680603|0|0|0|-1|-1|3
2021-04-08 20:15:00.199 +0100|19849.622190625|-2.56231689453125|0.7307281494140625|-0.527374267578125|19849.602229625|-0.1138868862727057|0.1111618068504971|-0.3963673279700103|-2.293808698654175|-3.899661302566528|-7.393974304199219|-2.594078063964844|0.01520663499832153|1.022946834564209|XArbitraryZVertical|-0.1931664488274631|0.065564785017734|-0.06663238485313254|0.9767027194214688|0.1023323237895966|0.3860698640346527|-0.9167759418487549|0|0|0|-1|-1|3
2021-04-08 20:15:00.219 +0100|19849.642151625|-2.555938720703125|1.303848266601562|-0.84027099609375|19849.622190625|-0.277312451358082|-0.02309281673597922|-0.4699152412600111|-4.184846878051758|-2.793158531188965|-7.856957912445068|-2.587368965148926|0.04072031378746033|0.5686612129211426|XArbitraryZVertical|-0.2321040758186285|0.02105278932704213|-0.1317437344971277|0.9634978786889341|-0.02058788016438484|0.4528107047080994|-0.8913689851760864|0|0|0|-1|-1|3
2021-04-08 20:15:00.239 +0100|19849.662112625|-2.472518920898438|1.363052368164062|-1.415283203125|19849.642151625|-0.4715406071790042|-0.1632644672469607|-0.5373225616784864|-3.939197540283203|-1.811498045921326|-8.440522193908691|-2.407042264938354|0.5230597257614136|0.1662620306015015|XArbitraryZVertical|-0.2756021430075389|-0.01464310931859426|-0.2034167585741453|0.9393885538846183|-0.1396353244781494|0.5118376612663269|-0.847658097743988|0|0|0|-1|-1|3
2021-04-08 20:15:00.259 +0100|19849.682073625|-2.353073120117188|1.574615478515625|-1.973342895507812|19849.662112625|-0.6889365641912329|-0.3013735654607585|-0.5670136449475308|-3.205540657043457|-0.453716903924942|-8.861126899719238|-2.298173904418945|0.8530521988868713|-0.3023722171783447|XArbitraryZVertical|-0.3089785375083943|-0.04226661166559728|-0.281016958111635|0.9076208087786034|-0.2503805160522461|0.5371154546737671|-0.80549156665802|0|0|0|-1|-1|3
2021-04-08 20:15:00.279 +0100|19849.702033625|-1.972793579101562|1.616378784179688|-2.2279052734375|19849.682073625|-0.9119624656211615|-0.414658782081973|-0.5605304479925616|-2.970334529876709|1.142857074737549|-9.010696411132812|-2.068732261657715|0.9396018385887146|-0.9639549255371094|XArbitraryZVertical|-0.3301371795863351|-0.0584094699949043|-0.3629778710491163|0.8693935030225107|-0.3412266075611115|0.5316355228424072|-0.7751955389976501|0|0|0|-1|-1|3
2021-04-08 20:15:00.299 +0100|19849.721994625|-1.187225341796875|1.922698974609375|-2.612060546875|19849.702033625|-1.131155242097272|-0.4842628281442862|-0.539490989369982|-3.512680053710938|3.492872476577759|-8.62222957611084|-1.839703559875488|1.090167284011841|-1.365878343582153|XArbitraryZVertical|-0.3422739001404617|-0.05646963043419597|-0.4475110726912981|0.8242534878939107|-0.3994333148002625|0.5136993527412415|-0.759319543838501|0|0|0|-1|-1|3
2021-04-08 20:15:00.319 +0100|19849.741955625|-0.867645263671875|2.842788696289062|-2.342254638671875|19849.721994625|-1.352585608642144|-0.5055944229353349|-0.5353432414267603|-5.40516996383667|5.42728853225708|-8.451970100402832|-1.181853175163269|1.19880211353302|-1.670366644859314|XArbitraryZVertical|-0.3506893272040847|-0.0278343386417779|-0.5328406084037958|0.7696253909373975|-0.4165670573711395|0.5101363062858582|-0.7524845004081726|0|0|0|-1|-1|3
2021-04-08 20:15:00.339 +0100|19849.761916625|-0.936248779296875|4.1856689453125|-1.34783935546875|19849.741955625|-1.594410304038782|-0.5126288718128192|-0.5652848239383225|-7.055431365966797|6.566200256347656|-7.829599380493164|-0.4775694310665131|1.770251274108887|-1.864084720611572|XArbitraryZVertical|-0.3626711115562649|0.02289808809798507|-0.615173947287324|0.6996473150050946|-0.4141704738140106|0.5356563329696655|-0.7358906865119934|0|0|0|-1|-1|3
2021-04-08 20:15:00.359 +0100|19849.781877625|-0.5306396484375|5.232879638671875|-0.5876922607421875|19849.761916625|-1.81765062345828|-0.4900293601296009|-0.6212219631392899|-6.477592468261719|8.177228927612305|-5.538658618927002|-0.5854521989822388|2.905381679534912|-1.169535160064697|XArbitraryZVertical|-0.3644372824609995|0.09191689525888311|-0.6830345742020746|0.6262592263502417|-0.3827189207077026|0.5820292830467224|-0.7174735069274902|0|0|0|-1|-1|3
2021-04-08 20:15:00.379 +0100|19849.801838625|-0.0599365234375|5.193649291992188|0.3288116455078125|19849.781877625|-1.973460081299765|-0.4071262336921684|-0.6791499012968506|-4.173642635345459|9.351468086242676|-3.082749843597412|-0.4924445748329163|4.240428447723389|-0.204271137714386|XArbitraryZVertical|-0.3388954733544386|0.1670227182018107|-0.7332178852688541|0.5653715157028554|-0.3081086575984955|0.6281318068504333|-0.7145065665245056|0|0|0|-1|-1|3
2021-04-08 20:15:00.398 +0100|19849.821799625|0.0184173583984375|5.425308227539062|1.204421997070312|19849.801838625|-2.050820996978023|-0.2740304131344278|-0.7230690586521015|-2.055674076080322|8.839254379272461|-0.9676356315612793|-0.05248679220676422|4.634010314941406|0.4919593334197998|XArbitraryZVertical|-0.2909898721419633|0.2332883468603059|-0.7671044606391177|0.521969774408351|-0.2029003202915192|0.6616889238357544|-0.7218028903007507|0|0|0|-1|-1|3
2021-04-08 20:15:00.418 +0100|19849.841760625|-0.583221435546875|6.000946044921875|1.941482543945312|19849.821799625|-2.0530101374719|-0.1132510786289053|-0.7419571516137231|0.09115797281265259|7.13431978225708|1.139362096786499|0.123983658850193|4.533205986022949|1.572268486022949|XArbitraryZVertical|-0.2325435264919572|0.2823311340372333|-0.7853957824442238|0.4993657614969404|-0.08330440521240234|0.675731897354126|-0.7324252724647522|0|0|0|-1|-1|3
2021-04-08 20:15:00.438 +0100|19849.861721625|-1.754318237304688|6.07562255859375|2.677566528320312|19849.841760625|-1.995504838426068|0.04048266105073748|-0.7205937712827692|2.076962947845459|4.340933322906494|3.180231332778931|-0.2151039242744446|5.096622943878174|2.34361720085144|XArbitraryZVertical|-0.1751971066949949|0.3064420200438625|-0.7900114654181055|0.5012797900378138|0.03041093610227108|0.6598309278488159|-0.7507985234260559|0|0|0|-1|-1|3
2021-04-08 20:15:00.458 +0100|19849.881681625|-2.063018798828125|4.298126220703125|2.4066162109375|19849.861721625|-1.892278201542821|0.1672217608003398|-0.6555726420560768|3.119889497756958|2.323926687240601|5.415999889373779|-1.295407652854919|5.607823848724365|3.031717300415039|XArbitraryZVertical|-0.1234873860783937|0.306480087922073|-0.7810163777609439|0.5299380929915283|0.1319396048784256|0.609613299369812|-0.7816416621208191|0|0|0|-1|-1|3
2021-04-08 20:15:00.478 +0100|19849.901642625|-0.9610137939453125|3.11627197265625|1.584396362304688|19849.881681625|-1.7413966285093|0.2955176689238004|-0.5897843889607317|-0.373765766620636|1.986841559410095|8.155723571777344|-2.328826665878296|4.682571887969971|3.411352634429932|XArbitraryZVertical|-0.07748276585071391|0.3106102374552769|-0.7513605360099894|0.5770399391898705|0.2420340329408646|0.5561818480491638|-0.7950354218482971|0|0|0|-1|-1|3
2021-04-08 20:15:00.498 +0100|19849.921603625|0.1313018798828125|4.570022583007812|1.008636474609375|19849.901642625|-1.486806192105095|0.4680909065888426|-0.5948273554946282|-8.264301300048828|0.872519850730896|11.07308959960938|-1.996005654335022|2.927899837493896|2.761536121368408|XArbitraryZVertical|-0.05978340075224362|0.3561600218052469|-0.6794737731906694|0.6386637607260125|0.3736904859542847|0.5603657960891724|-0.7391519546508789|0|0|0|-1|-1|3
2021-04-08 20:15:00.518 +0100|19849.94156404167|-0.5121002197265625|7.420516967773438|-0.2450714111328125|19849.921603625|-1.091218878803478|0.677996948526019|-0.6479242218340577|-12.6562614440918|-3.00805139541626|12.84571647644043|-0.7098507881164551|2.926908731460571|1.819095849990845|XArbitraryZVertical|-0.09302902000211886|0.4252644248168157|-0.5544347740423319|0.709293934084217|0.5001178979873657|0.603532612323761|-0.6209915280342102|0|0|0|-1|-1|3
2021-04-08 20:15:00.538 +0100|19849.96152504167|-2.523162841796875|7.097000122070312|-2.295272827148438|19849.94156404167|-0.6363787255454604|0.86859170657554|-0.6416105930864633|-11.72226619720459|-5.769270896911621|13.06221866607666|-0.6283712387084961|5.409677505493164|1.115963816642761|XArbitraryZVertical|-0.1467771239398662|0.4687532921593732|-0.3953474898465182|0.7761619630495853|0.6116009950637817|0.5984865427017212|-0.517453670501709|0|0|0|-1|-1|3
2021-04-08 20:15:00.560 +0100|19849.98148604167|-4.210159301757812|6.713424682617188|-2.739364624023438|19849.96152504167|-0.2571025410619222|0.9509747265052195|-0.5586491288997606|-8.702810287475586|-7.447689056396484|13.0526065826416|-2.219516277313232|7.354007720947266|-0.8947967290878296|XArbitraryZVertical|-0.18668900177228|0.4678226319604949|-0.2347282081341482|0.8313795723382658|0.6902340054512024|0.5300411581993103|-0.4925784170627594|0|0|0|-1|-1|3
2021-04-08 20:15:00.579 +0100|19850.00144704167|-4.562271118164062|5.423568725585938|-3.059417724609375|19849.98148604167|0.07153637953844344|0.9527727385821614|-0.4326683473157476|-8.085301399230957|-6.999948501586914|13.84966945648193|-4.054313659667969|6.419313907623291|-2.438369750976562|XArbitraryZVertical|-0.2066455234289209|0.4407741733907154|-0.0673314322053705|0.8709088710810509|0.7399207949638367|0.4192947447299957|-0.526031494140625|0|0|0|-1|-1|3
2021-04-08 20:15:00.598 +0100|19850.02140804167|-4.478683471679688|6.342544555664062|-2.794448852539062|19850.00144704167|0.4018122243997225|0.9448273477303418|-0.3047443295369369|-9.696280479431152|-5.873652935028076|14.38552379608154|-5.296768188476562|5.549942493438721|-2.395580053329468|XArbitraryZVertical|-0.2221940887051136|0.4137463470205655|0.1079636571520173|0.8762349050095779|0.7730557322502136|0.3000493049621582|-0.5588874816894531|0|0|0|-1|-1|3
2021-04-08 20:15:00.618 +0100|19850.04136904167|-4.433029174804688|5.078628540039062|-2.982330322265625|19850.02140804167|0.720769645442232|0.9145584617549918|-0.1842151673499338|-7.139366149902344|-4.839658260345459|13.47163677215576|-5.399462699890137|5.558753967285156|-2.452718496322632|XArbitraryZVertical|-0.2322570168853099|0.3822932552704443|0.2770623198955317|0.8503793645534863|0.778887927532196|0.1831750422716141|-0.5998170971870422|0|0|0|-1|-1|3
2021-04-08 20:15:00.638 +0100|19850.06132904167|-5.125457763671875|2.589324951171875|-2.15667724609375|19850.04136904167|0.9480437263347272|0.8398421146962889|-0.04117638144894133|-0.7699529528617859|-5.331360340118408|11.95793914794922|-5.054911136627197|5.825138568878174|-2.291099548339844|XArbitraryZVertical|-0.2027828585552996|0.3540788440480422|0.4092550167759467|0.8160991407126652|0.7439066767692566|0.04116474837064743|-0.6670145392417908|0|0|0|-1|-1|3
2021-04-08 20:15:00.658 +0100|19850.08129004167|-4.975692749023438|-0.81201171875|-0.7790374755859375|19850.06132904167|1.061894393440567|0.7431699843777421|0.146094366009279|5.073084354400635|-3.603347539901733|9.11680793762207|-5.559446811676025|4.351356029510498|-1.981324553489685|XArbitraryZVertical|-0.1247222725906269|0.3467025048096712|0.4933864010203159|0.7879161174028344|0.6694175004959106|-0.145575225353241|-0.7284834384918213|0|0|0|-1|-1|3
2021-04-08 20:15:00.678 +0100|19850.10125104167|-3.640625|-2.494247436523438|-0.3585357666015625|19850.08129004167|1.106508490375263|0.6968435830342004|0.328868198073572|5.10258674621582|-0.02910893782973289|6.541923999786377|-5.749387741088867|1.11853563785553|-0.6419015526771545|XArbitraryZVertical|-0.04607408606441753|0.3674101087750031|0.5347736651463885|0.7595420594348258|0.6074053049087524|-0.3229720890522003|-0.7257739901542664|0|0|0|-1|-1|3
2021-04-08 20:15:00.698 +0100|19850.12121204167|-2.661087036132812|-2.299362182617188|-0.374237060546875|19850.10125104167|1.147848045176302|0.7018159691969029|0.4592943988632172|2.421465873718262|1.5636225938797|4.885452270507812|-5.002144336700439|-1.466473579406738|0.2789347171783447|XArbitraryZVertical|-0.002220704791858983|0.3971534290613906|0.56217266596446|0.7254145607989178|0.5786985754966736|-0.4433157444000244|-0.6845284700393677|0|0|0|-1|-1|3
2021-04-08 20:15:00.718 +0100|19850.14117304167|-2.345794677734375|-1.59912109375|-0.101654052734375|19850.12121204167|1.196819633295275|0.7046671676962433|0.5304124294338991|0.5107187032699585|1.008872509002686|3.025027513504028|-3.573421955108643|-2.021514892578125|0.2738961577415466|XArbitraryZVertical|0.01565668059159606|0.4137382796454596|0.5849722720008534|0.6974116316572673|0.5587743520736694|-0.5058891177177429|-0.6571509838104248|0|0|0|-1|-1|3
2021-04-08 20:15:00.738 +0100|19850.16113404167|-1.823822021484375|-1.594619750976562|0.0785369873046875|19850.14117304167|1.229170875800671|0.7067102614954984|0.5636076952380138|0.4604462683200836|1.044313192367554|1.28520393371582|-3.029281139373779|-1.3552405834198|0.3840736150741577|XArbitraryZVertical|0.02149762238011869|0.422017727513815|0.598277912458366|0.6808102336483604|0.5489048957824707|-0.5342393517494202|-0.6428777575492859|0|0|0|-1|-1|3
2021-04-08 20:15:00.758 +0100|19850.18109504167|-1.229415893554688|-1.777816772460938|0.0840606689453125|19850.16113404167|1.22790364072353|0.7336433292744896|0.5818237880069637|0.8708159923553467|1.570181369781494|-0.1532080769538879|-2.684926509857178|-0.9716147184371948|0.6265735030174255|XArbitraryZVertical|0.02091033383881281|0.4350831774930809|0.5992631138974918|0.6716764016049882|0.5594086050987244|-0.5495485663414001|-0.6205307841300964|0|0|0|-1|-1|3
2021-04-08 20:15:00.778 +0100|19850.20105604167|-0.8429412841796875|-1.563552856445312|-0.0111541748046875|19850.18109504167|1.202907821903512|0.7760040670087491|0.5816022876141292|0.5115225315093994|1.226448535919189|-1.349990010261536|-2.10341215133667|-1.17060649394989|0.6804930567741394|XArbitraryZVertical|0.01373960450204817|0.4490274838814037|0.5912309849203017|0.669799606623618|0.5852702856063843|-0.5493634939193726|-0.596371054649353|0|0|0|-1|-1|3
2021-04-08 20:15:00.798 +0100|19850.22101704167|-0.683807373046875|-1.1456298828125|-0.2007598876953125|19850.20105604167|1.167619404738802|0.8124567313870733|0.5568135114835808|-0.1443803161382675|0.4745644927024841|-2.48601770401001|-1.627987146377563|-1.171131014823914|0.6147626638412476|XArbitraryZVertical|0.001222241382473135|0.4561601519275814|0.577460120202629|0.6770940468043355|0.6163150668144226|-0.5284837484359741|-0.583832859992981|0|0|0|-1|-1|3
2021-04-08 20:15:00.818 +0100|19850.24097704167|-0.6634063720703125|-0.7048187255859375|-0.3985137939453125|19850.22101704167|1.126931207904316|0.8329470189853031|0.5090275065088484|-0.4617640376091003|-0.4713499546051025|-3.387998580932617|-1.38063633441925|-0.8918213844299316|0.46930992603302|XArbitraryZVertical|-0.0144525096394219|0.4539655801944091|0.5588349406982351|0.6938372246757771|0.6461095809936523|-0.4873282909393311|-0.5874127745628357|0|0|0|-1|-1|3
2021-04-08 20:15:00.838 +0100|19850.26093804167|-0.6586761474609375|-0.3803253173828125|-0.562896728515625|19850.24097704167|1.078008936136005|0.8397154214482251|0.4468679011708723|-0.4623188376426697|-1.070515751838684|-4.144309520721436|-1.332193851470947|-0.4791414737701416|0.3041848540306091|XArbitraryZVertical|-0.03038069188914417|0.4449952615433415|0.5345675495135083|0.7178397595743515|0.6713516712188721|-0.4321431219577789|-0.6021124720573425|0|0|0|-1|-1|3
2021-04-08 20:15:00.858 +0100|19850.28089904167|-0.686248779296875|-0.07196044921875|-0.6390380859375|19850.26093804167|1.020064410365292|0.8375655120767612|0.3752467906235486|-0.3731789886951447|-1.468489527702332|-4.737053871154785|-1.356872081756592|-0.1763283908367157|0.1272664070129395|XArbitraryZVertical|-0.04632576201169903|0.4318588119391991|0.5043858555851718|0.7462887949961505|0.6913148760795593|-0.3665021657943726|-0.6227037906646729|0|0|0|-1|-1|3
2021-04-08 20:15:00.878 +0100|19850.30086004167|-0.8209991455078125|0.160552978515625|-0.649505615234375|19850.28089904167|0.9531311589951474|0.8251302849422494|0.2976467145194995|-0.1837463974952698|-1.988057374954224|-5.257582187652588|-1.360261559486389|0.06944096088409424|0.03492057323455811|XArbitraryZVertical|-0.06120102329973655|0.4146564780281065|0.4684231074879243|0.7777495854124228|0.7023337483406067|-0.2932712137699127|-0.6486288905143738|0|0|0|-1|-1|3
2021-04-08 20:15:00.898 +0100|19850.32082104167|-0.96484375|0.2966156005859375|-0.564178466796875|19850.30086004167|0.8758344524388412|0.8002518471391395|0.2166513304059935|0.026967603713274|-2.443536520004272|-5.799465179443359|-1.443509221076965|0.2742418348789215|0.03446090221405029|XArbitraryZVertical|-0.074037300487761|0.392933673961707|0.4264097269539259|0.8113547695075622|0.7007576823234558|-0.214960440993309|-0.680243194103241|0|0|0|-1|-1|3
2021-04-08 20:15:00.918 +0100|19850.34078204167|-1.14874267578125|0.508392333984375|-0.3610992431640625|19850.32082104167|0.7865137321015081|0.7639537970064043|0.1304201017584675|0.04912378638982773|-2.751641035079956|-6.554686069488525|-1.583733677864075|0.360657811164856|0.09283566474914551|XArbitraryZVertical|-0.08668410733487636|0.3667409086036143|0.3772616319543348|0.8459674086421188|0.6859068870544434|-0.1300506889820099|-0.7159739136695862|0|0|0|-1|-1|3
2021-04-08 20:15:00.937 +0100|19850.36074304167|-1.49261474609375|0.8461151123046875|-0.3001556396484375|19850.34078204167|0.6838862009225966|0.7119227322107707|0.0374952826221505|-0.03957798331975937|-3.366562128067017|-7.311473369598389|-1.693877458572388|0.4299131035804749|0.2773576378822327|XArbitraryZVertical|-0.1002810059679902|0.3341499495449278|0.3203973924320284|0.8807004169545737|0.6528315544128418|-0.03748649731278419|-0.7565750479698181|0|0|0|-1|-1|3
2021-04-08 20:15:00.957 +0100|19850.38070404167|-1.8323974609375|1.128509521484375|-0.4440155029296875|19850.36074304167|0.5654378838857196|0.6389355786014128|-0.05880355610833686|-0.1001752838492393|-3.793609619140625|-7.969233989715576|-1.90384316444397|0.5904929041862488|0.4968392848968506|XArbitraryZVertical|-0.1143771546690392|0.2936768588295285|0.2558720816953799|0.9138935652885163|0.5953106284141541|0.05876967310905457|-0.801343560218811|0|0|0|-1|-1|3
2021-04-08 20:15:00.977 +0100|19850.40066404167|-1.932220458984375|1.317611694335938|-0.6761016845703125|19850.38070404167|0.4334834548595719|0.5496278280902213|-0.1583024358733418|-0.9563758969306946|-3.58028507232666|-8.466526985168457|-2.20648193359375|0.8811010718345642|0.4918220043182373|XArbitraryZVertical|-0.1324956746384107|0.24782344574307|0.1853765015550931|0.9416284104136416|0.5158383846282959|0.1576420962810516|-0.8420568704605103|0|0|0|-1|-1|3
2021-04-08 20:15:00.997 +0100|19850.42062504167|-1.918701171875|1.662612915039062|-0.698211669921875|19850.40066404167|0.2948899216606503|0.452562034440075|-0.2681234945036264|-2.117536306381226|-3.203672170639038|-8.670566558837891|-2.32284688949585|0.918931782245636|0.2654204964637756|XArbitraryZVertical|-0.161504427652984|0.2007936603756589|0.1122195337581737|0.9596900628413476|0.4216472506523132|0.2649224400520325|-0.8671964406967163|0|0|0|-1|-1|3
2021-04-08 20:15:01.017 +0100|19850.44058604167|-1.897064208984375|1.902999877929688|-0.7157745361328125|19850.42062504167|0.1447745700744036|0.3435321278773872|-0.3795222992368231|-2.487931251525879|-2.979856491088867|-8.762387275695801|-2.250943422317505|1.126853942871094|0.1765572428703308|XArbitraryZVertical|-0.1975018394067106|0.1539735955702214|0.03782488593451604|0.9673957261098944|0.312847763299942|0.3704768121242523|-0.8745703101158142|0|0|0|-1|-1|3
2021-04-08 20:15:01.037 +0100|19850.46054704167|-1.937896728515625|2.058609008789062|-0.82733154296875|19850.44058604167|-0.02407740658536861|0.2131085326744531|-0.4723982665418148|-2.096936225891113|-3.058573246002197|-8.580172538757324|-2.096081733703613|1.344568729400635|0.1594592332839966|XArbitraryZVertical|-0.2314201437971723|0.1061934169557377|-0.03652346410048476|0.9663508306875694|0.188335657119751|0.4550231993198395|-0.8703353404998779|0|0|0|-1|-1|3
2021-04-08 20:15:01.079 +0100|19850.48050804167|-1.779800415039062|2.077545166015625|-0.9315185546875|19850.46054704167|-0.2086842450102888|0.06112181745850714|-0.5294574493934282|-1.34786581993103|-3.167227745056152|-8.215620040893555|-1.962587356567383|1.496904015541077|0.1131026744842529|XArbitraryZVertical|-0.2570312505767391|0.05656988944107082|-0.1084290766278536|0.9586334491697586|0.05272025242447853|0.5050651431083679|-0.861469566822052|0|0|0|-1|-1|3
2021-04-08 20:15:01.081 +0100|19850.50046904167|-1.561538696289062|1.871231079101562|-1.004562377929688|19850.48050804167|-0.3952646773265888|-0.09587057686951665|-0.5498527918076942|-1.108069896697998|-2.987740516662598|-7.80424976348877|-1.816534161567688|1.552512168884277|-0.02620643377304077|XArbitraryZVertical|-0.2749408896914886|0.008022925706544306|-0.1760023187532745|0.945180649924545|-0.08161424100399017|0.5225617289543152|-0.8486862778663635|0|0|0|-1|-1|3
2021-04-08 20:15:01.097 +0100|19850.52043004167|-1.554153442382812|1.843048095703125|-0.9703369140625|19850.50046904167|-0.5765468658419659|-0.2514788655948595|-0.5482081721951582|-1.441236972808838|-3.127110004425049|-7.464193344116211|-1.444260358810425|1.464589953422546|-0.1741020083427429|XArbitraryZVertical|-0.291788513112664|-0.03939763468555602|-0.2389779164254674|0.9253091169721597|-0.2123720049858093|0.5211588144302368|-0.8266145586967468|0|0|0|-1|-1|3
2021-04-08 20:15:01.118 +0100|19850.54039104167|-1.6407470703125|1.9669189453125|-0.9212646484375|19850.52043004167|-0.7486161379418981|-0.4037035489026455|-0.5310562690671001|-1.60954475402832|-3.262903213500977|-7.094743251800537|-1.200873613357544|1.308482050895691|-0.2067680358886719|XArbitraryZVertical|-0.3100239246065253|-0.08606302293246008|-0.296683557128699|0.8991425157127402|-0.3387238383293152|0.5064443945884705|-0.7929566502571106|0|0|0|-1|-1|3
2021-04-08 20:15:01.137 +0100|19850.56035204167|-1.679702758789062|1.921218872070312|-0.865509033203125|19850.54039104167|-0.9078395337200877|-0.5474925195499779|-0.4960532851089059|-1.665406584739685|-3.23854923248291|-6.909885406494141|-1.14673376083374|1.440240621566772|-0.1950191855430603|XArbitraryZVertical|-0.3273309193387763|-0.1318913987184552|-0.3496000475651003|0.8678934535334998|-0.4578051865100861|0.4759582579135895|-0.7509182691574097|0|0|0|-1|-1|3
2021-04-08 20:15:01.157 +0100|19850.58031304167|-1.735992431640625|1.86688232421875|-0.8512420654296875|19850.56035204167|-1.057786454385238|-0.6794870136399788|-0.446054426835027|-1.991533160209656|-3.140270471572876|-6.921674251556396|-1.088624000549316|1.531511783599854|-0.2134230732917786|XArbitraryZVertical|-0.344030019872431|-0.1753619418010143|-0.4003165201401248|0.8310465792525956|-0.5669096708297729|0.4314093887805939|-0.7017830610275269|0|0|0|-1|-1|3
2021-04-08 20:15:01.177 +0100|19850.60027304167|-1.837921142578125|1.7166748046875|-0.9396209716796875|19850.58031304167|-1.199924773962604|-0.7959911837732119|-0.3839169942537645|-2.161266088485718|-2.852718353271484|-6.87623929977417|-1.046658039093018|1.497957468032837|-0.1530449986457825|XArbitraryZVertical|-0.3599636056468513|-0.2147108661311189|-0.4498931035909725|0.7886200933081147|-0.6625409126281738|0.3745552003383636|-0.6486508846282959|0|0|0|-1|-1|3
2021-04-08 20:15:01.197 +0100|19850.62023404167|-2.000778198242188|1.681167602539062|-1.066452026367188|19850.60027304167|-1.332949864663938|-0.8957857771710256|-0.3123943848821752|-2.505002498626709|-2.496494293212891|-6.737006664276123|-1.030874490737915|1.512089252471924|-0.2728924751281738|XArbitraryZVertical|-0.3746834873821939|-0.2495637563119983|-0.4975026173720782|0.7414995263335514|-0.7429148554801941|0.3073379993438721|-0.5946604609489441|0|0|0|-1|-1|3
2021-04-08 20:15:01.217 +0100|19850.64019504167|-2.07305908203125|1.66845703125|-1.043838500976562|19850.62023404167|-1.459966173161746|-0.9746663768127998|-0.2394370574539305|-3.011468172073364|-1.889145016670227|-6.368680953979492|-1.094470262527466|1.448161840438843|-0.4738743901252747|XArbitraryZVertical|-0.3886734613081423|-0.2760785958691375|-0.5433313022868074|0.6910171658815497|-0.803907036781311|0.2371557801961899|-0.5454270839691162|0|0|0|-1|-1|3
2021-04-08 20:15:01.237 +0100|19850.66015604167|-1.936050415039062|1.519989013671875|-1.001754760742188|19850.64019504167|-1.580578422721711|-1.026723185471381|-0.1715514618867809|-3.263839721679688|-0.8665755391120911|-5.727728366851807|-1.234238386154175|1.515918493270874|-0.545544445514679|XArbitraryZVertical|-0.4001882732794521|-0.2912658211728756|-0.5870847657626312|0.6405818574294877|-0.843048095703125|0.1707112491130829|-0.5100271105766296|0|0|0|-1|-1|3
2021-04-08 20:15:01.257 +0100|19850.68011704167|-1.781524658203125|1.4825439453125|-0.926177978515625|19850.66015604167|-1.693559019757884|-1.05207700787094|-0.1115082501059565|-3.324147939682007|-0.1289787590503693|-5.072396278381348|-1.140555739402771|1.484959244728088|-0.5344704985618591|XArbitraryZVertical|-0.4074946348689655|-0.2959787889038522|-0.6283272742012732|0.5929162739260616|-0.863061249256134|0.111277312040329|-0.4926893711090088|0|0|0|-1|-1|3
2021-04-08 20:15:01.277 +0100|19850.70007804167|-1.448486328125|1.283096313476562|-0.96343994140625|19850.68011704167|-1.798410589850565|-1.053850810202824|-0.06249640746323386|-3.366770505905151|0.915009617805481|-4.382942199707031|-1.013788819313049|1.467740654945374|-0.4209520816802979|XArbitraryZVertical|-0.4102807580559303|-0.2916137322206067|-0.6665406479911382|0.5498680300441569|-0.8676357269287109|0.06245573237538338|-0.4932622611522675|0|0|0|-1|-1|3
2021-04-08 20:15:01.297 +0100|19850.72003904167|-1.201904296875|1.200698852539062|-0.93408203125|19850.70007804167|-1.898033046592543|-1.031720211918663|-0.02676771898573288|-3.519303560256958|1.688722014427185|-3.71733021736145|-0.7460063695907593|1.331602573394775|-0.445702075958252|XArbitraryZVertical|-0.4077070281950892|-0.2778402770046912|-0.7031580698933654|0.5120046497887726|-0.8578760027885437|0.02676452323794365|-0.5131595134735107|0|0|0|-1|-1|3
2021-04-08 20:15:01.317 +0100|19850.74000004167|-0.8595123291015625|1.200698852539062|-1.057723999023438|19850.72003904167|-1.997232463493647|-0.9912625503047533|-0.007747050507018033|-3.911497116088867|2.571485280990601|-3.171629905700684|-0.4935382008552551|1.229938268661499|-0.4117324352264404|XArbitraryZVertical|-0.401678737092877|-0.2546477011386211|-0.7385542436288552|0.47785608021719|-0.8366929888725281|0.00774697307497263|-0.547617495059967|0|0|0|-1|-1|3
2021-04-08 20:15:01.337 +0100|19850.75996104167|-0.4791412353515625|1.239700317382812|-1.166030883789062|19850.74000004167|-2.097401971666127|-0.9303222822923559|-0.006296689158299998|-4.266414642333984|3.543787479400635|-2.702101945877075|-0.2387920618057251|1.190708637237549|-0.3781741857528687|XArbitraryZVertical|-0.3902082927246449|-0.2212590797434578|-0.7739725314402579|0.4469325154784111|-0.8017967343330383|0.00629664771258831|-0.5975638031959534|0|0|0|-1|-1|3
2021-04-08 20:15:01.357 +0100|19850.77992104167|-0.147064208984375|1.376113891601562|-1.33831787109375|19850.75996104167|-2.197336528254029|-0.8524449184770932|-0.02259098392519301|-4.51263427734375|4.409499168395996|-2.290273666381836|0.08352506160736084|1.181511521339417|-0.4562962651252747|XArbitraryZVertical|-0.3728593064603282|-0.178851088979692|-0.8087484198220838|0.4182276373433091|-0.7526996731758118|0.02258906327188015|-0.6579764485359192|0|0|0|-1|-1|3
2021-04-08 20:15:01.377 +0100|19850.79988204167|0.110595703125|1.432891845703125|-1.299453735351562|19850.77992104167|-2.293330038067719|-0.7613496668870167|-0.05783506870707344|-4.817401885986328|5.05399751663208|-1.762960195541382|0.3715760707855225|1.267559289932251|-0.5470646619796753|XArbitraryZVertical|-0.3495320716080414|-0.1283733176587441|-0.8413788586399354|0.3917008556352698|-0.6887456774711609|0.05780283361673355|-0.7226952314376831|0|0|0|-1|-1|3
2021-04-08 20:15:01.396 +0100|19850.81984304167|0.2237701416015625|1.546157836914062|-0.962249755859375|19850.79988204167|-2.379546207333338|-0.6623680939098321|-0.1140440696132035|-5.156163692474365|5.612163066864014|-1.164521813392639|0.606107771396637|1.296785354614258|-0.5730141401290894|XArbitraryZVertical|-0.3213947938658082|-0.07069290844143165|-0.8695217841773968|0.368293251978072|-0.6109910011291504|0.1137970164418221|-0.7834157943725586|0|0|0|-1|-1|3
2021-04-08 20:15:01.416 +0100|19850.83980404167|0.125701904296875|2.047653198242188|-0.60101318359375|19850.81984304167|-2.459022462289579|-0.5590492387287207|-0.1949531455072722|-6.106883525848389|5.867845058441162|-0.5382490754127502|0.716560959815979|1.266788601875305|-0.3396405577659607|XArbitraryZVertical|-0.2900615163579249|-0.003754787843530652|-0.8924638980804583|0.3454829099116672|-0.5203332901000977|0.1937205642461777|-0.8317004442214966|0|0|0|-1|-1|3
2021-04-08 20:15:01.436 +0100|19850.85976504167|-0.08099365234375|2.754013061523438|-0.3452606201171875|19850.83980404167|-2.525509845462541|-0.4591112033166069|-0.3101421723214979|-6.992471694946289|5.725281715393066|0.5650119185447693|0.6157189011573792|1.463191747665405|0.1042875647544861|XArbitraryZVertical|-0.2598319941046333|0.075157206526279|-0.9061415593220541|0.3251868438771113|-0.4220088720321655|0.3051940202713013|-0.8536774516105652|0|0|0|-1|-1|3
2021-04-08 20:15:01.456 +0100|19850.87972604167|-0.234954833984375|3.381759643554688|0.1697235107421875|19850.85976504167|-2.562536235272042|-0.3646918443643685|-0.4496806913702108|-7.13852596282959|5.019665718078613|1.832271695137024|0.3673160970211029|1.959486126899719|0.3501006960868835|XArbitraryZVertical|-0.2320124177115097|0.1596600767297134|-0.907224556218594|0.3124464378409949|-0.321204274892807|0.4346779882907867|-0.8413577675819397|0|0|0|-1|-1|3
2021-04-08 20:15:01.477 +0100|19850.89968704167|-0.5696258544921875|4.234939575195312|0.567047119140625|19850.87972604167|-2.556241353824818|-0.2695683316225556|-0.5925562693965362|-6.1360764503479|3.973225355148315|3.168048620223999|0.01861153542995453|2.472750663757324|0.6695074439048767|XArbitraryZVertical|-0.2065278998419219|0.2399310787801389|-0.8961330841893788|0.311006299663612|-0.2209128141403198|0.5584833025932312|-0.7995585799217224|0|0|0|-1|-1|3
2021-04-08 20:15:01.496 +0100|19850.91964804167|-1.214157104492188|4.897994995117188|0.5725555419921875|19850.89968704167|-2.489075887385233|-0.168541803365567|-0.7047470080100962|-3.586879014968872|2.019160509109497|4.458117961883545|-0.2316217720508575|3.141922473907471|1.090748310089111|XArbitraryZVertical|-0.1850528845731115|0.3004408411529851|-0.8765802633929186|0.3272580811496703|-0.1277840286493301|0.6478411555290222|-0.7509814500808716|0|0|0|-1|-1|3
2021-04-08 20:15:01.516 +0100|19850.93960991667|-2.638778686523438|6.21453857421875|0.865020751953125|19850.91964804167|-2.36252921027542|-0.06544955084041933|-0.761282696411015|-1.095733165740967|-0.3277373015880585|5.648779392242432|-0.7999876737594604|3.872694492340088|1.320927143096924|XArbitraryZVertical|-0.169111105715036|0.3319646773645172|-0.8537993907632559|0.3636311866184598|-0.0473484992980957|0.6898506283760071|-0.7224017977714539|0|0|0|-1|-1|3
2021-04-08 20:15:01.536 +0100|19850.95956991667|-4.208694458007812|5.919174194335938|1.552398681640625|19850.93960991667|-2.183911078555754|0.02237197760768898|-0.7586193116299635|1.743219494819641|-3.05245041847229|7.411175727844238|-1.788361668586731|4.87631893157959|1.365664720535278|XArbitraryZVertical|-0.1613737118742256|0.3334007881972085|-0.8263012234838761|0.4242979111859537|0.01623592525720596|0.6879200339317322|-0.7256048917770386|0|0|0|-1|-1|3
2021-04-08 20:15:01.561 +0100|19850.97953091667|-3.91064453125|4.0308837890625|0.1260528564453125|19850.95956991667|-1.964926311472984|0.1103821119963999|-0.6946719561721489|2.624759435653687|-2.130447149276733|9.416791915893555|-3.632894515991211|5.836199760437012|2.136222362518311|XArbitraryZVertical|-0.1454746624939718|0.311517301587544|-0.7914200759460541|0.5054191373248957|0.08463047444820404|0.6401334404945374|-0.7635881900787354|0|0|0|-1|-1|3
2021-04-08 20:15:01.577 +0100|19850.99949191667|-2.507644653320312|4.399688720703125|-1.668289184570312|19850.99949191667|-1.309536481369152|0.479085285891741|-0.7085049713327278|-10.84142398834229|-2.741782903671265|14.04651641845703|-3.510079383850098|3.076305627822876|-0.2026638984680176|XArbitraryZVertical|-0.1317795626970406|0.3817204334431186|-0.6201344583501098|0.6725750114136397|0.3500291407108307|0.650699257850647|-0.6738473176956177|0|0|0|-1|-1|3
2021-04-08 20:15:01.597 +0100|19851.01945291667|-3.268951416015625|7.84124755859375|-2.6531982421875||||||||||||||||||||||||3
2021-04-08 20:15:01.616 +0100|19851.03941391667|-5.501373291015625|7.716262817382812|-3.642074584960938|19851.01945291667|-0.8127238589668848|0.713895767103395|-0.7298641566545883|-11.11600112915039|-6.589039325714111|15.29309368133545|-2.95982027053833|5.395869255065918|-1.621225953102112|XArbitraryZVertical|-0.1781406805577184|0.4320000181163384|-0.4605132704353651|0.7546982493938681|0.4879870116710663|0.6667684316635132|-0.5632837414741516|0|0|0|-1|-1|3
2021-04-08 20:15:01.636 +0100|19851.05937491667|-7.340927124023438|7.602615356445312|-5.075271606445312|19851.03941391667|-0.3424771521475995|0.8765983254932591|-0.6483231388194616|-8.649407386779785|-7.274059295654297|17.31235504150391|-5.299177646636963|7.925920009613037|-2.946706771850586|XArbitraryZVertical|-0.2156359259299347|0.4455579598079017|-0.2794599032350431|0.8227280850712513|0.6126229166984558|0.6038506627082825|-0.5099585056304932|0|0|0|-1|-1|3
2021-04-08 20:15:01.656 +0100|19851.07933591667|-7.2984619140625|5.90557861328125|-3.823287963867188|19851.05937491667|0.03709357443103082|0.9351625054040347|-0.4624356765095988|-6.542650699615479|-6.761935234069824|17.82205009460449|-7.216973304748535|9.254494667053223|-4.059183597564697|XArbitraryZVertical|-0.2126664418859363|0.4348644256768156|-0.08715807276771251|0.8706719032955228|0.7201772928237915|0.4461292922496796|-0.5313318371772766|0|0|0|-1|-1|3
2021-04-08 20:15:01.676 +0100|19851.09929691667|-6.17724609375|4.923233032226562|-2.907852172851562|19851.07933591667|0.3838723628950641|0.9504224496714164|-0.2431381723935415|-6.948014736175537|-4.1965012550354|18.83565711975098|-8.491908073425293|6.537617683410645|-3.879805326461792|XArbitraryZVertical|-0.1924860291727281|0.4252397123463445|0.1139057741364117|0.8770096086646262|0.7897291779518127|0.2407496720552444|-0.5642406344413757|0|0|0|-1|-1|3
2021-04-08 20:15:01.696 +0100|19851.11925791667|-6.774810791015625|3.410171508789062|-2.316177368164062|19851.09929691667|0.7109501153940351|0.906512084648143|-0.01631540906676156|-5.208172798156738|-4.990810394287109|18.37416458129883|-7.363471031188965|5.137800216674805|-2.803004264831543|XArbitraryZVertical|-0.1592734729256091|0.407952336132906|0.3095339542017565|0.8440353555295984|0.7872534990310669|0.01631468534469604|-0.6164137125015259|0|0|0|-1|-1|3
2021-04-08 20:15:01.716 +0100|19851.13921791667|-6.444717407226562|0.9553070068359375|-1.329483032226562|19851.11925791667|0.990635931539992|0.7767780876234179|0.1967779538549306|-1.771047472953796|-4.778601169586182|15.52467250823975|-7.095019340515137|4.560059070587158|-1.972126483917236|XArbitraryZVertical|-0.09914101638430838|0.3747862528318153|0.4705117122536193|0.7926696919210304|0.6874574422836304|-0.1955104917287827|-0.6994126439094543|0|0|0|-1|-1|3
2021-04-08 20:15:01.736 +0100|19851.15917891667|-5.13397216796875|-0.89727783203125|-0.37725830078125|19851.13921791667|1.207449122238011|0.6470311094148976|0.3667167815736885|0.908513069152832|-2.138257265090942|11.36179256439209|-7.425454139709473|2.474916696548462|-1.084565401077271|XArbitraryZVertical|-0.03513692011532082|0.3554608963387579|0.5769561764248401|0.7345303024026791|0.5627385377883911|-0.3585524559020996|-0.7448258996009827|0|0|0|-1|-1|3
2021-04-08 20:15:01.756 +0100|19851.17913991667|-4.262237548828125|-1.969192504882812|0.1294708251953125|19851.15917891667|1.35792979691101|0.5573577309544765|0.4993186241470425|2.202704668045044|-0.6146917343139648|7.46654748916626|-6.135874271392822|0.3720165491104126|-0.150205671787262|XArbitraryZVertical|0.0174658037313602|0.356614202179988|0.6379343752979685|0.6823203666460994|0.4643661975860596|-0.4788274765014648|-0.7450425028800964|0|0|0|-1|-1|3
2021-04-08 20:15:01.776 +0100|19851.19910091667|-3.337966918945312|-2.155914306640625|0.26177978515625|19851.17913991667|1.443602599600263|0.5192664204301904|0.5994973567988726|2.701710939407349|1.097068428993225|4.155208110809326|-5.196419715881348|-0.9145317077636719|0.6720657348632812|XArbitraryZVertical|0.05214869736286269|0.3726740873541775|0.6670196151152904|0.6430237332775505|0.409708172082901|-0.5642275810241699|-0.7167890667915344|0|0|0|-1|-1|3
2021-04-08 20:15:01.796 +0100|19851.21906191667|-2.589340209960938|-2.433914184570312|0.0806121826171875|19851.19910091667|1.467351123031125|0.5326391968552919|0.6800918179306071|3.249026298522949|1.719436049461365|1.562416911125183|-4.070914268493652|-1.487681865692139|0.8807739615440369|XArbitraryZVertical|0.0728488693081082|0.399737600942904|0.6742029510194067|0.6167280080043858|0.3948289155960083|-0.6288644075393677|-0.6698057651519775|0|0|0|-1|-1|3
