loggingTime(txt)|accelerometerTimestamp_sinceReboot(s)|accelerometerAccelerationX(G)|accelerometerAccelerationY(G)|accelerometerAccelerationZ(G)|motionTimestamp_sinceReboot(s)|motionYaw(rad)|motionRoll(rad)|motionPitch(rad)|motionRotationRateX(rad/s)|motionRotationRateY(rad/s)|motionRotationRateZ(rad/s)|motionUserAccelerationX(G)|motionUserAccelerationY(G)|motionUserAccelerationZ(G)|motionAttitudeReferenceFrame(txt)|motionQuaternionX(R)|motionQuaternionY(R)|motionQuaternionZ(R)|motionQuaternionW(R)|motionGravityX(G)|motionGravityY(G)|motionGravityZ(G)|motionMagneticFieldX(µT)|motionMagneticFieldY(µT)|motionMagneticFieldZ(µT)|motionHeading(°)|motionMagneticFieldCalibrationAccuracy(Z)|label
2021-04-22 21:18:18.764 +0100|139031.7767775|0.22100830078125|-0.0645904541015625|-0.9990234375|139031.7717875|-0.1568082332285313|0.1410003058502933|0.03571956179967681|-0.06152719631791115|-0.03050432354211807|-0.01161080971360207|-0.07838709652423859|0.04271660372614861|0.008960247039794922|XArbitraryZVertical|0.02327612608690106|0.06881886414057145|-0.07686263825911739|0.9943915354102761|0.1404439210891724|-0.03571196645498276|-0.989444375038147|0|0|0|-1|-1|3
2021-04-22 21:18:18.774 +0100|139031.7967375|0.1470184326171875|-0.0058135986328125|-0.96075439453125|139031.7917475|-0.157050622917991|0.1414908584221276|0.03378290264727979|-0.07773563265800476|0.1046627163887024|-0.04232193902134895|0.001104637980461121|-0.009496595710515976|0.02670383453369141|XArbitraryZVertical|0.02234065857189188|0.06913688896746054|-0.0770469886909583|0.9943765778406548|0.1409387737512589|-0.03377647697925568|-0.989441990852356|0|0|0|-1|-1|3
2021-04-22 21:18:18.775 +0100|139031.8166975|0.1510162353515625|-0.0106201171875|-0.9616546630859375|139031.8117075|-0.1576885096377228|0.1422336131014075|0.0333784454607358|-0.008227108046412468|0.04743772000074387|-0.03186477348208427|0.03248758614063263|0.02620147168636322|0.01687717437744141|XArbitraryZVertical|0.0221903936562319|0.06951515938184998|-0.07737041211823802|0.9943284831619135|0.1416755616664886|-0.03337224945425987|-0.989350438117981|0|0|0|-1|-1|3
2021-04-22 21:18:18.789 +0100|139031.8366585|0.1695709228515625|-0.01446533203125|-0.9738922119140625|139031.8316685|-0.1585024342293994|0.1438355815395571|0.03388666021850821|0.01522736717015505|0.05223684012889862|-0.04063065350055695|0.005697771906852722|0.02646525949239731|0.0283660888671875|XArbitraryZVertical|0.02253356394981189|0.07028214357329259|-0.07773869635645353|0.9942381896022875|0.1432578414678574|-0.03388017416000366|-0.9891053438186646|0|0|0|-1|-1|3
2021-04-22 21:18:18.808 +0100|139031.8566185|0.1703643798828125|-0.0276031494140625|-0.97784423828125|139031.8516285|-0.1594182008631814|0.143136611576566|0.03374887164256356|0.01017258875072002|0.02617269568145275|-0.04804578423500061|0.02616389095783234|0.01042788848280907|0.01466137170791626|XArbitraryZVertical|0.0224699298794085|0.06992990845101277|-0.07820681641896826|0.9942277676898228|0.1425671130418777|-0.03374246507883072|-0.9892098307609558|0|0|0|-1|-1|3
2021-04-22 21:18:18.828 +0100|139031.8765785|0.1770782470703125|-0.03826904296875|-0.9815826416015625|139031.8715885|-0.1603658341079487|0.1446156199488281|0.03408397668467033|-0.006840582937002182|-0.001640770584344864|-0.03552280366420746|0.02796801924705505|0.00461350753903389|0.009402751922607422|XArbitraryZVertical|0.02272777535727542|0.070640855140659|-0.07864893592701269|0.994136760242163|0.14402836561203|-0.03407737612724304|-0.988986611366272|0|0|0|-1|-1|3
2021-04-22 21:18:18.848 +0100|139031.8965385|0.176788330078125|-0.0285491943359375|-0.980194091796875|139031.8915485|-0.1608307892568157|0.1444310635186352|0.03313587569407436|-0.02771592140197754|-0.02179024741053581|-0.0158427506685257|0.03330343961715698|-0.002452835440635681|0.007294118404388428|XArbitraryZVertical|0.02226574740115038|0.07058238884190875|-0.07891688140744463|0.9941300298479653|0.1438504308462143|-0.03312981128692627|-0.989044725894928|0|0|0|-1|-1|3
2021-04-22 21:18:18.868 +0100|139031.9164995|0.1670074462890625|-0.0052490234375|-0.9704437255859375|139031.9115095|-0.1608711807843573|0.1439281487645635|0.03203426662311142|-0.02924294397234917|-0.05383430793881416|0.004067573230713606|0.03500114381313324|0.005097880959510803|0.01141494512557983|XArbitraryZVertical|0.02169984434929357|0.07037673439791842|-0.07898274418269105|0.9941519056960292|0.1433581560850143|-0.03202878683805466|-0.9891524910926819|0|0|0|-1|-1|3
2021-04-22 21:18:18.888 +0100|139031.9364595|0.16778564453125|0.009674072265625|-0.9759521484375|139031.9314695|-0.16057520746582|0.1432202425776242|0.03135260913399813|-0.002865382703021169|-0.07151604443788528|0.02776367031037807|0.02205698192119598|0.0292578712105751|0.02015876770019531|XArbitraryZVertical|0.02132273560184747|0.07005569652733633|-0.0788680267654758|0.9941918979320045|0.1426609754562378|-0.03134747222065926|-0.9892750978469849|0|0|0|-1|-1|3
2021-04-22 21:18:18.911 +0100|139031.9564195|0.154937744140625|-0.0102081298828125|-0.9905548095703125|139031.9514295|-0.1598505946995367|0.1422224746101187|0.0316807130859724|0.02398124523460865|-0.08260592073202133|0.05045069754123688|0.02422051131725311|0.03405663371086121|0.008495330810546875|XArbitraryZVertical|0.02142126418016515|0.06955416271511326|-0.0785066125183377|0.9942535816785464|0.1416723728179932|-0.03167541325092316|-0.9894067049026489|0|0|0|-1|-1|3
2021-04-22 21:18:18.928 +0100|139031.97637775|0.1483001708984375|-0.0331573486328125|-1.000869750976562|139031.97138775|-0.1587212422413803|0.1411876071572602|0.03240487238692295|0.00882324855774641|-0.09205226600170135|0.06813693046569824|0.01445977389812469|0.02106277644634247|-0.006533503532409668|XArbitraryZVertical|0.02170161352485463|0.06902271842590652|-0.07793030826338004|0.9943298644974605|0.1406451314687729|-0.03239919990301132|-0.9895297884941101|0|0|0|-1|-1|3
2021-04-22 21:18:18.948 +0100|139031.99633775|0.1393280029296875|-0.025482177734375|-1.002166748046875|139031.99134775|-0.1573299006262948|0.1400401709463451|0.03218379549908319|-0.03934785723686218|-0.08951901644468307|0.06458692997694016|0.006744205951690674|0.001188497990369797|-0.01338475942611694|XArbitraryZVertical|0.02149937222366333|0.06847608058338829|-0.07725882260948674|0.9944244438721358|0.1395106017589569|-0.03217823803424835|-0.9896976351737976|0|0|0|-1|-1|3
2021-04-22 21:18:18.968 +0100|139032.01629875|0.145111083984375|-0.0154266357421875|-0.9955596923828125|139032.01130875|-0.1558687356801103|0.1389943901742102|0.03069029433217543|-0.07208894193172455|-0.07985461503267288|0.0654817521572113|0.002066001296043396|0.008454278111457825|-0.01128560304641724|XArbitraryZVertical|0.02066678559409128|0.0680305573132558|-0.07659609896861307|0.9945239703281342|0.1384820342063904|-0.03068547695875168|-0.9898894429206848|0|0|0|-1|-1|3
2021-04-22 21:18:18.988 +0100|139032.03625875|0.1441650390625|-0.009002685546875|-0.9825439453125|139032.03126875|-0.1543759770822894|0.1380514025514407|0.02869141957001169|-0.07281936705112457|-0.07542391866445541|0.06667298823595047|0.005280181765556335|0.01054564118385315|-0.002536475658416748|XArbitraryZVertical|0.01958633727199222|0.0676549157130882|-0.07593336055364239|0.9946222449870854|0.1375566869974136|-0.02868748269975185|-0.9900783896446228|0|0|0|-1|-1|3
2021-04-22 21:18:19.008 +0100|139032.05621875|0.141845703125|-0.018035888671875|-0.9733734130859375|139032.05122875|-0.1528957869092449|0.137163302570182|0.02728475077343284|-0.05651885643601418|-0.04558660462498665|0.06628904491662979|0.003972113132476807|0.0147242397069931|0.01382911205291748|XArbitraryZVertical|0.0188033552109446|0.06728195461921148|-0.07525469283488775|0.9947142609938249|0.1366827189922333|-0.02728136628866196|-0.990239143371582|0|0|0|-1|-1|3
2021-04-22 21:18:19.028 +0100|139032.07617875|0.1400299072265625|-0.010406494140625|-0.971771240234375|139032.07118875|-0.1515188133572535|0.1364653542716418|0.02649737357755733|-0.03773989528417587|-0.03485965728759766|0.06609153002500534|0.005972668528556824|0.009069595485925674|0.02114742994308472|XArbitraryZVertical|0.01833941875906486|0.06697781323787286|-0.07460352541909063|0.9947925686338704|0.1359944343566895|-0.02649427391588688|-0.9903552532196045|0|0|0|-1|-1|3
2021-04-22 21:18:19.048 +0100|139032.09613975|0.1459808349609375|-0.02099609375|-0.968994140625|139032.09114975|-0.150265670105401|0.1358289349680117|0.02569432024157848|-0.06126848980784416|-0.04470685496926308|0.04989693686366081|0.006584882736206055|0.008983979001641273|0.02020168304443359|XArbitraryZVertical|0.01787449828259315|0.06670314630924377|-0.07401358703595796|0.9948634864863636|0.1353669613599777|-0.02569149248301983|-0.9904623627662659|0|0|0|-1|-1|3
2021-04-22 21:18:19.068 +0100|139032.11609975|0.13751220703125|-0.016815185546875|-0.9716339111328125|139032.11110975|-0.1493722001830568|0.1350308632864676|0.02429979549942577|-0.06900395452976227|-0.04530574381351471|0.02688447386026382|0.005676969885826111|0.01065690629184246|0.02035915851593018|XArbitraryZVertical|0.01712170350499579|0.06636661155813754|-0.07362380868654476|0.9949281495566911|0.1345811486244202|-0.02429740503430367|-0.9906046390533447|0|0|0|-1|-1|3
2021-04-22 21:18:19.088 +0100|139032.13605975|0.1168212890625|-0.01593017578125|-0.962310791015625|139032.13106975|-0.1488522297420099|0.1339796499903008|0.02280994083916079|-0.05683355778455734|-0.06858571618795395|0.006776097230613232|0.003707706928253174|0.004849227145314217|0.01716268062591553|XArbitraryZVertical|0.01632477956197875|0.06590394497820377|-0.07342448960480094|0.994987094198296|0.1335444301366806|-0.02280796319246292|-0.9907803535461426|0|0|0|-1|-1|3
2021-04-22 21:18:19.108 +0100|139032.15601975|0.0966796875|-0.022705078125|-0.9450225830078125|139032.15102975|-0.148771546391479|0.1328477439700398|0.02171794051102191|-0.04080627486109734|-0.06515263020992279|-0.01572219841182232|-0.01870299875736237|0.009662650525569916|0.03201627731323242|XArbitraryZVertical|0.01573736343630169|0.06538237060098839|-0.07343017347708078|0.9950304264603081|0.1324260979890823|-0.02171623334288597|-0.9909549355506897|0|0|0|-1|-1|3
2021-04-22 21:18:19.128 +0100|139032.17598075|0.0794525146484375|-0.039215087890625|-0.926361083984375|139032.17098975|-0.1491799741525754|0.1319026369530231|0.02061338183600765|-0.06003205105662346|-0.06059782952070236|-0.03787561506032944|-0.037819504737854|-0.006471568718552589|0.05091720819473267|XArbitraryZVertical|0.01516643007234039|0.0649503971214896|-0.07367753235907136|0.9950493255112559|0.131492555141449|-0.02061192132532597|-0.9911028742790222|0|0|0|-1|-1|3
2021-04-22 21:18:19.148 +0100|139032.19594075|0.0561065673828125|-0.048828125|-0.9210052490234375|139032.19095075|-0.1501089210145706|0.1313288313767154|0.01863846552593936|-0.1314242333173752|-0.02972891740500927|-0.08163206279277802|-0.06104430556297302|-0.0202716663479805|0.06752568483352661|XArbitraryZVertical|0.01419286233945981|0.06473238153591696|-0.07420938502098341|0.995038427592832|0.1309289038181305|-0.01863738708198071|-0.9912165403366089|0|0|0|-1|-1|3
2021-04-22 21:18:19.168 +0100|139032.21590075|0.0279693603515625|-0.0592193603515625|-0.9002685546875|139032.21091075|-0.1518221579459868|0.1309432000000222|0.01450069116883792|-0.2683298587799072|-0.01552782393991947|-0.1493467539548874|-0.07777611911296844|-0.03792815655469894|0.07278627157211304|XArbitraryZVertical|0.01217548178764527|0.0646860293449915|-0.07520073094874941|0.9949937422504438|0.1305555999279022|-0.01450018305331469|-0.9913349747657776|0|0|0|-1|-1|3
2021-04-22 21:18:19.188 +0100|139032.23586075|0.0121307373046875|-0.0663604736328125|-0.876678466796875|139032.23087075|-0.1548153336773747|0.1307982585338933|0.0070129356018026|-0.4486748278141022|0.01264666207134724|-0.2509002685546875|-0.1078706085681915|-0.05273967981338501|0.09623098373413086|XArbitraryZVertical|0.008542190476249762|0.0648858426464743|-0.07693612350073312|0.9948858300235255|0.1304224133491516|-0.007012878078967333|-0.9914337396621704|0|0|0|-1|-1|3
2021-04-22 21:18:19.208 +0100|139032.25582075|0.005889892578125|-0.0743408203125|-0.8588409423828125|139032.25083075|-0.1596030518007036|0.1311659528592603|-0.004382882670317324|-0.6347604990005493|0.04115553572773933|-0.3795828223228455|-0.1230228692293167|-0.07470977306365967|0.1230227947235107|XArbitraryZVertical|0.003044539784497356|0.06550157057251972|-0.07968844885275654|0.9946607538973896|0.1307889074087143|0.004382868763059378|-0.9914005398750305|0|0|0|-1|-1|3
2021-04-22 21:18:19.228 +0100|139032.27578175|-0.0071258544921875|-0.0739288330078125|-0.8439788818359375|139032.27079175|-0.1669742347414619|0.1321487264464629|-0.02034621335106188|-0.8508829474449158|0.07924965769052505|-0.5695125460624695|-0.1320888102054596|-0.1022836565971375|0.1385977864265442|XArbitraryZVertical|-0.004609719128661832|0.06663938554152936|-0.08387322765670142|0.9942350752687819|0.131737157702446|0.0203448086977005|-0.991075873374939|0|0|0|-1|-1|3
2021-04-22 21:18:19.248 +0100|139032.29574175|-0.00091552734375|-0.0522003173828125|-0.834625244140625|139032.29075175|-0.1780488898194313|0.1334426273597784|-0.04098626434389865|-1.0514976978302|0.08187787979841232|-0.8082347512245178|-0.1377424299716949|-0.1042521446943283|0.1463595032691956|XArbitraryZVertical|-0.01443879474472841|0.06821164578010287|-0.09005125243733668|0.9934936487404796|0.1329352110624313|0.04097478836774826|-0.9902774095535278|0|0|0|-1|-1|3
2021-04-22 21:18:19.268 +0100|139032.31570175|0.0079345703125|-0.0087890625|-0.834320068359375|139032.31071175|-0.1931905852287001|0.1342278117778982|-0.06668542049527605|-1.302534222602844|0.07148995250463486|-1.045991897583008|-0.1303087770938873|-0.105011023581028|0.1479056477546692|XArbitraryZVertical|-0.02664206833761583|0.06992170249934912|-0.09839976703641831|0.9923300236498281|0.1335276663303375|0.06663600355386734|-0.9888023138046265|0|0|0|-1|-1|3
2021-04-22 21:18:19.287 +0100|139032.33566175|0.0346221923828125|0.04669189453125|-0.85406494140625|139032.33067175|-0.2129853073102702|0.1337852833036204|-0.09822410888833792|-1.55520498752594|0.0413721576333046|-1.319612503051758|-0.1252980530261993|-0.09481529146432877|0.1495866179466248|XArbitraryZVertical|-0.04160878305364396|0.07159038398670399|-0.1091887616187931|0.9905662254864405|0.1327436119318008|0.09806624054908752|-0.9862870573997498|0|0|0|-1|-1|3
2021-04-22 21:18:19.307 +0100|139032.35562175|0.062347412109375|0.0662994384765625|-0.8436737060546875|139032.35063175|-0.2375001324914842|0.1310580815080465|-0.13554162614734|-1.846243381500244|-0.02169895358383656|-1.586820840835571|-0.08964470028877258|-0.08471113443374634|0.1316536664962769|XArbitraryZVertical|-0.05935777478058828|0.07287725055781739|-0.1223486658886069|0.9880265979031601|0.1294846385717392|0.135126993060112|-0.9823310971260071|0|0|0|-1|-1|3
2021-04-22 21:18:19.327 +0100|139032.37558275|0.0648040771484375|0.132080078125|-0.8170623779296875|139032.37059275|-0.2663102065900422|0.1249688316366854|-0.1789254582494612|-2.07789134979248|-0.111869752407074|-1.79783022403717|-0.04890899360179901|-0.09975495934486389|0.1368840336799622|XArbitraryZVertical|-0.08012274756230775|0.07348175639772533|-0.1375025362590905|0.9845171202998007|0.1226539313793182|0.177972286939621|-0.9763615727424622|0|0|0|-1|-1|3
2021-04-22 21:18:19.347 +0100|139032.39554275|0.0761260986328125|0.254180908203125|-0.8296356201171875|139032.39055275|-0.2988491719645071|0.116291810360134|-0.2255495481361092|-2.134783506393433|-0.1049969866871834|-1.91754686832428|-0.04657874256372452|-0.06737600266933441|0.1567937135696411|XArbitraryZVertical|-0.1024975055694301|0.07382534122320301|-0.1541404193732689|0.9799413433085301|0.113090991973877|0.2236420214176178|-0.9680881500244141|0|0|0|-1|-1|3
2021-04-22 21:18:19.367 +0100|139032.41550275|0.07440185546875|0.375518798828125|-0.8974151611328125|139032.41051275|-0.3338832256595169|0.1060353008190326|-0.271071800162271|-2.001728773117065|-0.06223780661821365|-1.95817768573761|-0.02602986991405487|0.01458510756492615|0.1175580620765686|XArbitraryZVertical|-0.1243306584307489|0.07419803092805569|-0.1714729070864626|0.9744915374106873|0.1019720286130905|0.2677642405033112|-0.9580730795860291|0|0|0|-1|-1|3
2021-04-22 21:18:19.387 +0100|139032.43546275|0.0627899169921875|0.4276275634765625|-0.971343994140625|139032.43047275|-0.3707714388053401|0.09436373375469453|-0.3128757023264022|-1.802394390106201|-0.03933270275592804|-1.983503699302673|-0.01794923841953278|0.08366894721984863|0.03001374006271362|XArbitraryZVertical|-0.1443730842713584|0.074476207335925|-0.1890944588341082|0.968428167663079|0.08964941650629044|0.3077960014343262|-0.9472194314002991|0|0|0|-1|-1|3
2021-04-22 21:18:19.429 +0100|139032.45542375|0.067962646484375|0.42913818359375|-1.021514892578125|139032.45043375|-0.4096586692146263|0.0814365494005906|-0.3502779327259951|-1.615278482437134|0.01778842881321907|-2.001025915145874|-0.01795146614313126|0.09377720952033997|-0.05031603574752808|XArbitraryZVertical|-0.1623079545938942|0.07465843108114124|-0.2070672248679553|0.9618759879463835|0.07640698552131653|0.3431588709354401|-0.9361644983291626|0|0|0|-1|-1|3
2021-04-22 21:18:19.430 +0100|139032.47538375|0.0653228759765625|0.4191131591796875|-1.031082153320312|139032.47039375|-0.4497723605460424|0.06776457048922345|-0.3841241275102801|-1.495065569877625|0.05662738159298897|-1.987357258796692|0.006785601377487183|0.05037850141525269|-0.1030157804489136|XArbitraryZVertical|-0.1785548530978014|0.0749572890847037|-0.2250729897548558|0.9549040737688905|0.0627782940864563|0.37474724650383|-0.9249991178512573|0|0|0|-1|-1|3
2021-04-22 21:18:19.447 +0100|139032.49534375|0.0617828369140625|0.4472808837890625|-1.022003173828125|139032.49035375|-0.4904148322451913|0.05356019025834886|-0.4155403549353451|-1.42552387714386|0.1036670058965683|-1.943326592445374|0.01461897045373917|0.01677215099334717|-0.112612783908844|XArbitraryZVertical|-0.1936758834960748|0.07547497026092227|-0.24280972146405|0.947542459806769|0.04897870495915413|0.4036843478679657|-0.9135863780975342|0|0|0|-1|-1|3
2021-04-22 21:18:19.467 +0100|139032.51530375|0.0493011474609375|0.48052978515625|-1.029617309570312|139032.51031375|-0.5312152846939365|0.03914486672676995|-0.4456209747328719|-1.422633290290833|0.1590356677770615|-1.918593049049377|0.02379848435521126|0.02390778064727783|-0.1210376024246216|XArbitraryZVertical|-0.2081715350029027|0.07641099904589738|-0.2601308082029939|0.9397648573977722|0.03531308472156525|0.4310182929039001|-0.901651918888092|0|0|0|-1|-1|3
2021-04-22 21:18:19.487 +0100|139032.53526475|0.0683746337890625|0.5178985595703125|-1.015151977539062|139032.53027375|-0.5733616470572345|0.02399326770856833|-0.475306919521539|-1.425235629081726|0.1845109462738037|-1.956912279129028|0.02972329407930374|0.0312502384185791|-0.1398356556892395|XArbitraryZVertical|-0.2225014185179906|0.07774900492828098|-0.2775114223846109|0.9313623611886528|0.02133162319660187|0.4576113522052765|-0.8888964056968689|0|0|0|-1|-1|3
2021-04-22 21:18:19.507 +0100|139032.55522475|0.0735321044921875|0.5525665283203125|-0.974365234375|139032.55023475|-0.6168855647256785|0.00704140686969318|-0.5043029996672485|-1.392642021179199|0.1656594425439835|-1.928126692771912|0.06756468117237091|0.03384721279144287|-0.129347026348114|XArbitraryZVertical|-0.236677534755459|0.07898636407076894|-0.2948106570222048|0.9224054210098204|0.006164781749248505|0.4831973314285278|-0.8754897713661194|0|0|0|-1|-1|3
2021-04-22 21:18:19.527 +0100|139032.57518475|0.0679473876953125|0.57177734375|-0.9392242431640625|139032.57019475|-0.6603636641692192|-0.0106910883085736|-0.5299103148844391|-1.175263047218323|0.2214225679636002|-1.852010130882263|0.07891052961349487|0.06389564275741577|-0.1051531434059143|XArbitraryZVertical|-0.2493899358177215|0.08001933757235946|-0.3115726155193838|0.9134135427860862|-0.009224656037986279|0.5054559707641602|-0.8628031015396118|0|0|0|-1|-1|3
2021-04-22 21:18:19.547 +0100|139032.59514475|0.07843017578125|0.5980377197265625|-0.913665771484375|139032.59015475|-0.7023225794780948|-0.02789018431533899|-0.5502496374752373|-0.9193015098571777|0.2074033170938492|-1.695780515670776|0.09960548579692841|0.04651260375976562|-0.07954728603363037|XArbitraryZVertical|-0.2596798363966995|0.08083999418197055|-0.3274621610316334|0.9048757170501334|-0.02377034537494183|0.5229000449180603|-0.8520625829696655|0|0|0|-1|-1|3
2021-04-22 21:18:19.567 +0100|139032.61510475|0.06549072265625|0.6168212890625|-0.8975982666015625|139032.61011475|-0.7408286905156788|-0.04402830305468939|-0.5642649445447506|-0.610386848449707|0.2211513519287109|-1.527260541915894|0.1092420518398285|0.07430577278137207|-0.05950790643692017|XArbitraryZVertical|-0.2671129199577892|0.08105027276103344|-0.3418926242175109|0.8973243809110917|-0.03719110414385796|0.5347948670387268|-0.8441630601882935|0|0|0|-1|-1|3
2021-04-22 21:18:19.587 +0100|139032.63506575|0.0726318359375|0.6103515625|-0.9174652099609375|139032.63007575|-0.7754903553418219|-0.05827557686298361|-0.5727165135543771|-0.390711635351181|0.2149563431739807|-1.352494239807129|0.1160865426063538|0.07107454538345337|-0.06086623668670654|XArbitraryZVertical|-0.2719478006237829|0.08088093512553929|-0.3549329968513143|0.890800484034529|-0.04894894361495972|0.541917085647583|-0.8390053510665894|0|0|0|-1|-1|3
2021-04-22 21:18:19.607 +0100|139032.65502575|0.07879638671875|0.605712890625|-0.933563232421875|139032.65003575|-0.8060629424345228|-0.07078114750997762|-0.5771275172292265|-0.226294219493866|0.1906839311122894|-1.180501461029053|0.1330273598432541|0.06526690721511841|-0.08955603837966919|XArbitraryZVertical|-0.2749142778808542|0.0803407589435693|-0.3664944396530246|0.8852397109433067|-0.05926744639873505|0.5456189513206482|-0.8359349966049194|0|0|0|-1|-1|3
2021-04-22 21:18:19.627 +0100|139032.67498575|0.051239013671875|0.6441650390625|-0.9311676025390625|139032.66999575|-0.832330026200313|-0.08170993003686226|-0.5784665774298321|-0.06296418607234955|0.164634495973587|-1.010459542274475|0.1431678086519241|0.06532019376754761|-0.09946644306182861|XArbitraryZVertical|-0.2764806946830922|0.0793988227658696|-0.3764857876192665|0.8806321652740886|-0.06833978742361069|0.5467406511306763|-0.83450847864151|0|0|0|-1|-1|3
2021-04-22 21:18:19.647 +0100|139032.69494575|0.0323486328125|0.6675567626953125|-0.930572509765625|139032.68995575|-0.8540048637653757|-0.09003451200909617|-0.5758277010145934|0.1777133196592331|0.178388699889183|-0.821434497833252|0.1219672113656998|0.1026268005371094|-0.09449517726898193|XArbitraryZVertical|-0.2760651635337313|0.07820283056271828|-0.3850639763112568|0.8771534456703741|-0.07541373372077942|0.5445291996002197|-0.835344672203064|0|0|0|-1|-1|3
2021-04-22 21:18:19.667 +0100|139032.71490675|-0.0235137939453125|0.678314208984375|-0.923583984375|139032.70991575|-0.8705383504963216|-0.09541812548769107|-0.5687344748027876|0.384625256061554|0.1972393691539764|-0.6389370560646057|0.09985171258449554|0.1331717371940613|-0.09111994504928589|XArbitraryZVertical|-0.2734027399659036|0.0766532253250185|-0.3921279124866697|0.8749920201812628|-0.0802757740020752|0.5385661721229553|-0.838750422000885|0|0|0|-1|-1|3
2021-04-22 21:18:19.687 +0100|139032.73486675|-0.06011962890625|0.64532470703125|-0.905181884765625|139032.72987675|-0.8826620647004725|-0.09734173089268136|-0.5586891702817721|0.4931643009185791|0.2624702453613281|-0.4797688722610474|0.04914544522762299|0.1471101641654968|-0.0780755877494812|XArbitraryZVertical|-0.2689871704337606|0.07535007473026614|-0.3979702912309457|0.8738352680004741|-0.08241070061922073|0.5300751328468323|-0.843936562538147|0|0|0|-1|-1|3
2021-04-22 21:18:19.707 +0100|139032.75482675|-0.0675201416015625|0.6084747314453125|-0.8835601806640625|139032.74983675|-0.8912273646357026|-0.09583038376024992|-0.548941875348415|0.3914088010787964|0.3360291421413422|-0.3437011241912842|0.01561501622200012|0.1086932420730591|-0.0469244122505188|XArbitraryZVertical|-0.2641605580059072|0.0750845525480793|-0.4026880999846755|0.873168862061324|-0.08162564039230347|0.5217848420143127|-0.8491629958152771|0|0|0|-1|-1|3
2021-04-22 21:18:19.727 +0100|139032.77478675|-0.0865325927734375|0.5777740478515625|-0.85467529296875|139032.76979675|-0.8972055175814369|-0.09193220869894599|-0.5425751036033654|0.1797589212656021|0.3733431696891785|-0.2343339920043945|0.009128600358963013|0.07923829555511475|-0.02363801002502441|XArbitraryZVertical|-0.2604022370407292|0.076209512233959|-0.4063085579186997|0.8725228792262524|-0.07861822843551636|0.5163429975509644|-0.8527655601501465|0|0|0|-1|-1|3
2021-04-22 21:18:19.746 +0100|139032.79474675|-0.0826263427734375|0.569671630859375|-0.8465118408203125|139032.78975675|-0.9015076235504446|-0.086317459283324|-0.5411324750743854|-0.06361816078424454|0.4018978774547577|-0.144072100520134|-0.01024496555328369|0.05738770961761475|0.004859685897827148|XArbitraryZVertical|-0.2584693686893991|0.07890620436435267|-0.4090244327240241|0.8715885112153551|-0.07389309257268906|0.5151069760322571|-0.8539347648620605|0|0|0|-1|-1|3
2021-04-22 21:18:19.766 +0100|139032.81470775|-0.090087890625|0.56646728515625|-0.838104248046875|139032.80971775|-0.9044701886140634|-0.07951499695836395|-0.5442704062103692|-0.264854222536087|0.4312069416046143|-0.09016785025596619|-0.02157057076692581|0.04972624778747559|0.009128749370574951|XArbitraryZVertical|-0.2583063667817497|0.08292596681279409|-0.410953741674536|0.8703552102393204|-0.06795383989810944|0.5177940726280212|-0.8528022170066833|0|0|0|-1|-1|3
2021-04-22 21:18:19.786 +0100|139032.83466775|-0.079864501953125|0.56585693359375|-0.817626953125|139032.82967775|-0.9068260393753463|-0.07194121930960601|-0.5506463302506225|-0.3783501386642456|0.4463736116886139|-0.06423904746770859|-0.024836715310812|0.04350394010543823|0.01404494047164917|XArbitraryZVertical|-0.2593903124164203|0.0878950957854486|-0.4124770303194434|0.8688233414127114|-0.06125447154045105|0.5232381224632263|-0.8499822616577148|0|0|0|-1|-1|3
2021-04-22 21:18:19.807 +0100|139032.85462775|-0.0655670166015625|0.5893402099609375|-0.8061065673828125|139032.84963775|-0.9089278431462555|-0.06415526983894947|-0.5584005824503639|-0.3885366916656494|0.4356273114681244|-0.06634347885847092|-0.022211953997612|0.0431220531463623|0.03305035829544067|XArbitraryZVertical|-0.2610203923775621|0.09321429480599774|-0.4138230579989334|0.867139059915583|-0.05437300354242325|0.5298303961753845|-0.8463588953018188|0|0|0|-1|-1|3
2021-04-22 21:18:19.826 +0100|139032.87458775|-0.0560302734375|0.5955352783203125|-0.8045806884765625|139032.86959775|-0.9116014083182227|-0.05755444696421999|-0.5659324289877592|-0.2954823970794678|0.4153214991092682|-0.08228151500225067|-0.01699860394001007|0.05863046646118164|0.04093372821807861|XArbitraryZVertical|-0.2627587048249856|0.09804168629321909|-0.415287551160717|0.8653797382609483|-0.04855426028370857|0.5362030863761902|-0.8426913619041443|0|0|0|-1|-1|3
2021-04-22 21:18:19.846 +0100|139032.89454875|-0.0437469482421875|0.57012939453125|-0.8063201904296875|139032.88955875|-0.9146399113713363|-0.05195678038637129|-0.5710753011453629|-0.1886803358793259|0.3639603853225708|-0.1083155199885368|-0.009668469429016113|0.04720115661621094|0.03474986553192139|XArbitraryZVertical|-0.2636480211035394|0.1019669552794541|-0.4169593441858611|0.8638503754950674|-0.04369262605905533|0.5405370593070984|-0.8401849269866943|0|0|0|-1|-1|3
2021-04-22 21:18:19.866 +0100|139032.91450875|-0.034881591796875|0.542938232421875|-0.811309814453125|139032.90951875|-0.9181950727286419|-0.04800490986905165|-0.5741858767017815|-0.104665994644165|0.2965032756328583|-0.1237130239605904|-0.0003441423177719116|0.02099674940109253|0.03062325716018677|XArbitraryZVertical|-0.2639713406360765|0.104811096125343|-0.4187873265631697|0.8625259960983497|-0.04029111564159393|0.5431513786315918|-0.8386675119400024|0|0|0|-1|-1|3
2021-04-22 21:18:19.886 +0100|139032.93446875|-0.0475616455078125|0.529815673828125|-0.8177337646484375|139032.92947875|-0.9218888714361174|-0.04565731971250507|-0.5764509176945746|-0.08156244456768036|0.2109564393758774|-0.1346915513277054|0.002543970942497253|-0.006477415561676025|0.02638685703277588|XArbitraryZVertical|-0.2642528310943225|0.1067993895260111|-0.4205238721219599|0.8613501495033931|-0.0382659062743187|0.5450518131256104|-0.8375286459922791|0|0|0|-1|-1|3
2021-04-22 21:18:19.929 +0100|139032.95442875|-0.047027587890625|0.5273284912109375|-0.824005126953125|139032.94943875|-0.9256581388136328|-0.04458029872371767|-0.5792538828258018|-0.1109655350446701|0.1457774490118027|-0.1425759345293045|-0.01153360307216644|-0.01769059896469116|0.01710081100463867|XArbitraryZVertical|-0.2650214920998137|0.1083682208027858|-0.4220835412044518|0.8601543911927612|-0.0372956171631813|0.5473996996879578|-0.8360399007797241|0|0|0|-1|-1|3
2021-04-22 21:18:19.931 +0100|139032.974391625|-0.0551300048828125|0.5408477783203125|-0.8277130126953125|139032.969400625|-0.929449470512006|-0.04479497591403193|-0.582803309018234|-0.1437881886959076|0.07825560122728348|-0.1386416405439377|-0.01203647255897522|-0.02367883920669556|0.007135629653930664|XArbitraryZVertical|-0.2663756123552312|0.109550243980685|-0.4234231207086539|0.8589270377837139|-0.03738785162568092|0.5503666400909424|-0.8340855836868286|0|0|0|-1|-1|3
2021-04-22 21:18:19.946 +0100|139032.994351625|-0.0727386474609375|0.547576904296875|-0.8292388916015625|139032.989361625|-0.9328099878718403|-0.04552622785961798|-0.5861408718582852|-0.1437127739191055|0.05272883549332619|-0.1205313503742218|-0.02144382894039154|-0.007892429828643799|0.003391623497009277|XArbitraryZVertical|-0.2677685291958962|0.1104120405098292|-0.4245197487821525|0.8578416578536956|-0.0379139631986618|0.5531501770019531|-0.8322184085845947|0|0|0|-1|-1|3
2021-04-22 21:18:19.966 +0100|139033.014311625|-0.079498291015625|0.5555419921875|-0.8278656005859375|139033.009321625|-0.9356831740073859|-0.04600982718004492|-0.588961726632344|-0.1450277417898178|0.06146347522735596|-0.107719324529171|-0.03823365271091461|-0.007157981395721436|0.001582324504852295|XArbitraryZVertical|-0.2689129530645714|0.1112063395928626|-0.425475110823084|0.8569072538746837|-0.03824449703097343|0.5554980039596558|-0.8306379318237305|0|0|0|-1|-1|3
2021-04-22 21:18:19.986 +0100|139033.034271625|-0.071868896484375|0.5707855224609375|-0.8257598876953125|139033.029281625|-0.9382458726739482|-0.04625363074217431|-0.5916461579016798|-0.1622405201196671|0.06866732239723206|-0.0835193544626236|-0.0391988605260849|-0.0002785921096801758|0.001484155654907227|XArbitraryZVertical|-0.2699632917143579|0.1120349131899215|-0.4263370412674641|0.8560402014013989|-0.03837792202830315|0.557728111743927|-0.8291360139846802|0|0|0|-1|-1|3
2021-04-22 21:18:20.006 +0100|139033.054231625|-0.08734130859375|0.582855224609375|-0.8124847412109375|139033.049241625|-0.9402884542065628|-0.04615842962341137|-0.5942799774867122|-0.157888650894165|0.079360231757164|-0.06167957559227943|-0.03446289524435997|0.01818227767944336|0.00244373083114624|XArbitraryZVertical|-0.2709468745276685|0.1129295971380739|-0.4270237620043988|0.8552692878976114|-0.03823107481002808|0.5599123239517212|-0.8276693820953369|0|0|0|-1|-1|3
2021-04-22 21:18:20.026 +0100|139033.074192625|-0.086456298828125|0.575927734375|-0.79925537109375|139033.069202625|-0.9420141647497214|-0.0454313102964833|-0.5970641311569216|-0.1571245640516281|0.1183179095387459|-0.04390962794423103|-0.0510200560092926|0.02265256643295288|0.01864147186279297|XArbitraryZVertical|-0.2718751791037732|0.1140861775569023|-0.4276477785558531|0.8545089829116103|-0.03755830600857735|0.5622169375419617|-0.8261364698410034|0|0|0|-1|-1|3
2021-04-22 21:18:20.046 +0100|139033.094152625|-0.0712432861328125|0.532745361328125|-0.79364013671875|139033.089162625|-0.9433290756311576|-0.04412774956793457|-0.5999789615871234|-0.1756778359413147|0.1421667337417603|-0.006544236093759537|-0.04675258323550224|-0.0009195208549499512|0.02686053514480591|XArbitraryZVertical|-0.2727569069360791|0.1154626628178698|-0.4281639696996343|0.8537844387189417|-0.0364089123904705|0.564625084400177|-0.8245440721511841|0|0|0|-1|-1|3
2021-04-22 21:18:20.066 +0100|139033.114112625|-0.037322998046875|0.4974517822265625|-0.7999420166015625|139033.109122625|-0.9443264468832451|-0.04240718261281463|-0.6042908135491691|-0.2946179211139679|0.1551078855991364|-0.01117201056331396|-0.03042209148406982|-0.04341346025466919|0.02713692188262939|XArbitraryZVertical|-0.2741575911594545|0.1172812556797356|-0.428494554991098|0.8529216080354017|-0.03488663583993912|0.568178653717041|-0.8221654295921326|0|0|0|-1|-1|3
2021-04-22 21:18:20.086 +0100|139033.134072625|-0.0083465576171875|0.5055999755859375|-0.81097412109375|139033.129082625|-0.9458469319449426|-0.04136499836973337|-0.6118463159063383|-0.4680006504058838|0.096781887114048|-0.04358179494738579|0.008673179894685745|-0.08188700675964355|0.01498669385910034|XArbitraryZVertical|-0.2770422020954067|0.1195961778278875|-0.4287042126926007|0.8515616716745134|-0.03385127708315849|0.5743798017501831|-0.8178887367248535|0|0|0|-1|-1|3
2021-04-22 21:18:20.106 +0100|139033.154033625|0.018280029296875|0.5388336181640625|-0.8275299072265625|139033.149043625|-0.9490437337817483|-0.04250561506792527|-0.6228441995514474|-0.6299668550491333|0.04873137548565865|-0.1188560426235199|0.03258991241455078|-0.07149142026901245|-0.00517648458480835|XArbitraryZVertical|-0.2817388250939754|0.1219783960544975|-0.4290446867016475|0.8495088925477807|-0.03451362624764442|0.5833476185798645|-0.8114889860153198|0|0|0|-1|-1|3
2021-04-22 21:18:20.126 +0100|139033.173993625|0.027740478515625|0.598724365234375|-0.826507568359375|139033.169003625|-0.9544367424313858|-0.04630952543176472|-0.6356760311369692|-0.6491209864616394|-0.02703624963760376|-0.1928533911705017|0.06012240052223206|-0.03949177265167236|-0.02750605344772339|XArbitraryZVertical|-0.2876255065269534|0.12396620969422|-0.4297606216039453|0.8468825444457628|-0.03725059330463409|0.5937216281890869|-0.8038079142570496|0|0|0|-1|-1|3
2021-04-22 21:18:20.146 +0100|139033.193953625|0.0111083984375|0.6346282958984375|-0.809234619140625|139033.188963625|-0.9609597409869113|-0.05156462474547726|-0.6460002480246587|-0.4819956123828888|-0.03893892467021942|-0.2287920415401459|0.06161694228649139|0.007164061069488525|-0.02316552400588989|XArbitraryZVertical|-0.292678955791056|0.1249826174898311|-0.4309010271810886|0.8444186869321717|-0.04115600883960724|0.601997435092926|-0.7974367737770081|0|0|0|-1|-1|3
2021-04-22 21:18:20.166 +0100|139033.213913625|-0.0044097900390625|0.64544677734375|-0.8052978515625|139033.208923625|-0.9671736189568204|-0.05589076038627922|-0.6512807570476202|-0.2504754662513733|-0.01368987001478672|-0.229605108499527|0.05281846597790718|0.03258854150772095|-0.01359659433364868|XArbitraryZVertical|-0.2954301612796995|0.125251448204725|-0.4324363292573922|0.8426339136959663|-0.04442723467946053|0.6062055230140686|-0.7940661907196045|0|0|0|-1|-1|3
2021-04-22 21:18:20.186 +0100|139033.233874625|-0.010589599609375|0.6371917724609375|-0.8218994140625|139033.228883625|-0.9722005842310161|-0.05808040795005069|-0.6520056345207031|-0.05387315526604652|0.02313307300209999|-0.2031734883785248|0.04017303884029388|0.0398399829864502|-0.01315808296203613|XArbitraryZVertical|-0.2958918575951808|0.1252354647178993|-0.4341665235809367|0.8415840705586636|-0.04614033550024033|0.6067818403244019|-0.7935281991958618|0|0|0|-1|-1|3
2021-04-22 21:18:20.206 +0100|139033.253834625|-0.0265350341796875|0.62591552734375|-0.83587646484375|139033.248844625|-0.9759671473724989|-0.05850114967894619|-0.6505476705086651|0.01866813749074936|0.05954748764634132|-0.1825892180204391|0.0307319313287735|0.02831947803497314|-0.03210115432739258|XArbitraryZVertical|-0.295140541219494|0.1252859041215099|-0.4358156167214128|0.8409878178355955|-0.04652587696909904|0.6056222915649414|-0.7943910360336304|0|0|0|-1|-1|3
2021-04-22 21:18:20.226 +0100|139033.273794625|-0.036376953125|0.615570068359375|-0.841033935546875|139033.268804625|-0.9791245346337017|-0.05794845746432758|-0.6494548287029499|0.01713327690958977|0.07754635065793991|-0.1590512096881866|0.01952792704105377|0.01789796352386475|-0.04256951808929443|XArbitraryZVertical|-0.2943671788849483|0.1257360974944989|-0.4373195127542421|0.8404106359218538|-0.04612511396408081|0.6047523021697998|-0.7950767874717712|0|0|0|-1|-1|3
2021-04-22 21:18:20.245 +0100|139033.293754625|-0.0341644287109375|0.6026458740234375|-0.83831787109375|139033.288764625|-0.9816756769794984|-0.05667470785506411|-0.6494699330236107|-0.008868064731359482|0.1168245673179626|-0.1111055314540863|0.008398070931434631|0.007845640182495117|-0.04543495178222656|XArbitraryZVertical|-0.2939335422257031|0.1266497105960391|-0.4385770941201674|0.8397697914585378|-0.04511183500289917|0.6047643423080444|-0.7951258420944214|0|0|0|-1|-1|3
2021-04-22 21:18:20.266 +0100|139033.313714625|-0.0223388671875|0.5977630615234375|-0.831573486328125|139033.308724625|-0.9833303356720611|-0.05430746521667257|-0.6504120033170689|-0.04595356434583664|0.1521119773387909|-0.06407011300325394|0.0111234188079834|-0.005172431468963623|-0.04184079170227051|XArbitraryZVertical|-0.2936999492150804|0.1281005366826395|-0.439537516818345|0.8391291201315303|-0.04319851100444794|0.6055143475532532|-0.7946611642837524|0|0|0|-1|-1|3
2021-04-22 21:18:20.285 +0100|139033.333675625|-0.0070343017578125|0.5940399169921875|-0.812469482421875|139033.328685625|-0.984067486270626|-0.05088088142344712|-0.6517583434344076|-0.06823218613862991|0.1765362173318863|-0.02802129834890366|0.02132865786552429|-0.009768128395080566|-0.03396743535995483|XArbitraryZVertical|-0.2934581088010314|0.1299520850893785|-0.4402332936077225|0.8385639629059146|-0.04043378680944443|0.6065852642059326|-0.7939895987510681|0|0|0|-1|-1|3
2021-04-22 21:18:20.305 +0100|139033.353635625|-0.0067901611328125|0.60211181640625|-0.7999420166015625|139033.348645625|-0.9842351271869059|-0.04689855684156755|-0.652828580081047|-0.05241506174206734|0.2102890610694885|-0.005742446985095739|0.03125855326652527|-0.01244968175888062|-0.01432007551193237|XArbitraryZVertical|-0.2930146574056506|0.1318890657782059|-0.4407955536083413|0.8381211119650026|-0.03724109381437302|0.6074357628822327|-0.7934953570365906|0|0|0|-1|-1|3
2021-04-22 21:18:20.325 +0100|139033.373595625|0.0039825439453125|0.5939483642578125|-0.795135498046875|139033.368605625|-0.9843981831342441|-0.04230552360595111|-0.6532245538222338|-0.0346914567053318|0.2518064081668854|-0.01297399401664734|0.02920559048652649|-0.01154345273971558|-0.003380894660949707|XArbitraryZVertical|-0.2921552568973899|0.1339270246838819|-0.4415020856715617|0.8377260669632103|-0.03358599171042442|0.6077502965927124|-0.7934176921844482|0|0|0|-1|-1|3
2021-04-22 21:18:20.345 +0100|139033.393555625|0.001861572265625|0.5927581787109375|-0.80157470703125|139033.388565625|-0.9847497493495366|-0.03724805068437056|-0.6526651265945467|0.01978187263011932|0.2671593725681305|-0.02987601421773434|0.03852608799934387|-0.007543802261352539|-0.002912044525146484|XArbitraryZVertical|-0.2907813193044625|0.1359694339391889|-0.4424333857077334|0.8373837170547396|-0.02958554774522781|0.6073059439659119|-0.7939170598983765|0|0|0|-1|-1|3
2021-04-22 21:18:20.365 +0100|139033.413516625|0.0030975341796875|0.5860443115234375|-0.7939605712890625|139033.408526625|-0.98619454998877|-0.03217607174889166|-0.651373183100695|0.05378827452659607|0.3205432295799255|-0.1010205820202827|0.0225613284856081|-0.01408535242080688|-0.005864441394805908|XArbitraryZVertical|-0.2890211731236039|0.1380093023403545|-0.4438805667300784|0.8368932001246533|-0.02558367140591145|0.6062790155410767|-0.794840395450592|0|0|0|-1|-1|3
2021-04-22 21:18:20.385 +0100|139033.433476625|0.019317626953125|0.5634613037109375|-0.7798919677734375|139033.428486625|-0.9891708003897852|-0.02701651425076978|-0.64950315490101|0.08480321615934372|0.3436155319213867|-0.1583216041326523|0.02990412898361683|-0.02356821298599243|0.003521859645843506|XArbitraryZVertical|-0.2868883509188535|0.1401720079555788|-0.4460214020884522|0.8361290518447275|-0.02151291258633137|0.6047908067703247|-0.796093761920929|0|0|0|-1|-1|3
2021-04-22 21:18:20.422 +0100|139033.453436625|0.0195465087890625|0.5526580810546875|-0.763153076171875|139033.448446625|-0.9936273205897788|-0.02254806034134196|-0.6473337876315167|0.1110795438289642|0.3508350551128387|-0.2217877507209778|0.0396055281162262|-0.04196542501449585|0.02516829967498779|XArbitraryZVertical|-0.2846719299964429|0.1421829466596237|-0.4486974025164416|0.8351148127785949|-0.01798494160175323|0.6030617356300354|-0.7974917888641357|0|0|0|-1|-1|3
2021-04-22 21:18:20.425 +0100|139033.473396625|0.0149688720703125|0.54046630859375|-0.747650146484375|139033.468406625|-0.9996190644375764|-0.01860165889923306|-0.6449045236945614|0.1171886026859283|0.3673381209373474|-0.2831878960132599|0.03364725410938263|-0.05426228046417236|0.04436510801315308|XArbitraryZVertical|-0.2823447024033143|0.1441249396262245|-0.4519514840545152|0.8338162111171711|-0.01486479211598635|0.6011221408843994|-0.799018919467926|0|0|0|-1|-1|3
2021-04-22 21:18:20.445 +0100|139033.493357625|-0.00042724609375|0.568450927734375|-0.7579345703125|139033.488367625|-1.006815633198656|-0.01524507771227821|-0.6418499347496457|0.1771415770053864|0.376104861497879|-0.3173886835575104|0.02696479856967926|-0.05374103784561157|0.05294132232666016|XArbitraryZVertical|-0.2797929692056803|0.1458342401992501|-0.4556638388539834|0.8323573414371614|-0.01221067551523447|0.5986782312393188|-0.8008965253829956|0|0|0|-1|-1|3
2021-04-22 21:18:20.465 +0100|139033.513317625|-0.022064208984375|0.5985260009765625|-0.7738494873046875|139033.508327625|-1.015128604822664|-0.01217143571764343|-0.6371776007015092|0.2711711823940277|0.4045516848564148|-0.3728722631931305|0.0005349526181817055|-0.02244991064071655|0.0430680513381958|XArbitraryZVertical|-0.2765425135251408|0.1471901580374599|-0.4599167783057149|0.8308646269803041|-0.009782892651855946|0.5949292182922363|-0.8037185668945312|0|0|0|-1|-1|3
2021-04-22 21:18:20.485 +0100|139033.533277625|-0.028106689453125|0.6298980712890625|-0.785919189453125|139033.528287625|-1.024486997040646|-0.008893826418006415|-0.630457589593877|0.3948600888252258|0.4086814522743225|-0.4256724417209625|-0.01652930676937103|0.01493197679519653|0.03039747476577759|XArbitraryZVertical|-0.2723097379573522|0.1482715704242528|-0.4647765524225865|0.8293646528559941|-0.007183963432908058|0.589514434337616|-0.8077259063720703|0|0|0|-1|-1|3
2021-04-22 21:18:20.505 +0100|139033.553237625|-0.061492919921875|0.6118316650390625|-0.7585296630859375|139033.548247625|-1.035484532771776|-0.006791124656507525|-0.6212555660176559|0.5151870846748352|0.4099915027618408|-0.5158320665359497|-0.03534199297428131|0.05251067876815796|0.03226107358932495|XArbitraryZVertical|-0.2671953029013506|0.1484651584380452|-0.4703290809543729|0.8278618908502914|-0.00552214914932847|0.5820565819740295|-0.8131295442581177|0|0|0|-1|-1|3
2021-04-22 21:18:20.525 +0100|139033.573198625|-0.069000244140625|0.5592498779296875|-0.7421722412109375|139033.568207625|-1.048721089746167|-0.00576478760885349|-0.610532213556819|0.5551023483276367|0.408739447593689|-0.5905380845069885|-0.05901375412940979|0.02496308088302612|0.06560635566711426|XArbitraryZVertical|-0.2615420602811461|0.1480912904492526|-0.4767606643255221|0.8260533740515512|-0.004723312333226204|0.5733035802841187|-0.8193294405937195|0|0|0|-1|-1|3
2021-04-22 21:18:20.545 +0100|139033.593158625|-0.1006317138671875|0.47845458984375|-0.7662811279296875|139033.588168625|-1.063058695718469|-0.005756765487221067|-0.6008332555059968|0.437227189540863|0.41322061419487|-0.5982991456985474|-0.06875418126583099|-0.0154184103012085|0.07630085945129395|XArbitraryZVertical|-0.2564837294566934|0.1476160085776559|-0.483415742990132|0.8238537951485031|-0.004748527426272631|0.5653299689292908|-0.8248512148857117|0|0|0|-1|-1|3
2021-04-22 21:18:20.565 +0100|139033.613118625|-0.1144866943359375|0.4066009521484375|-0.7833709716796875|139033.608128625|-1.077872028024226|-0.005881872074444398|-0.5962916260022063|0.1071058437228203|0.4366191923618317|-0.6164128184318542|-0.1006488651037216|-0.1061641573905945|0.05613881349563599|XArbitraryZVertical|-0.2535527114596069|0.1483450575497193|-0.4898375759090722|0.8208312496753921|-0.004866773262619972|0.5615779161453247|-0.8274095058441162|0|0|0|-1|-1|3
2021-04-22 21:18:20.585 +0100|139033.633078625|-0.1068572998046875|0.3632965087890625|-0.7796630859375|139033.628088625|-1.093846134362664|-0.006234946459257469|-0.6001682228008864|-0.3644729852676392|0.4712786972522736|-0.6936589479446411|-0.1106547564268112|-0.1739121675491333|0.03939700126647949|XArbitraryZVertical|-0.2540285267302169|0.151185997924432|-0.4960313601133933|0.8164345135796807|-0.005145297851413488|0.5647813081741333|-0.8252245783805847|0|0|0|-1|-1|3
2021-04-22 21:18:20.605 +0100|139033.653039625|-0.08642578125|0.43304443359375|-0.7735443115234375|139033.648048625|-1.112018751616897|-0.007685647671896256|-0.6112193583077083|-0.7131688594818115|0.4015340507030487|-0.7980784773826599|-0.08818945288658142|-0.2047716379165649|0.03903275728225708|XArbitraryZVertical|-0.2574857084625794|0.1556879881841222|-0.502358777197996|0.8106159101966283|-0.006294090766459703|0.5738664865493774|-0.8189247250556946|0|0|0|-1|-1|3
2021-04-22 21:18:20.625 +0100|139033.672999625|-0.12103271484375|0.53070068359375|-0.7591552734375|139033.668009625|-1.133701703157704|-0.01266527217929817|-0.6263878674039015|-0.7662742137908936|0.3859916925430298|-0.9634334444999695|-0.08869385719299316|-0.1286569237709045|0.04023367166519165|XArbitraryZVertical|-0.263140754516077|0.1603566205387065|-0.5092002785491508|0.8035907388141927|-0.01026050094515085|0.586222231388092|-0.8100854158401489|0|0|0|-1|-1|3
2021-04-22 21:18:20.645 +0100|139033.692959625|-0.0860443115234375|0.5359344482421875|-0.75543212890625|139033.687969625|-1.159918175000183|-0.02036122425110882|-0.6393336118528542|-0.5503708124160767|0.3725661933422089|-1.113311290740967|-0.09889686107635498|-0.0580407977104187|0.04500299692153931|XArbitraryZVertical|-0.2681481776795789|0.1641125835970912|-0.5175255917787228|0.7958209552293675|-0.01633862219750881|0.5966607928276062|-0.8023272156715393|0|0|0|-1|-1|3
2021-04-22 21:18:20.665 +0100|139033.712919625|-0.06103515625|0.502410888671875|-0.754150390625|139033.707929625|-1.189156982632439|-0.03072002073284464|-0.6474529824660841|-0.3416041433811188|0.376006007194519|-1.205246686935425|-0.06121057271957397|-0.06635260581970215|0.04166162014007568|XArbitraryZVertical|-0.271636273769966|0.16610403942063|-0.5269529946853814|0.7879999927442025|-0.02449913136661053|0.6031568050384521|-0.7972463369369507|0|0|0|-1|-1|3
2021-04-22 21:18:20.685 +0100|139033.732879625|-0.0031280517578125|0.4783477783203125|-0.7827606201171875|139033.727889625|-1.219677572942725|-0.04215275971485324|-0.652536855782023|-0.2825534045696259|0.3104948699474335|-1.199428558349609|-0.007900536060333252|-0.1202045679092407|0.03616499900817871|XArbitraryZVertical|-0.274110595860402|0.1671624037852238|-0.5368630154684179|0.7801912587461477|-0.0334823913872242|0.6072040200233459|-0.793840229511261|0|0|0|-1|-1|3
2021-04-22 21:18:20.705 +0100|139033.752840625|-0.0041351318359375|0.49200439453125|-0.8267059326171875|139033.747850625|-1.24959021635447|-0.05511035274794742|-0.6579577778822221|-0.3885954618453979|0.2271915525197983|-1.147658348083496|0.0436740517616272|-0.136053740978241|0.0009331107139587402|XArbitraryZVertical|-0.2771942475805706|0.1677576434467463|-0.5461329991727897|0.7725020789057987|-0.04358359426259995|0.6115022301673889|-0.790041446685791|0|0|0|-1|-1|3
2021-04-22 21:18:20.725 +0100|139033.772800625|0.0084381103515625|0.4624481201171875|-0.8592681884765625|139033.767810625|-1.278365581741288|-0.06837067410066676|-0.6659307386655895|-0.5691742897033691|0.2248490303754807|-1.077302098274231|0.04898956418037415|-0.1222774982452393|-0.05240917205810547|XArbitraryZVertical|-0.2814378470887609|0.1689386407881963|-0.5544809608746319|0.7647243679839094|-0.0537208653986454|0.6177912950515747|-0.7845049500465393|0|0|0|-1|-1|3
2021-04-22 21:18:20.745 +0100|139033.792760625|0.0400848388671875|0.4726104736328125|-0.847412109375|139033.787770625|-1.30609884093446|-0.08083127757774761|-0.6773962218675553|-0.7223740220069885|0.2577328085899353|-1.013919115066528|0.07855493575334549|-0.173687219619751|-0.08764046430587769|XArbitraryZVertical|-0.2868320209453067|0.1714520634589283|-0.5619611450205747|0.7566579748291282|-0.06291575729846954|0.6267662644386292|-0.7766631841659546|0|0|0|-1|-1|3
2021-04-22 21:18:20.765 +0100|139033.812720625|0.0434722900390625|0.5478363037109375|-0.8478240966796875|139033.807730625|-1.332917556802925|-0.09250930024903432|-0.6886514993490936|-0.5414259433746338|0.2535612881183624|-0.9622041583061218|0.118656612932682|-0.1479327082633972|-0.0798000693321228|XArbitraryZVertical|-0.2919522276898454|0.1742491500960918|-0.5690289814559293|0.7487371284835732|-0.07132494449615479|0.6354965567588806|-0.768802285194397|0|0|0|-1|-1|3
2021-04-22 21:18:20.784 +0100|139033.832681625|0.00347900390625|0.5850982666015625|-0.81414794921875|139033.827691625|-1.358957861604785|-0.1038508155082699|-0.6941035661258798|-0.1758243292570114|0.2912148833274841|-0.9839809536933899|0.1086087822914124|-0.07705950736999512|-0.07581520080566406|XArbitraryZVertical|-0.2948982652701662|0.175475934220693|-0.5763940492404748|0.7416288190487176|-0.07967919111251831|0.6396966576576233|-0.7644864320755005|0|0|0|-1|-1|3
2021-04-22 21:18:20.804 +0100|139033.852641625|-0.0024871826171875|0.5168609619140625|-0.7896270751953125|139033.847651625|-1.384179232900063|-0.1137364500615382|-0.6917187169594368|0.1926913261413574|0.3356075584888458|-0.9632200002670288|0.08746546506881714|-0.06082034111022949|-0.04460906982421875|XArbitraryZVertical|-0.294705992512785|0.1748167679396547|-0.5845537465205569|0.7354485703027935|-0.0874055027961731|0.6378617882728577|-0.765174925327301|0|0|0|-1|-1|3
2021-04-22 21:18:20.824 +0100|139033.872601625|0.024688720703125|0.390350341796875|-0.776031494140625|139033.867611625|-1.407241489877547|-0.1213021673922848|-0.6837265126589116|0.3449641764163971|0.3658283948898315|-0.8965113759040833|0.09507134556770325|-0.1407349705696106|-0.01410269737243652|XArbitraryZVertical|-0.2921011689516061|0.1729538574396267|-0.5929277627795302|0.7302059076386935|-0.09380593150854111|0.631686270236969|-0.7695277333259583|0|0|0|-1|-1|3
2021-04-22 21:18:20.844 +0100|139033.892561625|0.0486297607421875|0.316986083984375|-0.7672576904296875|139033.887571625|-1.42809458054695|-0.1275568467419929|-0.6752446492481248|0.2610925436019897|0.3033212721347809|-0.8180273175239563|0.1334433406591415|-0.2570770978927612|-0.004351913928985596|XArbitraryZVertical|-0.289201957503593|0.1710435968753568|-0.6007144257167103|0.7254300573831903|-0.0992952436208725|0.6250882744789124|-0.774212658405304|0|0|0|-1|-1|3
2021-04-22 21:18:20.864 +0100|139033.912522625|0.0393218994140625|0.3350677490234375|-0.79998779296875|139033.907532625|-1.447675451158196|-0.1350951045983907|-0.669727470365549|0.0912611186504364|0.1354109942913055|-0.7790108919143677|0.1558681130409241|-0.3125908374786377|0.008765816688537598|XArbitraryZVertical|-0.2878962815743381|0.1693869387445983|-0.6074329128788742|0.7207282148039447|-0.1055914610624313|0.6207723617553711|-0.7768476009368896|0|0|0|-1|-1|3
2021-04-22 21:18:20.884 +0100|139033.932482625|-0.0531158447265625|0.424102783203125|-0.88641357421875|139033.927492625|-1.467578293526425|-0.1466659885003361|-0.6662908056442254|0.05318348854780197|-0.04305329918861389|-0.8328267931938171|0.1367794275283813|-0.2693502902984619|-0.0393979549407959|XArbitraryZVertical|-0.2885724759604096|0.1669911451228551|-0.6133735010546767|0.7159700296689704|-0.1148841083049774|0.618074357509613|-0.7776797413825989|0|0|0|-1|-1|3
2021-04-22 21:18:20.916 +0100|139033.952442625|-0.1338653564453125|0.4461517333984375|-0.9217071533203125|139033.947452625|-1.489668017567402|-0.1619169514239597|-0.6623145811163158|0.07989443093538284|-0.09897621721029282|-0.9538766145706177|0.04863356053829193|-0.1710352897644043|-0.1262692213058472|XArbitraryZVertical|-0.290097716151318|0.1634472899609857|-0.6195891126981197|0.7108008154512935|-0.1271258443593979|0.6149436831474304|-0.7782565951347351|0|0|0|-1|-1|3
2021-04-22 21:18:20.932 +0100|139033.972401|-0.1314849853515625|0.389923095703125|-0.8786468505859375|139033.967411|-1.514076379353466|-0.1789456181026085|-0.6564804695223497|0.1720485389232635|-0.1193593591451645|-1.03307580947876|0.002231135964393616|-0.1743435859680176|-0.1364584565162659|XArbitraryZVertical|-0.2914796197045464|0.1590330902635762|-0.6265671968673076|0.7050970216697315|-0.1409956216812134|0.6103326678276062|-0.7794961929321289|0|0|0|-1|-1|3
2021-04-22 21:18:20.944 +0100|139033.992362|-0.135894775390625|0.3719940185546875|-0.7941741943359375|139033.987372|-1.538819289011064|-0.197012256740008|-0.6491218186493045|0.1549566239118576|-0.1940606534481049|-1.0434490442276|0.02599999308586121|-0.220637321472168|-0.08297652006149292|XArbitraryZVertical|-0.2928058073437383|0.1538252705990352|-0.6336641333928812|0.699337142010477|-0.1559296250343323|0.6044870615005493|-0.7812051177024841|0|0|0|-1|-1|3
2021-04-22 21:18:20.964 +0100|139034.012322|-0.1530609130859375|0.399078369140625|-0.71661376953125|139034.007332|-1.564213960990622|-0.2168782705222256|-0.6430062652620151|0.003971501253545284|-0.2753010094165802|-1.076069593429565|0.03225487470626831|-0.2229869961738586|0.006143093109130859|XArbitraryZVertical|-0.295225560106919|0.1485508218783887|-0.6404747957786222|0.6932291651360616|-0.1722095310688019|0.599604070186615|-0.7815490365028381|0|0|0|-1|-1|3
2021-04-22 21:18:20.984 +0100|139034.032282|-0.1788330078125|0.4297027587890625|-0.684722900390625|139034.027292|-1.592262746653328|-0.2400963796382591|-0.6414088087897551|-0.3531747162342072|-0.3647429645061493|-1.146130561828613|0.02955387532711029|-0.211575984954834|0.09080016613006592|XArbitraryZVertical|-0.30013602904751|0.1441647924892853|-0.6469294620481046|0.6860155142107345|-0.1905351132154465|0.5983248353004456|-0.7782697677612305|0|0|0|-1|-1|3
2021-04-22 21:18:21.004 +0100|139034.052242|-0.2748870849609375|0.557769775390625|-0.6853485107421875|139034.047252|-1.624049390891823|-0.2676483996821033|-0.6447903007409502|-0.6294293403625488|-0.4724236726760864|-1.272666454315186|0.01832675933837891|-0.1186552047729492|0.07252752780914307|XArbitraryZVertical|-0.3078816420102807|0.1407976653288305|-0.6530539463900186|0.6774257633113998|-0.2113667130470276|0.6010308265686035|-0.7707698345184326|0|0|0|-1|-1|3
2021-04-22 21:18:21.024 +0100|139034.072203|-0.3174285888671875|0.6848297119140625|-0.6245269775390625|139034.067212|-1.662403618690744|-0.2997286803077491|-0.6504906868380712|-0.6883086562156677|-0.4294744431972504|-1.514801144599915|-0.0605989396572113|-0.02093684673309326|0.090340256690979|XArbitraryZVertical|-0.3174676190055449|0.1380591530893631|-0.6600100760641201|0.6667390169873632|-0.2349648028612137|0.6055769324302673|-0.7603079676628113|0|0|0|-1|-1|3
2021-04-22 21:18:21.044 +0100|139034.092163|-0.3610992431640625|0.70452880859375|-0.5479888916015625|139034.087173|-1.705693393338305|-0.3351087731947955|-0.650781056408579|-0.3942548632621765|-0.5006113648414612|-1.752734422683716|-0.06088721752166748|0.1032217144966125|0.1446347236633301|XArbitraryZVertical|-0.3263669429668384|0.1334438225051814|-0.6685692372696717|0.6547463635293542|-0.2616540789604187|0.6058080196380615|-0.7513547539710999|0|0|0|-1|-1|3
2021-04-22 21:18:21.064 +0100|139034.112123|-0.4561614990234375|0.7152252197265625|-0.478668212890625|139034.107133|-1.750996134027798|-0.3736306990340798|-0.6409007588599365|0.106102280318737|-0.6431396007537842|-2.001859188079834|-0.08754575252532959|0.1048100590705872|0.2165478467941284|XArbitraryZVertical|-0.3336342717406641|0.1247388913725139|-0.6786149438403687|0.6423475923048682|-0.2925669550895691|0.5979176759719849|-0.7462567687034607|0|0|0|-1|-1|3
2021-04-22 21:18:21.084 +0100|139034.132083|-0.5743865966796875|0.5742950439453125|-0.408538818359375|139034.127093|-1.797037314316164|-0.4154661925486577|-0.6186653230406299|0.4763253033161163|-0.8309903144836426|-2.298584222793579|-0.1599934995174408|0.1048502326011658|0.2880433797836304|XArbitraryZVertical|-0.3392156692499602|0.1107162739832172|-0.6901467772033498|0.6295809095675983|-0.3288075029850006|0.579948365688324|-0.7453492879867554|0|0|0|-1|-1|3
2021-04-22 21:18:21.104 +0100|139034.152044|-0.7039794921875|0.4607391357421875|-0.4369049072265625|139034.147053|-1.845623661727676|-0.4624285428944271|-0.5897070283335144|0.3418594300746918|-1.129991888999939|-2.548972368240356|-0.2299955785274506|-0.008159816265106201|0.3411806225776672|XArbitraryZVertical|-0.3455572851858441|0.09318271212505022|-0.7023980075970933|0.6152595712993251|-0.3707743883132935|0.5561175346374512|-0.7438142895698547|0|0|0|-1|-1|3
2021-04-22 21:18:21.124 +0100|139034.172004|-0.8900146484375|0.4287872314453125|-0.5389404296875|139034.167014|-1.900303464204117|-0.5174884295484934|-0.5631663037782035|-0.2742217183113098|-1.384302377700806|-2.745694875717163|-0.330859512090683|-0.07813256978988647|0.283376932144165|XArbitraryZVertical|-0.3561735056378762|0.07558739300978547|-0.7141034384061795|0.5978992774067307|-0.4183021485805511|0.5338662266731262|-0.734853982925415|0|0|0|-1|-1|3
2021-04-22 21:18:21.144 +0100|139034.191964|-1.06268310546875|0.48291015625|-0.5387115478515625|139034.186974|-1.966387327128454|-0.5816155107170595|-0.5465925841804677|-1.22093141078949|-1.525150299072266|-2.923757076263428|-0.4692837595939636|-0.1078079342842102|0.1485867500305176|XArbitraryZVertical|-0.3731226492764348|0.06215162042198755|-0.7248334153126469|0.575789425975891|-0.4693310260772705|0.5197792649269104|-0.7138333320617676|0|0|0|-1|-1|3
2021-04-22 21:18:21.164 +0100|139034.211924|-1.12896728515625|0.4662017822265625|-0.3661041259765625|139034.206934|-2.044699923601855|-0.6526095097741904|-0.5364337694521505|-1.77992582321167|-1.543771505355835|-3.143166542053223|-0.5697271227836609|-0.02155745029449463|0.1735346913337708|XArbitraryZVertical|-0.3946290672348997|0.05306704247558883|-0.7351179472065006|0.5486834437020487|-0.5219637751579285|0.5110739469528198|-0.6829035878181458|0|0|0|-1|-1|3
2021-04-22 21:18:21.184 +0100|139034.231885|-1.139266967773438|0.4322357177734375|-0.1903839111328125|139034.226894|-2.129849872715176|-0.7267839259220218|-0.5238758853098514|-1.827441215515137|-1.573414325714111|-3.317089080810547|-0.5590446591377258|-0.0473598837852478|0.3427234292030334|XArbitraryZVertical|-0.417608579486369|0.04536343225862008|-0.7451371894379138|0.5179922363526913|-0.5753555297851562|0.5002399682998657|-0.6470904946327209|0|0|0|-1|-1|3
2021-04-22 21:18:21.204 +0100|139034.251845|-1.155059814453125|0.3637847900390625|-0.120025634765625|139034.246855|-2.211729486457154|-0.7992296000075008|-0.5019239399423001|-1.504351854324341|-1.645394444465637|-3.359082937240601|-0.5086037516593933|-0.06149721145629883|0.4464786052703857|XArbitraryZVertical|-0.4394427765663352|0.03550973744701708|-0.7543117890704706|0.4864595142207976|-0.6284056305885315|0.481113076210022|-0.6112582087516785|0|0|0|-1|-1|3
2021-04-22 21:18:21.223 +0100|139034.271805|-1.174407958984375|0.2975006103515625|-0.142822265625|139034.266815|-2.286195205274824|-0.8670111707905692|-0.4707271200598152|-1.305470585823059|-1.650593280792236|-3.395204544067383|-0.4846299886703491|-0.1048262119293213|0.4543829560279846|XArbitraryZVertical|-0.4594569869317089|0.02313701252368201|-0.7623578279750861|0.4551645632315574|-0.6794789433479309|0.4535344541072845|-0.5767279267311096|0|0|0|-1|-1|3
2021-04-22 21:18:21.243 +0100|139034.291765|-1.204910278320312|0.25701904296875|-0.1707305908203125|139034.286775|-2.355657816373317|-0.9308740067388078|-0.4328882263560142|-1.277230024337769|-1.714896678924561|-3.474116086959839|-0.4478445053100586|-0.1243139207363129|0.3828117251396179|XArbitraryZVertical|-0.4784191197098049|0.009430369571157232|-0.7693399348680118|0.423252355905582|-0.7281510233879089|0.4194943606853485|-0.5420524477958679|0|0|0|-1|-1|3
2021-04-22 21:18:21.263 +0100|139034.311725|-1.329864501953125|0.3038787841796875|-0.1334228515625|139034.306735|-2.422429000342939|-0.99247231148183|-0.3897146693785151|-1.249262809753418|-1.765444397926331|-3.593393564224243|-0.4508732557296753|-0.1268278956413269|0.3345985412597656|XArbitraryZVertical|-0.497149882988476|-0.004985916227862673|-0.7751217511730987|0.3898762649594166|-0.7745911478996277|0.3799245059490204|-0.5056342482566833|0|0|0|-1|-1|3
2021-04-22 21:18:21.283 +0100|139034.331686|-1.416885375976562|0.232208251953125|-0.0375213623046875|139034.326696|-2.485969102007807|-1.049048284095062|-0.3398433644725771|-1.233557820320129|-1.602716445922852|-3.749968290328979|-0.5537436604499817|-0.01734617352485657|0.3515749275684357|XArbitraryZVertical|-0.5144320258415163|-0.02034510216363728|-0.7804012504395732|0.3548516491722806|-0.8173657655715942|0.3333394229412079|-0.4698915481567383|0|0|0|-1|-1|3
2021-04-22 21:18:21.303 +0100|139034.351646|-1.388916015625|0.1532440185546875|0.0894622802734375|139034.346656|-2.546141874449294|-1.097644667491952|-0.2850565013954739|-1.161614537239075|-1.414011001586914|-3.788657188415527|-0.5651265978813171|-0.06932914257049561|0.4360688328742981|XArbitraryZVertical|-0.529224155566475|-0.03562827820587439|-0.7855986976763688|0.3185708054331782|-0.8542158603668213|0.2812116742134094|-0.437304824590683|0|0|0|-1|-1|3
2021-04-22 21:18:21.323 +0100|139034.371606|-1.361541748046875|-0.0180206298828125|0.2114105224609375|139034.366616|-2.601596699627841|-1.138665203502072|-0.2280850537831333|-1.22343373298645|-1.299317598342896|-3.688042402267456|-0.4883983731269836|-0.1323636472225189|0.5357985496520996|XArbitraryZVertical|-0.5417302767393302|-0.05047874527055547|-0.7901120017792688|0.2823179042931021|-0.88455730676651|0.2261125892400742|-0.4079604148864746|0|0|0|-1|-1|3
2021-04-22 21:18:21.343 +0100|139034.391566|-1.336410522460938|-0.08544921875|0.2743988037109375|139034.386576|-2.656110779546917|-1.17377915286131|-0.1724249686983904|-1.448814153671265|-1.087121963500977|-3.585446357727051|-0.4575608372688293|-0.2086823135614395|0.6197508573532104|XArbitraryZVertical|-0.5527757114229614|-0.0630175477250141|-0.7937926369602063|0.2456851727128896|-0.9085435271263123|0.1715718656778336|-0.3809356093406677|0|0|0|-1|-1|3
2021-04-22 21:18:21.363 +0100|139034.411527|-1.265869140625|-0.1480712890625|0.2719573974609375|139034.406537|-2.714102741814748|-1.202101422639528|-0.1186364300140231|-1.918845415115356|-0.9105450510978699|-3.571448802947998|-0.3813449740409851|-0.2269257009029388|0.6296088695526123|XArbitraryZVertical|-0.5620396316500637|-0.07196461369142465|-0.7974445758000183|0.2073998886431191|-0.9262418150901794|0.1183583289384842|-0.3578650951385498|0|0|0|-1|-1|3
2021-04-22 21:18:21.383 +0100|139034.431487|-1.232986450195312|-0.2230377197265625|0.275115966796875|139034.426497|-2.781214819932829|-1.224104749659308|-0.06715932185230744|-2.592911958694458|-0.6659220457077026|-3.604562997817993|-0.3230470418930054|-0.2201860845088959|0.5961784720420837|XArbitraryZVertical|-0.569852393269395|-0.07587601905634486|-0.8013086582256996|0.165577149357374|-0.9383819699287415|0.06710884720087051|-0.339022159576416|0|0|0|-1|-1|3
2021-04-22 21:18:21.417 +0100|139034.451447|-1.23089599609375|-0.2809295654296875|0.2999114990234375|139034.446457|-2.860685826183142|-1.239145641614541|-0.01833003241597959|-3.283926486968994|-0.5545060038566589|-3.635861158370972|-0.2758440375328064|-0.2509960830211639|0.6093780994415283|XArbitraryZVertical|-0.5759895411423763|-0.07390034403070045|-0.805330901691764|0.1192360777041318|-0.9453475475311279|0.01832900568842888|-0.3255495727062225|0|0|0|-1|-1|3
2021-04-22 21:18:21.434 +0100|139034.471408|-1.350982666015625|-0.210205078125|0.3293914794921875|139034.466417|-2.952536611646296|-1.248245768057666|0.02790900997899271|-3.873497486114502|-0.3555533587932587|-3.713003396987915|-0.3140546679496765|-0.2564889788627625|0.6332539319992065|XArbitraryZVertical|-0.5806513397103914|-0.06642605788950037|-0.8085443380957841|0.068467455057523|-0.9480607509613037|-0.02790538780391216|-0.3168632090091705|0|0|0|-1|-1|3
2021-04-22 21:18:21.443 +0100|139034.491368|-1.3531494140625|-0.12530517578125|0.235107421875|139034.486378|-3.051538896149868|-1.247467568400611|0.07386073637077553|-3.988092422485352|-0.1214732229709625|-3.786643981933594|-0.4124189019203186|-0.1131428256630898|0.6260011196136475|XArbitraryZVertical|-0.5817311293704177|-0.05621135184802497|-0.8112985140612624|0.01496806139125607|-0.9455979466438293|-0.07379359751939774|-0.3168583512306213|0|0|0|-1|-1|3
2021-04-22 21:18:21.463 +0100|139034.511328|-1.482574462890625|-0.034576416015625|0.0931243896484375|139034.506338|3.133192342482308|-1.239664803528182|0.1217884638808079|-3.744797229766846|-0.02652476169168949|-3.93093204498291|-0.4336590766906738|0.02116009593009949|0.5243802070617676|XArbitraryZVertical|-0.5800249768263014|-0.04710002968110255|-0.812311701006226|-0.03876368140464152|-0.9386706352233887|-0.1214876174926758|-0.3227052390575409|0|0|0|-1|-1|3
2021-04-22 21:18:21.483 +0100|139034.531288|-1.545150756835938|0.067474365234375|-0.124908447265625|139034.526298|3.039125632841018|-1.224562379959971|0.1741439716101743|-3.306344985961914|0.1368443071842194|-4.093132019042969|-0.5853186845779419|0.176468551158905|0.3752249479293823|XArbitraryZVertical|-0.5754515305729178|-0.04174967144047997|-0.8116098051342111|-0.09166387525433232|-0.926430344581604|-0.1732651144266129|-0.3342249989509583|0|0|0|-1|-1|3
2021-04-22 21:18:21.503 +0100|139034.551249|-1.5791015625|0.1525115966796875|-0.29229736328125|139034.546258|2.9496697371965|-1.202750105135308|0.229424344022073|-2.998796701431274|0.2653324007987976|-4.140685558319092|-0.6450651884078979|0.3023978471755981|0.1758504807949066|XArbitraryZVertical|-0.5685154052671288|-0.04009215522856912|-0.8091657509461009|-0.1429465143959157|-0.9085842967033386|-0.2274169921875|-0.3503656983375549|0|0|0|-1|-1|3
2021-04-22 21:18:21.523 +0100|139034.571209|-1.524215698242188|0.17047119140625|-0.3624420166015625|139034.566219|2.861605475264633|-1.173707437195254|0.2830209848512802|-2.966337919235229|0.3780264556407928|-3.981391668319702|-0.6849620938301086|0.4381314516067505|0.06405234336853027|XArbitraryZVertical|-0.5592328583331668|-0.03979683554489067|-0.8054011780795393|-0.1923643052628306|-0.8855026364326477|-0.2792577147483826|-0.3713496327400208|0|0|0|-1|-1|3
2021-04-22 21:18:21.543 +0100|139034.591169|-1.513656616210938|0.2910614013671875|-0.3945465087890625|139034.586179|2.77196827646479|-1.138423080030698|0.3279353656251531|-3.056638479232788|0.4813375771045685|-3.561122417449951|-0.6624457836151123|0.5246641039848328|0.01693528890609741|XArbitraryZVertical|-0.5479505570617462|-0.03744135463183638|-0.8007097629698368|-0.2391910983805551|-0.8595874309539795|-0.3220891058444977|-0.3966966569423676|0|0|0|-1|-1|3
2021-04-22 21:18:21.563 +0100|139034.611129|-1.364791870117188|0.38226318359375|-0.4586334228515625|139034.606139|2.682674177056625|-1.096092329178203|0.3601475677634879|-3.078569173812866|0.7217624187469482|-2.991181135177612|-0.6594693064689636|0.6693825125694275|0.02449160814285278|XArbitraryZVertical|-0.5339312663928057|-0.03227429337429138|-0.7965080994387654|-0.2818704245595694|-0.8323668241500854|-0.3524123430252075|-0.4277515411376953|0|0|0|-1|-1|3
2021-04-22 21:18:21.583 +0100|139034.631089|-1.221633911132812|0.5291595458984375|-0.5940399169921875|139034.626099|2.599617010400991|-1.049999494554711|0.3784696196451174|-2.835454225540161|0.8730946183204651|-2.33321475982666|-0.5144127011299133|0.7843695282936096|-0.02372565865516663|XArbitraryZVertical|-0.5178729427294795|-0.02506251168577815|-0.7936244733216855|-0.3183390683458326|-0.8060365319252014|-0.3694988191127777|-0.4623589813709259|0|0|0|-1|-1|3
2021-04-22 21:18:21.603 +0100|139034.65105|-1.130233764648438|0.638336181640625|-0.7409210205078125|139034.64606|2.528428721793673|-1.004957970794787|0.3860186946692989|-2.436562776565552|0.9669926166534424|-1.745451092720032|-0.4137153625488281|0.9442515969276428|-0.1364603042602539|XArbitraryZVertical|-0.5013512004805951|-0.01761617943409456|-0.7921318817137537|-0.3476548887080749|-0.7820238471031189|-0.3765030801296234|-0.4966732859611511|0|0|0|-1|-1|3
2021-04-22 21:18:21.623 +0100|139034.67101|-1.065139770507812|0.7416229248046875|-0.892364501953125|139034.66602|2.470512727949328|-0.9632779323684121|0.3854170146160286|-2.080748796463013|1.016989588737488|-1.195464253425598|-0.3528116941452026|1.047377705574036|-0.2564750909805298|XArbitraryZVertical|-0.4851910452287332|-0.01055568045025607|-0.7921109171592392|-0.3701872248683136|-0.7608351111412048|-0.3759455978870392|-0.5289564728736877|0|0|0|-1|-1|3
2021-04-22 21:18:21.643 +0100|139034.69097|-0.96282958984375|0.796875|-0.9535980224609375|139034.68598|2.424753252115734|-0.9258204432059101|0.3784330895420427|-1.787397265434265|1.015969395637512|-0.7243910431861877|-0.3034470677375793|1.126514077186584|-0.3661322593688965|XArbitraryZVertical|-0.469749570565764|-0.003746672658709636|-0.7934782716692083|-0.3869285853803643|-0.7425727844238281|-0.3694648742675781|-0.5586426258087158|0|0|0|-1|-1|3
2021-04-22 21:18:21.663 +0100|139034.710931|-0.890533447265625|0.918182373046875|-0.8974609375|139034.70594|2.390914854312636|-0.8936765508741206|0.3654932260474302|-1.515856981277466|0.9844517707824707|-0.1991964280605316|-0.2057687044143677|1.178332567214966|-0.3504734039306641|XArbitraryZVertical|-0.4554188352062375|0.003291844321328237|-0.796277283443048|-0.3981526442072496|-0.7279006838798523|-0.3574099838733673|-0.5851656794548035|0|0|0|-1|-1|3
2021-04-22 21:18:21.683 +0100|139034.730891|-0.879669189453125|1.009536743164062|-0.9031524658203125|139034.725901|2.367174558738624|-0.8655763906086814|0.3457073837449518|-1.591449618339539|1.040914297103882|0.2954011559486389|-0.1664706468582153|1.29693078994751|-0.2992223501205444|XArbitraryZVertical|-0.4415243097778395|0.01143210792067581|-0.8008273263268675|-0.4044766901683342|-0.7164174914360046|-0.3388622999191284|-0.6098511815071106|0|0|0|-1|-1|3
2021-04-22 21:18:21.702 +0100|139034.750851|-0.806671142578125|1.029556274414062|-0.882476806640625|139034.745861|2.346319763836656|-0.8365208491351929|0.3133723573277401|-2.033430099487305|1.143065690994263|0.8730716109275818|-0.1595414876937866|1.320231080055237|-0.2683141231536865|XArbitraryZVertical|-0.4251121978000607|0.02389035546921916|-0.8076368684238725|-0.4079604987980933|-0.7061651945114136|-0.3082685172557831|-0.637417733669281|0|0|0|-1|-1|3
2021-04-22 21:18:21.722 +0100|139034.770811|-0.90301513671875|1.2867431640625|-0.931640625|139034.765821|2.330235569372549|-0.8093738039132653|0.2663047736457368|-2.184723377227783|1.1274174451828|1.52027416229248|-0.1194546818733215|1.328490853309631|-0.2059058547019958|XArbitraryZVertical|-0.4067318396083436|0.04187685369766197|-0.8165119372476088|-0.4075832547406988|-0.6983394026756287|-0.2631682753562927|-0.6656310558319092|0|0|0|-1|-1|3
2021-04-22 21:18:21.742 +0100|139034.790772|-1.072616577148438|1.66607666015625|-0.9955902099609375|139034.785781|2.328867591075627|-0.7877479019848562|0.2141766994713998|-1.440237760543823|0.9579544067382812|2.082630157470703|-0.227089524269104|1.573672533035278|-0.2847508192062378|XArbitraryZVertical|-0.3895099657992649|0.06016153824973235|-0.8271570178163509|-0.4005919173278698|-0.6925722360610962|-0.2125430107116699|-0.6893251538276672|0|0|0|-1|-1|3
2021-04-22 21:18:21.762 +0100|139034.810732|-1.385894775390625|2.108306884765625|-0.7819366455078125|139034.805742|2.350173001426272|-0.7741315644324792|0.1707627995762984|-0.1418756246566772|0.8376314640045166|2.444597721099854|-0.4544129967689514|1.95762300491333|-0.2712478041648865|XArbitraryZVertical|-0.377473816191112|0.07210545930172117|-0.8389400287950138|-0.3853491330305173|-0.6889273524284363|-0.1699341088533401|-0.7046286463737488|0|0|0|-1|-1|3
2021-04-22 21:18:21.782 +0100|139034.830692|-1.727035522460938|2.597412109375|-0.330230712890625|139034.825702|2.397476239409443|-0.7641365867034401|0.1431918704429997|1.42984938621521|0.8987741470336914|2.865275144577026|-0.7764856815338135|2.360491514205933|0.03127127885818481|XArbitraryZVertical|-0.3705714508874182|0.07335741096053022|-0.8524995616537008|-0.3613032794996748|-0.6848325729370117|-0.142703041434288|-0.7145909667015076|0|0|0|-1|-1|3
2021-04-22 21:18:21.802 +0100|139034.850652|-2.245620727539062|3.33099365234375|0.135284423828125|139034.845662|2.476430710535771|-0.7551341278893937|0.1330092030973243|3.344932317733765|1.082154870033264|3.598142385482788|-1.15578019618988|2.878039360046387|0.5337589979171753|XArbitraryZVertical|-0.3678565745684282|0.06170574634842463|-0.8686859467439983|-0.3259737738196635|-0.6793325543403625|-0.1326173692941666|-0.721747875213623|0|0|0|-1|-1|3
2021-04-22 21:18:21.822 +0100|139034.870613|-3.148666381835938|3.882461547851562|0.18609619140625|139034.865622|2.596910457868911|-0.7469134216794759|0.140770428369548|5.259647369384766|1.377801537513733|4.697629928588867|-1.775279521942139|3.649933815002441|0.9263288974761963|XArbitraryZVertical|-0.368132670761062|0.03482691537254853|-0.8876340941239533|-0.2745383589405961|-0.6726568937301636|-0.1403059661388397|-0.7265308499336243|0|0|0|-1|-1|3
2021-04-22 21:18:21.842 +0100|139034.890573|-4.479705810546875|4.011749267578125|-0.2211761474609375|139034.885583|2.760662933374372|-0.7394529745382555|0.1494562357805184|6.140471935272217|1.845924973487854|6.83263111114502|-2.764429092407227|4.141483783721924|0.8534184694290161|XArbitraryZVertical|-0.3670143187702704|-0.0001345781796574387|-0.9079020235734082|-0.2025208239402888|-0.6663715839385986|-0.1489004492759705|-0.7306009531021118|0|0|0|-1|-1|3
2021-04-22 21:18:21.862 +0100|139034.910533|-5.477401733398438|3.501068115234375|-0.797210693359375|139034.905543|2.964301671240197|-0.7216155801207597|0.1251538322896033|5.115511894226074|2.748916625976562|9.978023529052734|-4.143380641937256|4.107889175415039|0.401025652885437|XArbitraryZVertical|-0.3561354849436543|-0.027087376046482|-0.9281599188017978|-0.1046575441035045|-0.6554315686225891|-0.1248273625969887|-0.7448675632476807|0|0|0|-1|-1|3
2021-04-22 21:18:21.882 +0100|139034.930493|-6.251419067382812|2.746047973632812|-1.762954711914062|139034.925503|-3.090129778208978|-0.6806880615090651|0.02692461008624334|1.889420390129089|3.159072875976562|13.80322456359863|-5.043797016143799|3.316959381103516|-0.2514470815658569|XArbitraryZVertical|-0.3333441462238123|-0.02127324302828557|-0.9423582035741696|0.01975836865708482|-0.6290998458862305|-0.0269213579595089|-0.7768582701683044|0|0|0|-1|-1|3
2021-04-22 21:18:21.902 +0100|139034.950454|-6.897979736328125|3.011642456054688|-2.311920166015625|139034.945464|-2.834981451168717|-0.6031531894948884|-0.1529484309987916|-0.5323582887649536|2.951573371887207|17.19422149658203|-5.856127738952637|2.520375728607178|-1.132657289505005|XArbitraryZVertical|-0.3038245739000633|0.02687108735025516|-0.9374471578502981|0.1678145249365323|-0.5606202483177185|0.1523527950048447|-0.8139371275901794|0|0|0|-1|-1|3
2021-04-22 21:18:21.922 +0100|139034.9704137917|-8.343780517578125|3.951828002929688|-2.767196655273438|139034.9654237917|-2.513539175642933|-0.466917530394764|-0.3416055347144169|1.011705994606018|2.671807765960693|18.97497177124023|-6.720863342285156|2.927526235580444|-1.591391682624817|XArbitraryZVertical|-0.267907731653481|0.08685560380479053|-0.8996856265529467|0.3335379857292926|-0.4241261780261993|0.3350002765655518|-0.8413631319999695|0|0|0|-1|-1|3
2021-04-22 21:18:21.942 +0100|139034.9903737917|-10.79721069335938|3.277725219726562|-2.80255126953125|139034.9853837917|-2.103779158290935|-0.2489631789637504|-0.4165953821331707|5.475332260131836|3.873069524765015|18.91722869873047|-8.61644172668457|3.629056453704834|-1.958876729011536|XArbitraryZVertical|-0.207247946453724|0.1179390938662272|-0.8302843500200257|0.5037526611796238|-0.2253251820802689|0.4046493768692017|-0.8862773180007935|0|0|0|-1|-1|3
2021-04-22 21:18:21.962 +0100|139035.0103337917|-13.20463562011719|2.722396850585938|-1.5042724609375|139035.0053437917|-1.692980557760481|-0.002037386083676756|-0.3187846848501631|10.3638162612915|5.84730339050293|17.79687881469727|-11.5617561340332|1.880602121353149|-1.563156723976135|XArbitraryZVertical|-0.1059224853470602|0.1182070206903019|-0.7393580414729708|0.6543373927817699|-0.001934735220856965|0.3134126961231232|-0.9496150612831116|0|0|0|-1|-1|3
2021-04-22 21:18:21.982 +0100|139035.0302947917|-10.87985229492188|0.054595947265625|1.832015991210938|139035.0253047917|-1.389484773408189|0.2262308221341551|-0.06402114478666474|11.19362735748291|10.43792152404785|14.67781639099121|-13.63328647613525|1.819795966148376|0.2175934910774231|XArbitraryZVertical|0.04779392833136586|0.1070260786986081|-0.6385456464953585|0.7606055413767533|0.2238464653491974|0.06397742033004761|-0.9725223183631897|0|0|0|-1|-1|3
2021-04-22 21:18:22.002 +0100|139035.0502547917|-7.257080078125|-2.991180419921875|2.792678833007812|139035.0452647917|-1.202343400893647|0.4420373352254721|0.2075415063797882|8.055171012878418|12.07876110076904|11.51044273376465|-10.33512210845947|-0.6291810274124146|3.265161037445068|XArbitraryZVertical|0.2066733694488536|0.1226521702237862|-0.5301550321122648|0.8131287569904216|0.4186018705368042|-0.2060547918081284|-0.884485125541687|0|0|0|-1|-1|3
2021-04-22 21:18:22.022 +0100|139035.0702147917|-4.241668701171875|-2.025436401367188|2.355911254882812|139035.0652247917|-1.090540707095311|0.6403657328197179|0.4102865733829456|4.109819412231445|10.73636817932129|8.058679580688477|-6.788166999816895|-2.568291187286377|3.490010738372803|XArbitraryZVertical|0.325132545027673|0.1631730406532355|-0.4271505411554415|0.8277717003353756|0.5479011535644531|-0.3988721370697021|-0.7353267669677734|0|0|0|-1|-1|3
2021-04-22 21:18:22.042 +0100|139035.0901747917|-3.160629272460938|-1.688003540039062|2.433624267578125|139035.0851847917|-1.015531797348859|0.7968715186765217|0.5293788226204518|0.5739958882331848|8.442058563232422|4.912574768066406|-4.522020816802979|-1.270805358886719|2.839969873428345|XArbitraryZVertical|0.3927711239573987|0.2099825870804092|-0.3438399256862359|0.8266876587088579|0.6172808408737183|-0.5049973130226135|-0.6032763123512268|0|0|0|-1|-1|3
2021-04-22 21:18:22.062 +0100|139035.1101357917|-1.869537353515625|-2.032562255859375|2.512374877929688|139035.1051457917|-0.9435034631238154|0.9074775868946208|0.575346660148232|-1.94303286075592|6.436413764953613|2.697845935821533|-3.542687892913818|-1.184496641159058|3.042757034301758|XArbitraryZVertical|0.4181709904447798|0.2585167894056305|-0.2808989694607252|0.8242559715345369|0.6610956192016602|-0.5441256761550903|-0.5166041851043701|0|0|0|-1|-1|3
2021-04-22 21:18:22.096 +0100|139035.1300957917|-1.139175415039062|-1.720840454101562|1.825531005859375|139035.1251057917|-0.8679968968575361|0.9698675542565014|0.5783887505905408|-2.754122257232666|3.923941850662231|1.341738104820251|-2.265572071075439|-1.474656105041504|2.84763240814209|XArbitraryZVertical|0.4167872141974303|0.2992781682550725|-0.2359596277480787|0.8252539700972814|0.6906508803367615|-0.5466755032539368|-0.4734419882297516|0|0|0|-1|-1|3
2021-04-22 21:18:22.102 +0100|139035.1500557917|-0.98516845703125|-1.411651611328125|1.02386474609375|139035.1450657917|-0.8064455827688982|0.9942147831039054|0.5618061207597551|-2.388668298721313|1.931098699569702|0.1852677315473557|-1.805148005485535|-1.100279808044434|2.088975429534912|XArbitraryZVertical|0.4039160226520891|0.3258348425313465|-0.2097736765113613|0.828660765994551|0.7094749808311462|-0.5327155590057373|-0.4613670110702515|0|0|0|-1|-1|3
2021-04-22 21:18:22.122 +0100|139035.1700157917|-0.93408203125|-1.125198364257812|0.3897552490234375|139035.1650257917|-0.7685461615530618|0.9964873982872414|0.5340928043200609|-1.894911646842957|0.3713487386703491|-0.7291802763938904|-1.68698263168335|-0.8222992420196533|1.304860234260559|XArbitraryZVertical|0.3876979374563311|0.3404295358358722|-0.2007265767153316|0.8327706263669085|0.7226420044898987|-0.5090603828430176|-0.4675960838794708|0|0|0|-1|-1|3
2021-04-22 21:18:22.142 +0100|139035.1899767917|-0.8073577880859375|-1.009063720703125|0.1121368408203125|139035.1849867917|-0.7464732607329201|0.9823922537923846|0.4959270805529955|-1.865172266960144|-0.6112521886825562|-1.351119041442871|-1.645556449890137|-0.6252877116203308|0.7905201315879822|XArbitraryZVertical|0.3682424369933521|0.3468623170752817|-0.2038919649853381|0.8381599534647948|0.7316155433654785|-0.4758472442626953|-0.4881680905818939|0|0|0|-1|-1|3
2021-04-22 21:18:22.162 +0100|139035.2099367917|-0.703155517578125|-0.805816650390625|0.0477752685546875|139035.2049467917|-0.7295937657431741|0.9560185641250304|0.4489934616456963|-2.039579153060913|-1.175884246826172|-1.621687054634094|-1.507830858230591|-0.5140913724899292|0.6052104234695435|XArbitraryZVertical|0.3446518989751584|0.3484398588719236|-0.2131549502696141|0.8452040199048904|0.7359340786933899|-0.4340589940547943|-0.5196094512939453|0|0|0|-1|-1|3
2021-04-22 21:18:22.182 +0100|139035.2298967917|-0.5780792236328125|-0.5667724609375|0.0108642578125|139035.2249067917|-0.7133199599982811|0.924154055650248|0.3971640051807199|-2.144361972808838|-1.299838781356812|-1.669673442840576|-1.410670757293701|-0.3553367555141449|0.5940019488334656|XArbitraryZVertical|0.3180705898457838|0.3478868930430123|-0.2239747641332117|0.8530188620643225|0.7359877228736877|-0.3868046700954437|-0.5556116104125977|0|0|0|-1|-1|3
2021-04-22 21:18:22.202 +0100|139035.2498567917|-0.4772186279296875|-0.2743682861328125|-0.0657196044921875|139035.2448667917|-0.7024266849593707|0.8953416146803286|0.347478660443977|-1.631443023681641|-1.141593456268311|-1.649518013000488|-1.281723737716675|-0.1334705054759979|0.5808027386665344|XArbitraryZVertical|0.292999734908605|0.3467121906515364|-0.235205697615655|0.8594301424282661|0.7337802052497864|-0.3405282497406006|-0.5878836512565613|0|0|0|-1|-1|3
2021-04-22 21:18:22.222 +0100|139035.2698177917|-0.2043914794921875|-0.1752777099609375|-0.2723236083984375|139035.2648277917|-0.7044359902203148|0.8770779869769035|0.3058442136142583|-0.8429336547851562|-0.7767633199691772|-1.67038357257843|-1.167443156242371|0.08224186301231384|0.5156109929084778|XArbitraryZVertical|0.2742212702194323|0.3463217090853025|-0.2479812950497257|0.8621886445117101|0.7331928014755249|-0.3010983169078827|-0.6097279191017151|0|0|0|-1|-1|3
2021-04-22 21:18:22.242 +0100|139035.2897777917|0.128936767578125|-0.232696533203125|-0.4753570556640625|139035.2847877917|-0.7178833102852703|0.8674537079464786|0.273719635135834|-0.3236775100231171|-0.5450351238250732|-1.62230920791626|-0.8563775420188904|0.1159263551235199|0.2915304899215698|XArbitraryZVertical|0.2621585752484299|0.3463040651893076|-0.2620935415548941|0.8617734069537263|0.7342914342880249|-0.2703144550323486|-0.6226927638053894|0|0|0|-1|-1|3
2021-04-22 21:18:22.262 +0100|139035.3097377917|0.6813201904296875|-0.31060791015625|-0.7196197509765625|139035.3047477917|-0.7346863152598858|0.8648358257360926|0.2466946226260777|-0.1926870942115784|-0.2332710772752762|-1.454424023628235|-0.4921159744262695|-0.01646561920642853|0.1030761003494263|XArbitraryZVertical|0.253616425969154|0.3480184819762158|-0.2754829095366464|0.8594598687600835|0.7379498481750488|-0.2441999912261963|-0.6291236877441406|0|0|0|-1|-1|3
2021-04-22 21:18:22.282 +0100|139035.3296977917|0.940032958984375|-0.3383331298828125|-0.8487091064453125|139035.3247077917|-0.7491186383453246|0.8603784550927199|0.2237987379551616|-0.2313514947891235|-0.6598479747772217|-1.243763089179993|0.05802637338638306|-0.1199834495782852|-0.1267176270484924|XArbitraryZVertical|0.2460812146515151|0.3485693169416157|-0.2871070758483643|0.8576206304680125|0.739183783531189|-0.2219352126121521|-0.6358869075775146|0|0|0|-1|-1|3
2021-04-22 21:18:22.301 +0100|139035.3496587917|0.842071533203125|-0.222930908203125|-0.856658935546875|139035.3446687917|-0.7621152049493128|0.8452516315120904|0.2015520981092027|-0.2672521770000458|-1.053886413574219|-1.290596723556519|0.1901320219039917|-0.1150865852832794|-0.1992397308349609|XArbitraryZVertical|0.236936747753544|0.3446816897492436|-0.2991555001535089|0.8576489312092547|0.7329936027526855|-0.2001902461051941|-0.6501110196113586|0|0|0|-1|-1|3
2021-04-22 21:18:22.321 +0100|139035.3696187917|0.8404998779296875|-0.189300537109375|-0.85687255859375|139035.3646287917|-0.7762068850343953|0.8261955694693955|0.1780279462319479|-0.2811774909496307|-1.078438282012939|-1.374304890632629|0.09648424386978149|-0.03017082810401917|-0.1822459101676941|XArbitraryZVertical|0.226683514176094|0.3393093782264995|-0.3121949063672801|0.8579149534603787|0.723736047744751|-0.1770890355110168|-0.6669674515724182|0|0|0|-1|-1|3
2021-04-22 21:18:22.341 +0100|139035.3895787917|0.955718994140625|-0.244049072265625|-0.9034881591796875|139035.3845887917|-0.7906885124592192|0.8064183097035766|0.1531894522306484|-0.3919950723648071|-1.186658024787903|-1.397128462791443|0.1541013717651367|-0.06197784841060638|-0.1768418550491333|XArbitraryZVertical|0.2156239490816618|0.3339379749667559|-0.3254944025179604|0.8579308792354988|0.7133601903915405|-0.1525910049676895|-0.6839835047721863|0|0|0|-1|-1|3
2021-04-22 21:18:22.361 +0100|139035.4095397917|1.072128295898438|-0.3052978515625|-1.009292602539062|139035.4045487917|-0.8034778829097337|0.7822764873259651|0.1261995359645636|-0.6259780526161194|-1.419617295265198|-1.428965091705322|0.274982750415802|-0.1181229650974274|-0.2204641699790955|XArbitraryZVertical|0.2024300382768381|0.3273944646114401|-0.3386423119018349|0.8585782523876373|0.6992902755737305|-0.1258648186922073|-0.7036699056625366|0|0|0|-1|-1|3
2021-04-22 21:18:22.381 +0100|139035.4294997917|1.109512329101562|-0.26226806640625|-1.128997802734375|139035.4245097917|-0.8135413007851998|0.7498363651236294|0.09379313582512389|-1.03881824016571|-1.964893102645874|-1.574880838394165|0.436176061630249|-0.2223078310489655|-0.3253260850906372|XArbitraryZVertical|0.1847881866485528|0.3186869510292873|-0.3519919891970398|0.8604613502790851|0.6785235404968262|-0.09365567564964294|-0.7285839319229126|0|0|0|-1|-1|3
2021-04-22 21:18:22.401 +0100|139035.4494597917|0.97705078125|-0.020172119140625|-1.134140014648438|139035.4444697917|-0.8229342727309062|0.7071412126333743|0.05318495283449391|-1.322150707244873|-2.360905647277832|-1.857439041137695|0.4340947270393372|-0.1454025059938431|-0.3890467286109924|XArbitraryZVertical|0.1612977408225519|0.30726111334175|-0.3666434155015865|0.8632185718972286|0.648744523525238|-0.05315988138318062|-0.7591472864151001|0|0|0|-1|-1|3
2021-04-22 21:18:22.421 +0100|139035.4694197917|0.7422943115234375|0.14385986328125|-0.9774169921875|139035.4644297917|-0.8375880845851906|0.6586773392233107|0.007209140119518912|-1.28290855884552|-2.492050409317017|-2.167148351669312|0.3113293051719666|0.04486799240112305|-0.3201652765274048|XArbitraryZVertical|0.1346357368817992|0.294078604979781|-0.3837361488638376|0.8649496253558807|0.6120555400848389|-0.007209077477455139|-0.7907819747924805|0|0|0|-1|-1|3
2021-04-22 21:18:22.441 +0100|139035.4893807917|0.4643707275390625|0.230743408203125|-0.8469085693359375|139035.4843897917|-0.8600915831830375|0.6096212931023332|-0.03729319859028683|-0.9142647981643677|-2.340392112731934|-2.250325918197632|0.1035147309303284|0.1399312317371368|-0.114452064037323|XArbitraryZVertical|0.1089323405639269|0.2801540965254631|-0.4027114458660382|0.8645640350849514|0.5721589326858521|0.03728455305099487|-0.8192948698997498|0|0|0|-1|-1|3
2021-04-22 21:18:22.461 +0100|139035.5093407917|0.2315521240234375|0.3056488037109375|-0.8326416015625|139035.5043507917|-0.8894500050581678|0.5646243748672536|-0.07118474804018994|-0.2517819106578827|-1.97350013256073|-2.057161331176758|-0.1356119513511658|0.1756254136562347|-0.002916097640991211|XArbitraryZVertical|0.08891877177827692|0.2660232278006273|-0.421866487748324|0.8621797282526767|0.5337433815002441|0.07112464308738708|-0.8426501750946045|0|0|0|-1|-1|3
2021-04-22 21:18:22.481 +0100|139035.5293007917|0.1468505859375|0.243988037109375|-0.755340576171875|139035.5243107917|-0.9229584102666751|0.5270096777827818|-0.08951904704981703|0.3768340349197388|-1.525435566902161|-1.759992718696594|-0.3081737160682678|0.207033097743988|0.04557645320892334|XArbitraryZVertical|0.07718116837822685|0.2522221929521899|-0.439908347518932|0.8584332589583347|0.5009371042251587|0.08939953148365021|-0.8608540892601013|0|0|0|-1|-1|3
2021-04-22 21:18:22.501 +0100|139035.5492607917|0.1533660888671875|0.162811279296875|-0.7043914794921875|139035.5442707917|-0.9569618553221835|0.4969356897100847|-0.09552483851214366|0.6763803958892822|-1.182767271995544|-1.510173678398132|-0.3329600393772125|0.1322663426399231|0.1304563283920288|XArbitraryZVertical|0.07201888569340091|0.2393601783916613|-0.4562052027229376|0.8540474399487257|0.4745606780052185|0.09537962824106216|-0.8750399947166443|0|0|0|-1|-1|3
2021-04-22 21:18:22.521 +0100|139035.5692217917|0.2183380126953125|0.11419677734375|-0.683837890625|139035.5642317917|-0.9886676714096692|0.4730492429949747|-0.0969596332322081|0.6509009599685669|-0.9350040555000305|-1.370948553085327|-0.2860443592071533|0.03499770909547806|0.188018798828125|XArbitraryZVertical|0.06957234035569079|0.2283826628475976|-0.4706901715140519|0.849383293709234|0.4534628689289093|0.09680778533220291|-0.8860021233558655|0|0|0|-1|-1|3
2021-04-22 21:18:22.541 +0100|139035.5891817917|0.1939697265625|0.133941650390625|-0.62164306640625|139035.5841917917|-1.018715000601782|0.4529178400819873|-0.09904847756706184|0.504506528377533|-0.7902628183364868|-1.417330861091614|-0.2145304977893829|0.01833145320415497|0.2224643230438232|XArbitraryZVertical|0.06723305407089711|0.2193084753691878|-0.4842878445898897|0.8443038653481836|0.4354462921619415|0.09888660162687302|-0.8947670459747314|0|0|0|-1|-1|3
2021-04-22 21:18:22.561 +0100|139035.6091417917|0.2106781005859375|0.110260009765625|-0.607879638671875|139035.6041517917|-1.049276984298386|0.4363739225309803|-0.1025573967855709|0.5048395991325378|-0.5764955878257751|-1.485508680343628|-0.2312881946563721|0.03446311503648758|0.2886737585067749|XArbitraryZVertical|0.06497151504291712|0.2121664488015937|-0.4979844499855559|0.8383171971112643|0.4204351603984833|0.1023777052760124|-0.9015281796455383|0|0|0|-1|-1|3
2021-04-22 21:18:22.581 +0100|139035.6291017917|0.1766204833984375|0.2331390380859375|-0.541656494140625|139035.6241117917|-1.082007954215094|0.4219892595380336|-0.1040372594149054|0.7745420336723328|-0.5703989267349243|-1.541148900985718|-0.191435307264328|0.02696388214826584|0.3006687164306641|XArbitraryZVertical|0.06412978809610891|0.2054646150418346|-0.5122290179037716|0.831440404419526|0.4073614478111267|0.1038496792316437|-0.907343327999115|0|0|0|-1|-1|3
2021-04-22 21:18:22.601 +0100|139035.6490627917|0.2218170166015625|0.073333740234375|-0.66937255859375|139035.6440727917|-1.11826513446921|0.4062426268160886|-0.09940387928833926|1.083110928535461|-0.6412962675094604|-1.567622661590576|-0.2417062819004059|0.1196470111608505|0.3996573686599731|XArbitraryZVertical|0.06562446394989541|0.1966081329202757|-0.5274002099151417|0.823946423977429|0.393209844827652|0.0992402583360672|-0.9140773415565491|0|0|0|-1|-1|3
2021-04-22 21:18:22.621 +0100|139035.6690227917|0.22723388671875|-0.0574493408203125|-0.9862823486328125|139035.6640327917|-1.155551599807984|0.3850020069951894|-0.09253480690914843|0.9128872752189636|-1.116861939430237|-1.621665239334106|-0.1015858054161072|-0.07809017598628998|0.1527974009513855|XArbitraryZVertical|0.06634898395289239|0.1848824467765176|-0.5429123385556056|0.8164941721937246|0.3739542365074158|0.09240280836820602|-0.9228326082229614|0|0|0|-1|-1|3
2021-04-22 21:18:22.641 +0100|139035.6889827917|0.1048126220703125|-0.022491455078125|-1.06365966796875|139035.6839927917|-1.191962401158121|0.3546384719846647|-0.09163719511485395|0.466096043586731|-1.609451532363892|-1.740055084228516|-0.1421820521354675|-0.1466696858406067|-0.09265220165252686|XArbitraryZVertical|0.06159657603346824|0.1711348651350164|-0.5586260470265944|0.8092315831021596|0.3457943797111511|0.09150899946689606|-0.9338374137878418|0|0|0|-1|-1|3
2021-04-22 21:18:22.661 +0100|139035.7089427917|0.1282196044921875|-0.152252197265625|-1.034988403320312|139035.7039527917|-1.228094745225102|0.3149610311137019|-0.1003406493255004|-0.1394040584564209|-2.048239231109619|-1.94630765914917|-0.2287545204162598|-0.1457658112049103|-0.1143380999565125|XArbitraryZVertical|0.04976790928314606|0.1565572117392672|-0.5747624195784575|0.8016616173672222|0.3082212507724762|0.1001723557710648|-0.9460259675979614|0|0|0|-1|-1|3
2021-04-22 21:18:22.681 +0100|139035.7289037917|0.1357879638671875|-0.17620849609375|-1.026397705078125|139035.7239137917|-1.264919155871815|0.2659072244201761|-0.1210146779758481|-0.7967787384986877|-2.439289569854736|-2.174069404602051|-0.1255184412002563|-0.2790601849555969|-0.07429134845733643|XArbitraryZVertical|0.02987460582647539|0.142156294508171|-0.5913068044105076|0.7932563561385013|0.2608628869056702|0.1207195296883583|-0.957798182964325|0|0|0|-1|-1|3
2021-04-22 21:18:22.701 +0100|139035.7488637917|-0.0464630126953125|-0.016693115234375|-0.9434051513671875|139035.7438737917|-1.306359607137232|0.2079475095677394|-0.1533661296565614|-1.349279284477234|-2.763043880462646|-2.638076066970825|-0.08832243084907532|-0.3183695077896118|-0.0520254373550415|XArbitraryZVertical|0.002377180436395805|0.1284847468528197|-0.6089707870757788|0.7827137499601393|0.2040288299322128|0.152765616774559|-0.9669720530509949|0|0|0|-1|-1|3
2021-04-22 21:18:22.721 +0100|139035.7688237917|-0.1398162841796875|0.2082977294921875|-0.8429412841796875|139035.7638337917|-1.360208281807673|0.1433008925477597|-0.1902084868109359|-1.242608428001404|-2.809435129165649|-3.231984376907349|-0.2340473830699921|-0.1337203234434128|0.05147409439086914|XArbitraryZVertical|-0.02882627123872082|0.1149747901856325|-0.6297114696474121|0.7677326220037068|0.1402353197336197|0.189063623547554|-0.971899688243866|0|0|0|-1|-1|3
2021-04-22 21:18:22.741 +0100|139035.7887847917|-0.2882537841796875|0.16558837890625|-0.6417388916015625|139035.7837937917|-1.428555499362866|0.07203956679724287|-0.2165941313994095|-0.6477314233779907|-2.931135177612305|-3.698081970214844|-0.2410423755645752|0.01629620790481567|0.1733663082122803|XArbitraryZVertical|-0.05816057920682213|0.0978078856600261|-0.6537527278411058|0.7481032890328867|0.07029552757740021|0.2149045914411545|-0.9741019010543823|0|0|0|-1|-1|3
2021-04-22 21:18:22.761 +0100|139035.8087447917|-0.42620849609375|-0.02020263671875|-0.530731201171875|139035.8037547917|-1.506218209764568|-0.004904219180338637|-0.2277017844567141|-0.295091301202774|-3.052012205123901|-3.894448518753052|-0.3215173184871674|-0.1011822074651718|0.3807616829872131|XArbitraryZVertical|-0.08454833503541968|0.07591806269726785|-0.6792774302587283|0.725031279842936|-0.00477761123329401|0.2257392257452011|-0.9741760492324829|0|0|0|-1|-1|3
2021-04-22 21:18:22.781 +0100|139035.8287047917|-0.52520751953125|-0.19195556640625|-0.5662689208984375|139035.8237147917|-1.586941017141757|-0.08555556471962077|-0.2320010570641776|-0.5979951620101929|-3.173224925994873|-3.966902732849121|-0.3693232536315918|-0.2936161756515503|0.4322798252105713|XArbitraryZVertical|-0.1113808440797386|0.05263084225144189|-0.7038821211872132|0.6995530126194655|-0.08316183835268021|0.2299254238605499|-0.9696485996246338|0|0|0|-1|-1|3
2021-04-22 21:18:22.800 +0100|139035.8486647917|-0.63348388671875|-0.0672760009765625|-0.50201416015625|139035.8436747917|-1.67152001983307|-0.1700766974827109|-0.2385058916798439|-1.068686723709106|-3.314013242721558|-4.146735668182373|-0.3784725666046143|-0.4078978002071381|0.3873903155326843|XArbitraryZVertical|-0.1420534878538218|0.03137948389310383|-0.7270999340387894|0.6709410625553236|-0.1644665896892548|0.2362510710954666|-0.9576722979545593|0|0|0|-1|-1|3
2021-04-22 21:18:22.820 +0100|139035.8686257917|-0.7816925048828125|0.041229248046875|-0.4571685791015625|139035.8636357917|-1.762217545243161|-0.2592045383577375|-0.2430202733382148|-1.165626645088196|-3.420576095581055|-4.365496158599854|-0.4174652099609375|-0.2613421082496643|0.4674273133277893|XArbitraryZVertical|-0.1754457001838273|0.01109522152907615|-0.7493668914829945|0.6383925636763814|-0.2487801909446716|0.2406352460384369|-0.9381914138793945|0|0|0|-1|-1|3
2021-04-22 21:18:22.840 +0100|139035.8885857917|-0.8726654052734375|0.0204925537109375|-0.4603118896484375|139035.8835957917|-1.855515647454406|-0.3493532319832333|-0.2358182515030021|-0.8171611428260803|-3.37052059173584|-4.491618156433105|-0.480660617351532|-0.1988951563835144|0.4579622745513916|XArbitraryZVertical|-0.2075790305743429|-0.01077697792723877|-0.7703687389111354|0.6027659968700974|-0.3328167796134949|0.2336386740207672|-0.9135895967483521|0|0|0|-1|-1|3
2021-04-22 21:18:22.860 +0100|139035.9085457917|-0.95855712890625|-0.0224609375|-0.3684234619140625|139035.9035557917|-1.944352226344254|-0.4366016715581212|-0.2123790540180088|-0.355236142873764|-3.389309883117676|-4.41539192199707|-0.4704587459564209|-0.1995106637477875|0.4333192706108093|XArbitraryZVertical|-0.2362128653061345|-0.03586928498857873|-0.7890298717467432|0.5659936651203055|-0.4133615791797638|0.2107860893011093|-0.885833740234375|0|0|0|-1|-1|3
2021-04-22 21:18:22.880 +0100|139035.9285057917|-1.158981323242188|-0.1074066162109375|-0.246368408203125|139035.9235157917|-2.024818759225017|-0.5210140035382574|-0.1762127469597339|-0.1346308141946793|-3.562910079956055|-4.275640964508057|-0.5034943222999573|-0.2094065248966217|0.5201594829559326|XArbitraryZVertical|-0.2626480239020513|-0.06382700984160594|-0.8043085587939683|0.5291786510474664|-0.4900518953800201|0.1753022372722626|-0.8538842797279358|0|0|0|-1|-1|3
2021-04-22 21:18:22.900 +0100|139035.9484667917|-1.678359985351562|-0.1271820068359375|-0.216552734375|139035.9434767917|-2.098692362972481|-0.608327966315732|-0.1342929961703987|-0.3039530813694|-4.040853023529053|-4.177563667297363|-0.690241813659668|-0.2508034706115723|0.5805809497833252|XArbitraryZVertical|-0.2909956726722884|-0.09334569593455148|-0.8154215505487602|0.4916256795100994|-0.5663505792617798|0.1338897049427032|-0.8132162094116211|0|0|0|-1|-1|3
2021-04-22 21:18:22.920 +0100|139035.968427875|-2.242599487304688|-0.07183837890625|-0.245086669921875|139035.9634367917|-2.172799646830044|-0.6989809173478684|-0.09224822373251636|-0.8786288499832153|-4.107396602630615|-4.248085498809814|-1.199889898300171|-0.2114268839359283|0.5352845788002014|XArbitraryZVertical|-0.3228768108528928|-0.1209495589939826|-0.82322177651856|0.4510297063694425|-0.6407021284103394|0.09211744368076324|-0.7622435092926025|0|0|0|-1|-1|3
2021-04-22 21:18:22.940 +0100|139035.988387875|-2.49847412109375|-0.0528106689453125|-0.2141571044921875|139035.983397875|-2.252671463542996|-0.7840623381887023|-0.05165779403484077|-1.509153962135315|-3.864107608795166|-4.387202262878418|-1.624462127685547|-0.09817516803741455|0.4521169066429138|XArbitraryZVertical|-0.3550927110113407|-0.1426746947041191|-0.8298275517020646|0.4061271863744028|-0.705219566822052|0.05163482204079628|-0.7071061730384827|0|0|0|-1|-1|3
2021-04-22 21:18:22.960 +0100|139036.008347875|-2.625885009765625|-0.0736541748046875|0.0146331787109375|139036.003357875|-2.338316317890701|-0.8620144318747772|-0.01075292299399453|-1.965557813644409|-3.657611131668091|-4.399345874786377|-1.786573648452759|-0.07839599251747131|0.4705896377563477|XArbitraryZVertical|-0.3864434662088546|-0.1588253617963204|-0.8353548601134321|0.3572369773218173|-0.7591114640235901|0.01075271610170603|-0.6508719325065613|0|0|0|-1|-1|3
2021-04-22 21:18:22.980 +0100|139036.028308875|-2.532989501953125|-0.0555419921875|0.19427490234375|139036.023318875|-2.425148626086834|-0.9308359015680888|0.03022452677696661|-2.254680871963501|-3.340566158294678|-4.230433940887451|-1.820195436477661|-0.03801849484443665|0.6755503416061401|XArbitraryZVertical|-0.4155247215257954|-0.1699814719400753|-0.8391900812391467|0.3069295183742929|-0.8017531037330627|-0.03021992556750774|-0.5968909859657288|0|0|0|-1|-1|3
2021-04-22 21:18:23.000 +0100|139036.048268875|-2.376007080078125|-0.0366363525390625|0.235198974609375|139036.043278875|-2.511708626557589|-0.9912266804826553|0.07093649449576234|-2.503221750259399|-3.16771125793457|-4.082707405090332|-1.655182480812073|0.01574589312076569|0.7605202198028564|XArbitraryZVertical|-0.4422328406291065|-0.1768807351704638|-0.8411076498854662|0.2562840664035359|-0.8345942497253418|-0.07087701559066772|-0.5462866425514221|0|0|0|-1|-1|3
2021-04-22 21:18:23.020 +0100|139036.068228875|-2.249969482421875|0.043975830078125|0.201751708984375|139036.063238875|-2.599872881233945|-1.044771017389812|0.1123462128193352|-2.832398414611816|-3.002904891967773|-4.102071762084961|-1.486055493354797|0.09788770973682404|0.7259703874588013|XArbitraryZVertical|-0.4669811390733577|-0.1801701081527251|-0.8412132003766666|0.2045188782936711|-0.8593577742576599|-0.1121100261807442|-0.4989346861839294|0|0|0|-1|-1|3
2021-04-22 21:18:23.040 +0100|139036.088189875|-2.053909301757812|0.1317901611328125|0.226654052734375|139036.083198875|-2.694313406813426|-1.089394101926762|0.1562473212410892|-3.280527114868164|-2.717212200164795|-4.272634506225586|-1.337356328964233|0.2280447334051132|0.6642911434173584|XArbitraryZVertical|-0.4889102395999221|-0.1796545328796653|-0.8404098404069896|0.1496742306768204|-0.8755492568016052|-0.1556123495101929|-0.4573820531368256|0|0|0|-1|-1|3
2021-04-22 21:18:23.060 +0100|139036.108149875|-1.86749267578125|0.0520477294921875|0.2729339599609375|139036.103159875|-2.797464179993244|-1.122935701993179|0.201922335041421|-3.761893749237061|-2.504099369049072|-4.333359718322754|-1.109079241752625|0.3131617605686188|0.6651458740234375|XArbitraryZVertical|-0.5072883868823432|-0.1747525667697992|-0.8389162677776472|0.09132139204467152|-0.8830622434616089|-0.2005529850721359|-0.4242400527000427|0|0|0|-1|-1|3
2021-04-22 21:18:23.096 +0100|139036.128109875|-1.739974975585938|0.0321197509765625|0.2691192626953125|139036.123119875|-2.90852508646118|-1.146250594371083|0.2455887868062259|-4.184678554534912|-2.315649509429932|-4.191737174987793|-0.9498406648635864|0.2550740540027618|0.6754109263420105|XArbitraryZVertical|-0.5225615270575713|-0.1647900451949487|-0.8359507385146622|0.03098700489324733|-0.883884072303772|-0.2431274801492691|-0.3995473682880402|0|0|0|-1|-1|3
2021-04-22 21:18:23.100 +0100|139036.148069875|-1.758270263671875|0.139068603515625|0.185882568359375|139036.143079875|-3.023788139960052|-1.160727843807625|0.2857706326583996|-4.346220970153809|-2.11347222328186|-4.002432823181152|-0.8503847122192383|0.348134309053421|0.642345666885376|XArbitraryZVertical|-0.5347889474811356|-0.15082718729202|-0.8309020849526655|-0.02921869058506813|-0.8799005746841431|-0.2818969190120697|-0.3825038969516754|0|0|0|-1|-1|3
2021-04-22 21:18:23.120 +0100|139036.168030875|-1.719314575195312|0.199005126953125|-0.036529541015625|139036.163040875|-3.140473795007401|-1.164724478789839|0.3232298790785422|-4.390115261077881|-1.768500924110413|-3.854547262191772|-0.8750032782554626|0.4797240197658539|0.5165157318115234|XArbitraryZVertical|-0.5427558705843971|-0.1346921044384896|-0.8243318766627579|-0.0880403555623524|-0.8711052536964417|-0.3176308274269104|-0.3745481967926025|0|0|0|-1|-1|3
2021-04-22 21:18:23.140 +0100|139036.187990875|-1.593612670898438|0.07421875|-0.2378082275390625|139036.183000875|3.025132071774173|-1.155680453944185|0.3567238975866222|-4.503129959106445|-1.277004361152649|-3.629116535186768|-0.8389636874198914|0.5375903844833374|0.2878186106681824|XArbitraryZVertical|-0.545288488721592|-0.1170770231139537|-0.8173187040820545|-0.1447195164686468|-0.8574622869491577|-0.349206268787384|-0.377906858921051|0|0|0|-1|-1|3
2021-04-22 21:18:23.160 +0100|139036.207950875|-1.602157592773438|0.0653228759765625|-0.315521240234375|139036.202960875|2.903116936997377|-1.131167983651917|0.3815875975285739|-4.874061107635498|-0.6654205322265625|-3.347399711608887|-0.7503244280815125|0.4212979972362518|0.1213094294071198|XArbitraryZVertical|-0.5414938355499651|-0.09637769722876459|-0.8109803983312207|-0.1995161221279134|-0.8398239612579346|-0.3723943531513214|-0.3949915170669556|0|0|0|-1|-1|3
2021-04-22 21:18:23.180 +0100|139036.227910875|-1.66162109375|0.395965576171875|-0.26800537109375|139036.222920875|2.773777157498113|-1.087200079245992|0.3941319290927864|-5.266365528106689|0.2391105890274048|-3.13064980506897|-0.8020098209381104|0.509006142616272|0.1177474856376648|XArbitraryZVertical|-0.5293004221106679|-0.07198911498623604|-0.8066151005975883|-0.2530432546577832|-0.8174507021903992|-0.3840068280696869|-0.4293172657489777|0|0|0|-1|-1|3
2021-04-22 21:18:23.200 +0100|139036.247871875|-1.5997314453125|0.6382598876953125|-0.2824554443359375|139036.242881875|2.64371549314329|-1.021820248341405|0.3953235764220115|-5.040387153625488|1.239477872848511|-2.84270453453064|-0.8487516641616821|0.8645679354667664|0.2414241433143616|XArbitraryZVertical|-0.506875031005822|-0.04789459457535993|-0.8052917291168326|-0.3037914357418833|-0.7872645854949951|-0.3851068317890167|-0.4815676212310791|0|0|0|-1|-1|3
2021-04-22 21:18:23.219 +0100|139036.267831875|-1.463409423828125|0.7099151611328125|-0.53460693359375|139036.262841875|2.526716253152378|-0.9433385523704639|0.3846729988435453|-4.550111770629883|2.061520338058472|-2.203063249588013|-0.838777482509613|1.009166717529297|0.2334238290786743|XArbitraryZVertical|-0.4766136193541312|-0.02733066004832892|-0.8071028242643297|-0.3473869957126888|-0.7503637671470642|-0.3752560615539551|-0.5441849827766418|0|0|0|-1|-1|3
2021-04-22 21:18:23.239 +0100|139036.287791875|-1.305770874023438|0.9171600341796875|-0.875335693359375|139036.282801875|2.43002140333103|-0.8631127757865169|0.3595253222127685|-4.17994213104248|2.430265426635742|-1.439097166061401|-0.7202921509742737|1.101020812988281|-0.03005361557006836|XArbitraryZVertical|-0.4423404798480631|-0.008880343816369509|-0.8116604933983592|-0.3813965836906983|-0.711286723613739|-0.3518299460411072|-0.6085121035575867|0|0|0|-1|-1|3
2021-04-22 21:18:23.259 +0100|139036.307751875|-0.9155120849609375|1.183425903320312|-1.0760498046875|139036.302761875|2.350387228018064|-0.7852081600254666|0.3216376445498737|-3.910581111907959|2.616278171539307|-0.8824575543403625|-0.5530054569244385|1.311268091201782|-0.2701438665390015|XArbitraryZVertical|-0.4055022765227272|0.009019350262935787|-0.817946970390365|-0.4079821099868549|-0.6707181930541992|-0.3161206543445587|-0.6709731221199036|0|0|0|-1|-1|3
2021-04-22 21:18:23.279 +0100|139036.327712875|-0.6872711181640625|1.450942993164062|-1.058883666992188|139036.322722875|2.288104189551329|-0.7157940526184766|0.2753680820668234|-3.43266224861145|2.451414108276367|-0.3031638264656067|-0.2083642482757568|1.493122816085815|-0.3320993781089783|XArbitraryZVertical|-0.36908058743217|0.02659859122304397|-0.8246671190585039|-0.427780744844389|-0.6314939856529236|-0.2719011604785919|-0.7261440753936768|0|0|0|-1|-1|3
2021-04-22 21:18:23.299 +0100|139036.347672875|-0.86358642578125|1.680496215820312|-1.07135009765625|139036.342682875|2.249502704575391|-0.6606755509123018|0.2294792158106586|-2.459728479385376|2.149556398391724|0.3250462114810944|-0.09536772966384888|1.731391787528992|-0.2871364951133728|XArbitraryZVertical|-0.3374227188112685|0.04130807743914601|-0.8317515229918827|-0.4388953658270445|-0.5975635647773743|-0.2274704277515411|-0.7688791155815125|0|0|0|-1|-1|3
2021-04-22 21:18:23.319 +0100|139036.367632875|-1.041595458984375|1.6689453125|-1.122833251953125|139036.362642875|2.237045603541949|-0.6171043150991801|0.1904030379072084|-1.496285676956177|1.912019371986389|1.074742913246155|-0.337847888469696|1.887786626815796|-0.2852107882499695|XArbitraryZVertical|-0.3114889428003099|0.05064805622944554|-0.8404825584400012|-0.4404526816444375|-0.5682181715965271|-0.1892546713352203|-0.8008188009262085|0|0|0|-1|-1|3
2021-04-22 21:18:23.339 +0100|139036.387593875|-1.293853759765625|1.677719116210938|-1.012985229492188|139036.382602875|2.247227948941894|-0.5836487343512972|0.1515307349428133|-1.217147827148438|1.604709267616272|1.968358755111694|-0.5634720325469971|1.803905487060547|-0.2910106778144836|XArbitraryZVertical|-0.2900136626903514|0.05868785605159599|-0.8516529119017271|-0.4325914646841666|-0.5447576642036438|-0.1509515047073364|-0.8248956203460693|0|0|0|-1|-1|3
2021-04-22 21:18:23.359 +0100|139036.407553875|-1.5648193359375|1.772216796875|-0.8017730712890625|139036.402563875|2.276465916254088|-0.5590610502103104|0.1067390587296001|-0.9694904088973999|1.189947962760925|2.908198118209839|-0.8236709237098694|1.807219862937927|-0.1182686686515808|XArbitraryZVertical|-0.2716292280355738|0.06894327245896688|-0.865242148100049|-0.4157169359067755|-0.527371883392334|-0.1065364927053452|-0.8429287672042847|0|0|0|-1|-1|3
2021-04-22 21:18:23.379 +0100|139036.427513875|-1.870223999023438|1.97894287109375|-0.5632781982421875|139036.422523875|2.326882712780288|-0.5419146127657496|0.0604945627196847|-0.2624079883098602|0.9926779270172119|3.800979375839233|-1.144619703292847|1.872804880142212|0.1227026581764221|XArbitraryZVertical|-0.2571843674815288|0.07923634995880464|-0.8810610051883867|-0.3889851279519757|-0.5148337483406067|-0.06045767292380333|-0.8551555871963501|0|0|0|-1|-1|3
2021-04-22 21:18:23.399 +0100|139036.447473875|-2.259353637695312|2.40875244140625|-0.471527099609375|139036.442483875|2.401875037132246|-0.5262232152167235|0.02078121853992803|0.6776856780052185|0.9103373289108276|4.667598724365234|-1.430407881736755|2.066830396652222|0.3379574418067932|XArbitraryZVertical|-0.2461124742974904|0.08465752010640497|-0.8992655091981255|-0.3515443480841373|-0.5021626353263855|-0.02077972330152988|-0.8645235300064087|0|0|0|-1|-1|3
2021-04-22 21:18:23.419 +0100|139036.467434875|-2.8214111328125|3.30072021484375|-0.6980438232421875|139036.462444875|2.502880814318469|-0.5073665162243358|-0.00713105432035837|1.923773646354675|1.063832640647888|5.542039394378662|-1.89482593536377|2.577127695083618|0.4028130173683167|XArbitraryZVertical|-0.2371962570434578|0.08207003738149891|-0.9193258856224921|-0.3030554265634317|-0.4858648478984833|0.007130993995815516|-0.8740049004554749|0|0|0|-1|-1|3
2021-04-22 21:18:23.439 +0100|139036.487394875|-3.441650390625|4.321670532226562|-1.204299926757812|139036.482404875|2.634976547424701|-0.4797617693448241|-0.01884355035701975|3.356956005096436|1.632414817810059|6.691382884979248|-2.533828735351562|3.529512166976929|0.03390443325042725|XArbitraryZVertical|-0.227701473112835|0.06839830947071661|-0.9408879773248997|-0.241254167971111|-0.4614859223365784|0.01884243451058865|-0.8869473934173584|0|0|0|-1|-1|3
2021-04-22 21:18:23.459 +0100|139036.507354875|-3.550796508789062|4.145797729492188|-1.632247924804688|139036.502364875|2.806727098470618|-0.4374090520599751|-0.01737836376683398|4.148470878601074|2.195948362350464|9.004260063171387|-3.048423767089844|4.374772548675537|-0.3825081586837769|XArbitraryZVertical|-0.2125094738563108|0.04451970657288887|-0.9628061984488903|-0.1608168534687471|-0.4235299229621887|0.01737748831510544|-0.9057154655456543|0|0|0|-1|-1|3
2021-04-22 21:18:23.479 +0100|139036.527314875|-4.299331665039062|3.136611938476562|-2.245346069335938|139036.522324875|3.031984540592362|-0.3850879071437915|-0.03974853102053931|2.29590916633606|2.43980860710144|12.68636131286621|-3.322439908981323|3.933939695358276|-0.8419722318649292|XArbitraryZVertical|-0.1899629482183822|0.02995622214269602|-0.9800618574763981|-0.04995667975390022|-0.375343918800354|0.03973806649446487|-0.9260333776473999|0|0|0|-1|-1|3
2021-04-22 21:18:23.499 +0100|139036.547275875|-5.293914794921875|2.411087036132812|-2.945114135742188|139036.542285875|-2.97077838325006|-0.3149226109168001|-0.1353456371170733|-1.82119607925415|2.276751756668091|16.79137420654297|-4.216771125793457|2.735320806503296|-1.473738431930542|XArbitraryZVertical|-0.1615791803169352|0.05319525710122526|-0.9808717810764032|0.09462030326297255|-0.3069102168083191|0.1349328011274338|-0.9421248435974121|0|0|0|-1|-1|3
2021-04-22 21:18:23.519 +0100|139036.567235875|-6.766860961914062|4.44183349609375|-3.61285400390625|139036.562245875|-2.617325795557012|-0.2014612825223088|-0.2826392084578049|-2.291193723678589|1.56948983669281|20.25596618652344|-5.315864562988281|2.340141773223877|-2.215685606002808|XArbitraryZVertical|-0.132471923200022|0.109548956369408|-0.9476934432537691|0.2689379445100587|-0.1921617984771729|0.2788911163806915|-0.940900444984436|0|0|0|-1|-1|3
2021-04-22 21:18:23.539 +0100|139036.587195875|-10.682373046875|4.011550903320312|-4.132644653320312|139036.582205875|-2.179118916943988|-0.03136696893208001|-0.3206014527914269|2.86509108543396|2.79914402961731|20.46842384338379|-7.42026424407959|4.708085536956787|-2.791457176208496|XArbitraryZVertical|-0.08759629890617103|0.1343029368969811|-0.8737922878816166|0.4591043456208131|-0.02976381778717041|0.3151374161243439|-0.9485791921615601|0|0|0|-1|-1|3
2021-04-22 21:18:23.559 +0100|139036.607156875|-13.29380798339844|3.946197509765625|-2.802871704101562|139036.602165875|-1.767412750906891|0.1530735237867764|-0.1602048205499396|12.69522285461426|5.564238548278809|18.06183242797852|-11.52840900421143|2.012033462524414|-2.447490215301514|XArbitraryZVertical|0.008317624488440064|0.1100230918745236|-0.7722409532039134|0.6256754555101779|0.150523915886879|0.1595204025506973|-0.9756514430046082|0|0|0|-1|-1|3
2021-04-22 21:18:23.579 +0100|139036.627116875|-11.82321166992188|-0.661651611328125|-0.0152740478515625|139036.622126875|-1.50532984927064|0.3311960005720878|0.1648354099094929|11.37808513641357|11.43454837799072|14.99793720245361|-13.34753131866455|1.200725793838501|-0.7790323495864868|XArbitraryZVertical|0.1715654662897543|0.06439894389924003|-0.6620413844738935|0.7267182359832246|0.3207666575908661|-0.1640899777412415|-0.93283611536026|0|0|0|-1|-1|3
2021-04-22 21:18:23.599 +0100|139036.647076875|-7.84979248046875|-1.964431762695312|1.806060791015625|139036.642086875|-1.321347384260039|0.5375674783670313|0.4368651145926222|6.222984790802002|13.78576755523682|12.72675037384033|-11.52206420898438|-0.9102579951286316|1.481883406639099|XArbitraryZVertical|0.3240458296364976|0.0764946062083067|-0.5321202748442401|0.7784543104455846|0.463957816362381|-0.4231010973453522|-0.7782857418060303|0|0|0|-1|-1|3
2021-04-22 21:18:23.619 +0100|139036.667036875|-5.054168701171875|-2.273345947265625|1.945404052734375|139036.662046875|-1.165351206257864|0.7262609656255813|0.6360091457010768|2.283626317977905|12.8018684387207|9.768576622009277|-7.702126502990723|-1.559880256652832|2.501391172409058|XArbitraryZVertical|0.4297075451804655|0.1208896123019724|-0.3958512065978827|0.8025205192999669|0.5342332720756531|-0.5939896702766418|-0.6014742255210876|0|0|0|-1|-1|3
2021-04-22 21:18:23.639 +0100|139036.686997875|-3.662109375|-1.254470825195312|1.7537841796875|139036.682007875|-1.038207697418853|0.8757848401878372|0.7690094059533296|0.3755158483982086|10.18220233917236|6.546779632568359|-5.077553749084473|-1.501491069793701|2.352901935577393|XArbitraryZVertical|0.4899597759561872|0.1727591749381873|-0.2783870977357806|0.8078332432998162|0.5519181489944458|-0.6954237222671509|-0.4601873755455017|0|0|0|-1|-1|3
2021-04-22 21:18:23.659 +0100|139036.706957875|-3.181396484375|-0.63995361328125|1.944168090820312|139036.701967875|-0.9514781559469998|0.9950021629368366|0.8513703157254884|-0.2738708555698395|8.319263458251953|3.558729887008667|-4.208603382110596|-0.2103403806686401|2.108738899230957|XArbitraryZVertical|0.521653462920547|0.220175581336511|-0.1913714749817271|0.8017340971957556|0.5527037382125854|-0.7521840929985046|-0.3588007688522339|0|0|0|-1|-1|3
2021-04-22 21:18:23.679 +0100|139036.726917875|-2.14404296875|-0.8695068359375|1.781219482421875|139036.721927875|-0.9004487755743961|1.105245334515863|0.8904571963809647|-0.5318958759307861|6.592677116394043|1.578038334846497|-3.426687479019165|0.1273656487464905|2.219159841537476|XArbitraryZVertical|0.5361919694738306|0.2670235985343645|-0.1307470711901131|0.7900011435529113|0.5621089339256287|-0.7773594260215759|-0.2823931276798248|0|0|0|-1|-1|3
2021-04-22 21:18:23.699 +0100|139036.746877875|-1.471389770507812|-1.4666748046875|1.532791137695312|139036.741887875|-0.8661011281444438|1.192855611615075|0.9002084134114496|-1.14087963104248|4.885755062103271|0.3175055682659149|-2.533827304840088|-0.2666839361190796|1.959267377853394|XArbitraryZVertical|0.538951166234509|0.3080136421810689|-0.09079904986526487|0.7787265240040282|0.5775892734527588|-0.7834564447402954|-0.2293184697628021|0|0|0|-1|-1|3
2021-04-22 21:18:23.719 +0100|139036.766838875|-1.03338623046875|-1.376571655273438|1.085067749023438|139036.761848875|-0.8148288681749494|1.232552782329443|0.8875069152707141|-2.313598871231079|3.064506053924561|-0.3301121890544891|-1.927712917327881|-0.7297182679176331|1.651561856269836|XArbitraryZVertical|0.5285172174981924|0.3404692589769872|-0.06418412953547015|0.7750037043522972|0.5955747365951538|-0.7755001783370972|-0.2095004618167877|0|0|0|-1|-1|3
2021-04-22 21:18:23.739 +0100|139036.786798875|-0.885772705078125|-1.093521118164062|0.6854248046875|139036.781808875|-0.7399270380936721|1.218967725387964|0.8590846271985662|-3.066978216171265|1.451915264129639|-0.7398008108139038|-1.589639782905579|-0.5542935729026794|1.21052086353302|XArbitraryZVertical|0.5065476579341547|0.3617597115703539|-0.04727613164535303|0.7812199001066402|0.6131229996681213|-0.7572450041770935|-0.2250787615776062|0|0|0|-1|-1|3
2021-04-22 21:18:23.759 +0100|139036.806758875|-0.734527587890625|-0.79254150390625|0.39154052734375|139036.801768875|-0.6624321434920032|1.180052235253399|0.8179216893799577|-3.148794889450073|0.4908527135848999|-1.234508872032166|-1.490464329719543|-0.2806950807571411|0.8519110679626465|XArbitraryZVertical|0.4784747910888721|0.3753021815838501|-0.03870492834800907|0.7929137400203272|0.6322031617164612|-0.7297263741493225|-0.2604202926158905|0|0|0|-1|-1|3
2021-04-22 21:18:23.779 +0100|139036.826719875|-0.56402587890625|-0.6917266845703125|0.1791229248046875|139036.821728875|-0.6011619533272747|1.139216729537974|0.7668885144168618|-2.737300872802734|-0.1540990620851517|-1.724716067314148|-1.343667984008789|-0.05640673637390137|0.6366898417472839|XArbitraryZVertical|0.449001808486598|0.3844370948998614|-0.03850670666625689|0.8056815173000946|0.654046893119812|-0.69389808177948|-0.3012109994888306|0|0|0|-1|-1|3
2021-04-22 21:18:23.798 +0100|139036.846679875|-0.381561279296875|-0.670806884765625|0.0464019775390625|139036.841689875|-0.564984227893679|1.107668480308901|0.7122129657098402|-2.056220769882202|-0.5477098822593689|-2.063761234283447|-1.19582986831665|-0.01886779069900513|0.4646158516407013|XArbitraryZVertical|0.422171097600254|0.3907628590361552|-0.04611287057315313|0.8166698296028569|0.6771835088729858|-0.6535103917121887|-0.3381519019603729|0|0|0|-1|-1|3
2021-04-22 21:18:23.818 +0100|139036.866639875|-0.2328948974609375|-0.6555023193359375|-0.075775146484375|139036.861649875|-0.5502492926200839|1.084039313176032|0.6572056190979606|-1.526930928230286|-0.8320601582527161|-2.293400526046753|-1.043103218078613|-0.06878018379211426|0.3802456557750702|XArbitraryZVertical|0.3987128945632665|0.3947959631538872|-0.06005616086992612|0.8255649498509999|0.699749767780304|-0.6109068989753723|-0.3703283369541168|0|0|0|-1|-1|3
