loggingTime(txt)|accelerometerTimestamp_sinceReboot(s)|accelerometerAccelerationX(G)|accelerometerAccelerationY(G)|accelerometerAccelerationZ(G)|motionTimestamp_sinceReboot(s)|motionYaw(rad)|motionRoll(rad)|motionPitch(rad)|motionRotationRateX(rad/s)|motionRotationRateY(rad/s)|motionRotationRateZ(rad/s)|motionUserAccelerationX(G)|motionUserAccelerationY(G)|motionUserAccelerationZ(G)|motionAttitudeReferenceFrame(txt)|motionQuaternionX(R)|motionQuaternionY(R)|motionQuaternionZ(R)|motionQuaternionW(R)|motionGravityX(G)|motionGravityY(G)|motionGravityZ(G)|motionMagneticFieldX(µT)|motionMagneticFieldY(µT)|motionMagneticFieldZ(µT)|motionHeading(°)|motionMagneticFieldCalibrationAccuracy(Z)|label
2021-04-08 20:50:56.082 +0100|21216.40672741667|-0.2771453857421875|-0.07611083984375|-0.91876220703125|21216.38676841667|0.1994622018866488|-0.2727837252845657|0.08875202656575719|-0.1310799270868301|-0.06811192631721497|-0.05245078727602959|-0.104892760515213|0.04406566917896271|0.04974949359893799|XArbitraryZVertical|0.05725565434687604|-0.1307846763763923|0.09254225217027817|0.985420350772657|-0.2683528959751129|-0.08863555639982224|-0.9592342972755432|0|0|0|-1|-1|3
2021-04-08 20:50:56.093 +0100|21216.42668641667|-0.2436981201171875|-0.055450439453125|-0.944488525390625|21216.40672741667|0.197199779270335|-0.2747938340400369|0.08688634897313936|-0.1060519590973854|-0.1326133608818054|-0.09000500291585922|0.05342084169387817|0.01304764300584793|0.01121866703033447|XArbitraryZVertical|0.05628141278782028|-0.131936257487984|0.09150104863414335|0.9854201912548121|-0.2703249156475067|-0.08677706867456436|-0.9588504433631897|0|0|0|-1|-1|3
2021-04-08 20:50:56.095 +0100|21216.44664641667|-0.28521728515625|-0.04156494140625|-0.9688873291015625|21216.42668641667|0.1949591694027041|-0.2759524535389178|0.08534938728161645|-0.05317617580294609|-0.095704086124897|-0.09674261510372162|0.0260489284992218|0.01128748804330826|0.02368152141571045|XArbitraryZVertical|0.05542950872318542|-0.1326486691927309|0.09047277260119926|0.9854677749931073|-0.2714717090129852|-0.08524580299854279|-0.9586638212203979|0|0|0|-1|-1|3
2021-04-08 20:50:56.113 +0100|21216.46660541667|-0.2779083251953125|-0.0318450927734375|-0.994598388671875|21216.44664641667|0.1930479565981266|-0.2761908954487376|0.08511890014580968|-0.01611115038394928|-0.03964091837406158|-0.07776760309934616|-0.02144664525985718|0.04116342961788177|0.004440069198608398|XArbitraryZVertical|0.05519994888085933|-0.1328307364885617|0.08954066163939375|0.9855412853453221|-0.2717056274414062|-0.0850161537528038|-0.9586179256439209|0|0|0|-1|-1|3
2021-04-08 20:50:56.132 +0100|21216.48656441667|-0.26739501953125|-0.040771484375|-0.989013671875|21216.46660541667|0.1917350049749922|-0.2784759326141807|0.08475140356586204|-0.01973058469593525|-0.05039487406611443|-0.05246561393141747|-0.002021133899688721|0.05045606195926666|-0.03510898351669312|XArbitraryZVertical|0.05503339552303835|-0.1340114037934066|0.08885673435394202|0.9854526660149528|-0.2739039659500122|-0.08464998006820679|-0.9580245614051819|0|0|0|-1|-1|3
2021-04-08 20:50:56.152 +0100|21216.50652441667|-0.2586212158203125|-0.029510498046875|-0.9598236083984375|21216.48656441667|0.1908148929959802|-0.2779377806507741|0.08490475059490019|-0.02309891767799854|-0.04579836502671242|-0.01904720440506935|0.002479821443557739|0.05184482038021088|-0.03192245960235596|XArbitraryZVertical|0.05502343313646688|-0.1337638661142918|0.08840728681398552|0.9855271805609123|-0.2733848094940186|-0.0848027765750885|-0.958159327507019|0|0|0|-1|-1|3
2021-04-08 20:50:56.172 +0100|21216.52648341667|-0.2596588134765625|-0.0411529541015625|-0.9536895751953125|21216.50652441667|0.1907771002581558|-0.2792351091723965|0.08499488824993313|0.01673274859786034|-0.05811809375882149|0.01107936166226864|0.01995590329170227|0.05848065763711929|-0.01145702600479126|XArbitraryZVertical|0.05512258661709712|-0.1343996371953273|0.08834653343824315|0.9854406356518352|-0.2746255099773407|-0.08489258587360382|-0.9577964544296265|0|0|0|-1|-1|3
2021-04-08 20:50:56.192 +0100|21216.54644241667|-0.2880859375|-0.0263824462890625|-0.939788818359375|21216.52648341667|0.191460198590805|-0.2806708803995105|0.08424706335899436|0.007317094597965479|-0.07800189405679703|0.05250589549541473|0.01944094896316528|0.04520803689956665|0.0005222558975219727|XArbitraryZVertical|0.05486413247138869|-0.135125730913971|0.08869698445475079|0.9853243398939566|-0.2760179042816162|-0.08414743840694427|-0.957461953163147|0|0|0|-1|-1|3
2021-04-08 20:50:56.212 +0100|21216.56640241667|-0.299407958984375|-0.043060302734375|-0.952056884765625|21216.54644241667|0.1927977291488736|-0.2817556249469885|0.08342733282964923|0.04906512424349785|-0.0313715934753418|0.0715571716427803|-0.007562428712844849|0.053378626704216|0.01943802833557129|XArbitraryZVertical|0.05459961357809982|-0.1356648000989551|0.08938496895441971|0.9852027328606108|-0.2770754396915436|-0.08333058655261993|-0.957227885723114|0|0|0|-1|-1|3
2021-04-08 20:50:56.232 +0100|21216.58636141667|-0.282012939453125|-0.06744384765625|-0.974090576171875|21216.56640241667|0.1946396418064428|-0.2818523980128572|0.08305408513105171|0.06786762177944183|0.01015188172459602|0.08688250929117203|-0.02313193678855896|0.03260566294193268|0.008927702903747559|XArbitraryZVertical|0.05454526540873385|-0.1356811472526543|0.09031642407474952|0.9851185530973006|-0.277176707983017|-0.08295863121747971|-0.9572308659553528|0|0|0|-1|-1|3
2021-04-08 20:50:56.256 +0100|21216.60632041667|-0.2672882080078125|-0.0678558349609375|-0.9742584228515625|21216.58636141667|0.1965236647611011|-0.2813841214792018|0.08250148148814329|0.006035048514604568|-0.001494442112743855|0.08192840963602066|-0.01030763983726501|0.02700428664684296|-0.0145193338394165|XArbitraryZVertical|0.05437982383400279|-0.1354274725753099|0.09129680773215973|0.9850722809693669|-0.2767411172389984|-0.08240792155265808|-0.9574044942855835|0|0|0|-1|-1|3
2021-04-08 20:50:56.272 +0100|21216.62628041667|-0.26959228515625|-0.0580902099609375|-0.9618072509765625|21216.60632041667|0.1978092762198325|-0.2816522133977746|0.08037223524592801|-0.0853257030248642|-0.04897120222449303|0.08521591126918793|0.006797105073928833|0.01294973492622375|-0.01732635498046875|XArbitraryZVertical|0.05343173373545877|-0.1356345868307948|0.09207551900469628|0.9850230916000442|-0.2770459055900574|-0.08028573542833328|-0.9574966430664062|0|0|0|-1|-1|3
2021-04-08 20:50:56.292 +0100|21216.64623941667|-0.293304443359375|-0.0416107177734375|-0.944305419921875|21216.62628041667|0.1989707295754705|-0.2831499908357474|0.077156686301166|-0.08975522965192795|-0.08266327530145645|0.09925413876771927|0.01016315817832947|0.01040028035640717|-0.008145809173583984|XArbitraryZVertical|0.05199815803311646|-0.1365079861081748|0.0928392237078908|0.9849074429173278|-0.278550386428833|-0.07708015292882919|-0.9573235511779785|0|0|0|-1|-1|3
2021-04-08 20:50:56.312 +0100|21216.66619941667|-0.3109283447265625|-0.02606201171875|-0.9499969482421875|21216.64623941667|0.2009377516419282|-0.2850443481689264|0.07536705171189248|0.05018454790115356|-0.04418241232633591|0.1144488081336021|-0.004724383354187012|0.02724683284759521|0.009659409523010254|XArbitraryZVertical|0.05134106146717831|-0.137483100481196|0.09388817253846747|0.9847069120552698|-0.2804017663002014|-0.07529572397470474|-0.9569249749183655|0|0|0|-1|-1|3
2021-04-08 20:50:56.332 +0100|21216.68615841667|-0.2874908447265625|-0.087646484375|-0.9850311279296875|21216.66619941667|0.2039841013780229|-0.2854027999542207|0.07675971481675704|0.1932184547185898|0.04188840091228485|0.1140471994876862|-0.02787920832633972|0.05974813550710678|0.0153166651725769|XArbitraryZVertical|0.05225230123342686|-0.1375073263766537|0.09527759086234751|0.9845221112702951|-0.2807149589061737|-0.07668435573577881|-0.9567228555679321|0|0|0|-1|-1|3
2021-04-08 20:50:56.352 +0100|21216.70611741667|-0.27960205078125|-0.11468505859375|-0.97723388671875|21216.68615841667|0.2070570911949598|-0.2847761935006362|0.0792973614762309|0.1207500770688057|0.009148028679192066|0.09899172931909561|-0.00947609543800354|-0.001305311918258667|-0.02330219745635986|XArbitraryZVertical|0.05368077207641291|-0.1369817788494057|0.09662260457131852|0.9843874392535117|-0.2800598442554474|-0.07921428233385086|-0.9567087292671204|0|0|0|-1|-1|3
2021-04-08 20:50:56.372 +0100|21216.72607741667|-0.293182373046875|-0.0986175537109375|-0.961669921875|21216.70611741667|0.2089530713632316|-0.2851375221750222|0.0794157555306671|-0.03479782119393349|-0.06611929088830948|0.07885761559009552|-0.004723280668258667|-0.0225953608751297|-0.02541136741638184|XArbitraryZVertical|0.05388642886573684|-0.1371022205054193|0.09753742945959339|0.9842691660471231|-0.2804028689861298|-0.07933230698108673|-0.9565984606742859|0|0|0|-1|-1|3
2021-04-08 20:50:56.392 +0100|21216.74603641667|-0.32989501953125|-0.0298309326171875|-0.9366607666015625|21216.72607741667|0.209924869175679|-0.2874087684165265|0.07669770796442016|-0.1041275709867477|-0.1433482021093369|0.077057845890522|-0.001911401748657227|-0.0397399514913559|-0.008147239685058594|XArbitraryZVertical|0.05272850944927945|-0.1383419893967553|0.09815323929472108|0.9840972534580625|-0.2826348841190338|-0.07662253081798553|-0.9561623930931091|0|0|0|-1|-1|3
2021-04-08 20:50:56.412 +0100|21216.76599541667|-0.3249969482421875|-0.06402587890625|-0.9622650146484375|21216.74603641667|0.2111369068534231|-0.2900817513111071|0.07461849713576689|0.05105720087885857|-0.0622774176299572|0.06881517916917801|-0.0430891215801239|0.0381428450345993|0.02371513843536377|XArbitraryZVertical|0.05192264048191409|-0.1397390183188115|0.09883234846372546|0.9838746758207971|-0.2852346301078796|-0.07454927265644073|-0.9555540680885315|0|0|0|-1|-1|3
2021-04-08 20:50:56.432 +0100|21216.78595541667|-0.309600830078125|-0.0953521728515625|-0.978363037109375|21216.76599541667|0.2130950827616064|-0.2909943627041333|0.07558810688188097|0.1100460812449455|-0.003549976507201791|0.07908202707767487|-0.03865224123001099|0.01002646237611771|-0.001441299915313721|XArbitraryZVertical|0.05258130813838643|-0.1400834008112264|0.09970007743611124|0.9837031767255497|-0.2860856950283051|-0.07551614940166473|-0.9552236795425415|0|0|0|-1|-1|3
2021-04-08 20:50:56.452 +0100|21216.80591441667|-0.300323486328125|-0.1158447265625|-0.952178955078125|21216.78595541667|0.2151185033815723|-0.2907678615975114|0.07751204893186113|0.07549380511045456|0.01277541555464268|0.06487006694078445|-0.02903833985328674|-0.002276420593261719|-0.01879042387008667|XArbitraryZVertical|0.05365665625073406|-0.1398113291066176|0.1005588518801793|0.9835964088241805|-0.2858271598815918|-0.07743445783853531|-0.9551475048065186|0|0|0|-1|-1|3
2021-04-08 20:50:56.472 +0100|21216.82587341667|-0.298126220703125|-0.112396240234375|-0.9254302978515625|21216.80591441667|0.2161489775354195|-0.2907172810166407|0.07845216982499993|-0.03579865023493767|-0.01302630268037319|0.03291799128055573|-0.01357424259185791|-0.0345270186662674|-0.00445711612701416|XArbitraryZVertical|0.05418788428464698|-0.1397060270198227|0.1009973920430844|0.9835372728366006|-0.285757839679718|-0.07837171852588654|-0.9550917744636536|0|0|0|-1|-1|3
2021-04-08 20:50:56.492 +0100|21216.84583341667|-0.3314666748046875|-0.060516357421875|-0.9051513671875|21216.82587341667|0.2161416864746048|-0.2919356555195532|0.0764255852331301|-0.0780327245593071|-0.04733053222298622|0.01263935305178165|-0.0109160840511322|-0.04609952867031097|0.02598381042480469|XArbitraryZVertical|0.05325358398823218|-0.1404190804861634|0.1011113773630618|0.9834750427369039|-0.2869664132595062|-0.07635121047496796|-0.9548930525779724|0|0|0|-1|-1|3
2021-04-08 20:50:56.512 +0100|21216.86579241667|-0.3100738525390625|-0.107513427734375|-0.94580078125|21216.84583341667|0.2160587595013905|-0.2928646381929214|0.07551628247870906|0.02347888611257076|0.02711930498480797|-0.007450646720826626|-0.04292237758636475|0.02448121458292007|0.06084758043289185|XArbitraryZVertical|0.05284812949942232|-0.1409290507681348|0.1011135967780432|0.9834237823588433|-0.2878732979297638|-0.07544452697038651|-0.9546921849250793|0|0|0|-1|-1|3
2021-04-08 20:50:56.532 +0100|21216.88575141667|-0.3277740478515625|-0.127960205078125|-0.9614410400390625|21216.86579241667|0.2159576070837986|-0.2927162977354295|0.07565085231567613|-0.01272057928144932|0.02475329861044884|-0.01815690845251083|-0.02596181631088257|-0.02711189538240433|0.01347148418426514|XArbitraryZVertical|0.05289960034725716|-0.1408512508377678|0.1010577623715969|0.9834378501795409|-0.2877287268638611|-0.0755787119269371|-0.9547250866889954|0|0|0|-1|-1|3
2021-04-08 20:50:56.552 +0100|21216.90571141667|-0.342041015625|-0.2178802490234375|-0.919830322265625|21216.88575141667|0.2151154989351489|-0.2922135500813308|0.07584660731702515|-0.0747615247964859|0.0163977388292551|-0.04518000409007072|-0.03459432721138|-0.04068012535572052|-0.004983365535736084|XArbitraryZVertical|0.05291112937626759|-0.140615350535841|0.1006423938266035|0.9835136753774096|-0.287244439125061|-0.07577390968799591|-0.9548554420471191|0|0|0|-1|-1|3
2021-04-08 20:50:56.572 +0100|21216.92567041667|-0.4021148681640625|-0.2680816650390625|-0.7779693603515625|21216.90571141667|0.2128144001795051|-0.2926871487872957|0.0733526962198699|-0.3515535593032837|-0.07102611660957336|-0.07308336347341537|-0.04231300950050354|-0.1305084228515625|0.02647632360458374|XArbitraryZVertical|0.05154780450267109|-0.1410467361695579|0.09968382632098625|0.9836218159282046|-0.287750244140625|-0.07328693568706512|-0.9548972845077515|0|0|0|-1|-1|3
2021-04-08 20:50:56.592 +0100|21216.94562941667|-0.423828125|-0.334930419921875|-0.7342681884765625|21216.92567041667|0.2072592970789467|-0.2947032718870054|0.06207478798594195|-0.903785765171051|-0.06221994757652283|-0.1453849077224731|-0.1052760183811188|-0.1985688805580139|0.1446969509124756|XArbitraryZVertical|0.04571170514918525|-0.1427856514688291|0.09774228306824112|0.9838543678350841|-0.2898965179920197|-0.06203493103384972|-0.9550454020500183|0|0|0|-1|-1|3
2021-04-08 20:50:56.612 +0100|21216.96558941667|-0.3423004150390625|-0.381866455078125|-0.7589569091796875|21216.94562941667|0.196465847976645|-0.2954509494200168|0.03948062845484301|-1.654354572296143|-0.06367088854312897|-0.1831179857254028|-0.1374770402908325|-0.2653381526470184|0.2359090447425842|XArbitraryZVertical|0.03386264090081394|-0.1445357999416742|0.09409655849308783|0.9844331931397263|-0.2909443974494934|-0.0394703708589077|-0.955925464630127|0|0|0|-1|-1|3
2021-04-08 20:50:56.632 +0100|21216.98554841667|-0.4015655517578125|-0.306488037109375|-0.723602294921875|21216.96558941667|0.1784367068271469|-0.2983304650567408|-0.003107764486491311|-2.977390766143799|-0.2825227975845337|-0.356444239616394|-0.08643284440040588|-0.4036346673965454|0.2077619433403015|XArbitraryZVertical|0.01171086226747333|-0.1481583301762238|0.0883405205016282|0.9849406473248302|-0.293923407793045|0.003107759403064847|-0.9558239579200745|0|0|0|-1|-1|3
2021-04-08 20:50:56.651 +0100|21217.00550741667|-0.51123046875|-0.0587005615234375|-0.644805908203125|21216.98554841667|0.1480844532961511|-0.3090234661449853|-0.06785217611134793|-3.808527231216431|-0.6117147207260132|-0.4610183238983154|-0.0793842077255249|-0.5065503120422363|0.1914822459220886|XArbitraryZVertical|-0.02204569523215174|-0.1558669698495358|0.0782570894827377|0.984426494995631|-0.3034286797046661|0.0678001269698143|-0.9504389762878418|0|0|0|-1|-1|3
2021-04-08 20:50:56.671 +0100|21217.02546741667|-0.469268798828125|-0.12396240234375|-0.5801849365234375|21217.00550741667|0.1135421211558114|-0.3230982536425523|-0.1366137821372748|-3.809890985488892|-0.4584810733795166|-0.6483491063117981|-0.2049228549003601|-0.1846196204423904|0.2997578382492065|XArbitraryZVertical|-0.05815125268750249|-0.1640360413835162|0.06683191462290169|0.9824685042771579|-0.3145477771759033|0.1361892372369766|-0.9394212365150452|0|0|0|-1|-1|3
2021-04-08 20:50:56.691 +0100|21217.04542641667|-0.47705078125|0.0154266357421875|-0.3968658447265625|21217.02546741667|0.07275510103612647|-0.3407927930869628|-0.207121227326661|-4.242581367492676|-0.641011118888855|-0.8723933696746826|-0.1439942419528961|-0.2944181561470032|0.3332351446151733|XArbitraryZVertical|-0.09567682331595527|-0.1722581890829669|0.05316889002323656|0.9789515964375595|-0.3270907998085022|0.205643504858017|-0.9223461151123047|0|0|0|-1|-1|3
2021-04-08 20:50:56.711 +0100|21217.06538641667|-0.443572998046875|0.1034393310546875|-0.34991455078125|21217.04542641667|0.02232972723571562|-0.3704238874849829|-0.2828126915165129|-4.578283309936523|-1.024103879928589|-1.14644181728363|-0.1001706421375275|-0.2621652483940125|0.4398209452629089|XArbitraryZVertical|-0.136481040765222|-0.1838519822373069|0.03681650445643234|0.9727363162911554|-0.3476294875144958|0.2790577113628387|-0.8951427340507507|0|0|0|-1|-1|3
2021-04-08 20:50:56.732 +0100|21217.08534541667|-0.69708251953125|0.5196380615234375|-0.2935028076171875|21217.06538641667|-0.03817805977957479|-0.413823764366432|-0.3558068810931322|-4.152487754821777|-1.431864619255066|-1.376768708229065|-0.0761372447013855|-0.3572417497634888|0.4787266254425049|XArbitraryZVertical|-0.1770197262411582|-0.1988534578807392|0.01796323845432438|0.9637420764039378|-0.3769271969795227|0.3483468294143677|-0.8582426309585571|0|0|0|-1|-1|3
2021-04-08 20:50:56.759 +0100|21217.10530441667|-0.440643310546875|0.2200164794921875|-0.5038604736328125|21217.08534541667|-0.1022763926660323|-0.4648736259356798|-0.4060693076622841|-2.954178094863892|-0.9851258397102356|-1.928924441337585|-0.2039000689983368|0.04816052317619324|0.5527718663215637|XArbitraryZVertical|-0.2074961350990457|-0.2152930001492135|-0.00233203475617873|0.9542478453494321|-0.411853551864624|0.3950013518333435|-0.8211885690689087|0|0|0|-1|-1|3
2021-04-08 20:50:56.771 +0100|21217.12526441667|-0.649688720703125|-0.1350860595703125|-0.490020751953125|21217.10530441667|-0.1698901434668989|-0.5111438094891025|-0.4303437080885414|-2.380520105361938|-1.070895075798035|-2.324361324310303|-0.04964408278465271|-0.1331857740879059|0.3029011487960815|XArbitraryZVertical|-0.2267888357232332|-0.2285518099727278|-0.02641241468675602|0.9463790527337314|-0.4445733726024628|0.4171831905841827|-0.7926617860794067|0|0|0|-1|-1|3
2021-04-08 20:50:56.791 +0100|21217.14522341667|-0.631195068359375|-0.2209930419921875|-0.4138336181640625|21217.12526441667|-0.2489036332132645|-0.5703906824914539|-0.4484553332538359|-3.069092512130737|-1.344743728637695|-2.761502742767334|-0.1531568169593811|-0.4876505136489868|0.2673128843307495|XArbitraryZVertical|-0.2457708892588504|-0.2456942451556727|-0.05406063233347633|0.9361135058572452|-0.4865684509277344|0.4335741102695465|-0.7584620118141174|0|0|0|-1|-1|3
2021-04-08 20:50:56.812 +0100|21217.16518241667|-1.114776611328125|0.10894775390625|-0.4416351318359375|21217.14522341667|-0.3523484498581096|-0.6440787728209814|-0.4783884837106699|-4.571745872497559|-1.4492027759552|-3.029830694198608|-0.04257017374038696|-0.7182220220565796|0.3151690363883972|XArbitraryZVertical|-0.2751537612275418|-0.2633422254501354|-0.0876960237486106|0.9204622528714774|-0.533052921295166|0.4603491723537445|-0.7098825573921204|0|0|0|-1|-1|3
2021-04-08 20:50:56.831 +0100|21217.18514241667|-1.178482055664062|0.952117919921875|-0.150054931640625|21217.16518241667|-0.4817361542826814|-0.7330999340594472|-0.5174414436442258|-5.383248329162598|-1.341652512550354|-3.118993759155273|-0.4009562730789185|-0.540617048740387|0.2562967538833618|XArbitraryZVertical|-0.3146014837801885|-0.2794902557247766|-0.1262405605040145|0.8983177001151811|-0.5815730094909668|0.4946581423282623|-0.6458222270011902|0|0|0|-1|-1|3
2021-04-08 20:50:56.851 +0100|21217.20510141667|-1.164138793945312|0.7739105224609375|-0.279693603515625|21217.18514241667|-0.6020266800442301|-0.8083307476288666|-0.5355259940821094|-2.936787366867065|-0.07888057082891464|-3.131676912307739|-0.576987087726593|0.3417882323265076|0.4365076422691345|XArbitraryZVertical|-0.3447601092055212|-0.2900630155700193|-0.1635200496169975|0.8776475095650246|-0.6218965649604797|0.5102934837341309|-0.5940078496932983|0|0|0|-1|-1|3
2021-04-08 20:50:56.871 +0100|21217.22506041667|-0.9824981689453125|0.5693511962890625|-0.636474609375|21217.20510141667|-0.6768787555960597|-0.8340050653835931|-0.5168964649218741|-0.9453644752502441|1.139761090278625|-2.558711767196655|-0.5557302832603455|0.3938317000865936|0.3784617781639099|XArbitraryZVertical|-0.35043072972901|-0.2917726885230347|-0.195838335907092|0.8681672951225476|-0.6438705325126648|0.4941844344139099|-0.5841339826583862|0|0|0|-1|-1|3
2021-04-08 20:50:56.891 +0100|21217.24502041667|-0.8741302490234375|0.849273681640625|-0.88916015625|21217.22506041667|-0.7269986434375816|-0.8365800752693203|-0.4986015611943894|-1.425304055213928|0.9240255355834961|-1.859964489936829|-0.3267235159873962|0.1155372858047485|0.01626074314117432|XArbitraryZVertical|-0.3506811372336474|-0.2877599999456668|-0.2211781412180738|0.8633060125375935|-0.6519758701324463|0.4781978130340576|-0.5884338617324829|0|0|0|-1|-1|3
2021-04-08 20:50:56.911 +0100|21217.26497941667|-0.7708587646484375|0.9934844970703125|-0.8505096435546875|21217.24502041667|-0.7886626356981062|-0.8553923254087553|-0.5036363267217691|-2.887305736541748|0.1238111257553101|-1.342078804969788|-0.2778463959693909|0.1501992344856262|-0.2607710361480713|XArbitraryZVertical|-0.3636484630446417|-0.2837611732887446|-0.243142801966971|0.8533000622823624|-0.6611038446426392|0.4826135337352753|-0.574478805065155|0|0|0|-1|-1|3
2021-04-08 20:50:56.931 +0100|21217.28493941667|-0.784820556640625|1.556076049804688|-0.6807403564453125|21217.26497941667|-0.8664747823345926|-0.8976435811440409|-0.5279344208352735|-3.641654491424561|-0.4892781674861908|-0.9686047434806824|-0.1097628474235535|0.4604834914207458|-0.3337886929512024|XArbitraryZVertical|-0.3892018709298627|-0.281490078073586|-0.2623800944571061|0.8369241040604422|-0.6754093170166016|0.5037500858306885|-0.5385704636573792|0|0|0|-1|-1|3
2021-04-08 20:50:56.951 +0100|21217.30489841667|-0.62542724609375|1.349502563476562|-0.794830322265625|21217.28493941667|-0.9306965211894426|-0.9385580080147931|-0.5557391180153115|-2.107290029525757|-0.1109883412718773|-0.1777558922767639|-0.09483063220977783|0.9130721092224121|-0.1878440380096436|XArbitraryZVertical|-0.4137910044846254|-0.2788673532370373|-0.2740091652410441|0.822149040109905|-0.6853061318397522|0.5275713205337524|-0.502020001411438|0|0|0|-1|-1|3
2021-04-08 20:50:56.971 +0100|21217.32485741667|-0.4407501220703125|1.117782592773438|-0.8926544189453125|21217.30489841667|-0.9521918155142421|-0.9435527398246695|-0.572533918322668|-0.5468231439590454|0.6465145945549011|0.4875023663043976|-0.009483814239501953|0.9408720135688782|-0.2472180426120758|XArbitraryZVertical|-0.4233678685895709|-0.2722120834980107|-0.2775755405570544|0.8182983478343309|-0.6805345416069031|0.5417636036872864|-0.4933204650878906|0|0|0|-1|-1|3
2021-04-08 20:50:56.991 +0100|21217.34481741667|-0.3649749755859375|1.08697509765625|-0.8287506103515625|21217.32485741667|-0.9451236897197064|-0.9257548913906171|-0.5883429093518012|-0.01856397092342377|0.6886641383171082|1.109393358230591|0.1906589269638062|0.5772647857666016|-0.3999887704849243|XArbitraryZVertical|-0.4255165987968273|-0.2624212262783051|-0.2744973824465729|0.8214147192438638|-0.6647197008132935|0.5549833178520203|-0.500141441822052|0|0|0|-1|-1|3
2021-04-08 20:50:57.011 +0100|21217.36477641667|-0.309539794921875|0.9685516357421875|-0.7040557861328125|21217.34481741667|-0.9255871570079612|-0.9031085919803261|-0.6073882626806759|0.1410083621740341|0.4620777368545532|1.356657862663269|0.2650901675224304|0.5382232069969177|-0.3432710766792297|XArbitraryZVertical|-0.4266692215899796|-0.2524667631151132|-0.2665524956423348|0.8265373493856288|-0.644805908203125|0.5707247853279114|-0.5084277987480164|0|0|0|-1|-1|3
2021-04-08 20:50:57.031 +0100|21217.38473541667|-0.27337646484375|0.846771240234375|-0.575958251953125|21217.36477641667|-0.8966171693903284|-0.8801424020523091|-0.6274116675090287|0.4942175447940826|0.1806341409683228|1.667019963264465|0.3051460385322571|0.4034578204154968|-0.2262561917304993|XArbitraryZVertical|-0.4272319963249101|-0.2441607726400775|-0.2545379649114087|0.8325075385563162|-0.6240248680114746|0.5870513319969177|-0.5157166719436646|0|0|0|-1|-1|3
2021-04-08 20:50:57.051 +0100|21217.40469541667|-0.2571258544921875|0.6276092529296875|-0.5033111572265625|21217.38473541667|-0.8527998207899|-0.8511362960665234|-0.6464868058875258|0.9317253232002258|0.1247094050049782|2.099021196365356|0.3197099566459656|0.2977455258369446|-0.08793830871582031|XArbitraryZVertical|-0.425311626447698|-0.236748742711528|-0.2378016321534587|0.8405417465757551|-0.6002740263938904|0.6023858785629272|-0.526120126247406|0|0|0|-1|-1|3
2021-04-08 20:50:57.071 +0100|21217.42465441667|-0.293609619140625|0.54437255859375|-0.480377197265625|21217.40469541667|-0.7935038964460376|-0.8119065545049501|-0.6641979837095234|1.400509238243103|0.1997043490409851|2.429612874984741|0.3084059357643127|0.03956305980682373|0.0412975549697876|XArbitraryZVertical|-0.4205224719917325|-0.2285727926822247|-0.2168744976552928|0.8508118841442543|-0.57134610414505|0.6164278388023376|-0.5418306589126587|0|0|0|-1|-1|3
2021-04-08 20:50:57.091 +0100|21217.44461441667|-0.269439697265625|0.343780517578125|-0.46649169921875|21217.42465441667|-0.7215760441250818|-0.761677857675623|-0.6783245554827079|1.499000787734985|0.2961417138576508|2.402376413345337|0.2556341290473938|-0.03999507427215576|0.1004936099052429|XArbitraryZVertical|-0.412715087211795|-0.2189265753820035|-0.1933487318713885|0.8627594866836774|-0.5373578667640686|0.6274893879890442|-0.5634748339653015|0|0|0|-1|-1|3
2021-04-08 20:50:57.111 +0100|21217.46457341667|-0.325408935546875|0.2949371337890625|-0.40869140625|21217.44461441667|-0.6541975974450094|-0.712445486536317|-0.6909078398055613|1.010239720344543|0.3158724009990692|2.338943243026733|0.2413690686225891|-0.2682943940162659|0.1229497790336609|XArbitraryZVertical|-0.4059664684392678|-0.2087672275198181|-0.171507083508667|0.8730366414535053|-0.5037751197814941|0.6372370719909668|-0.5832149386405945|0|0|0|-1|-1|3
2021-04-08 20:50:57.131 +0100|21217.48453241667|-0.206298828125|0.08233642578125|-0.4648284912109375|21217.46457341667|-0.6053657728137818|-0.6787047158582448|-0.7090696581521225|-0.1438127607107162|0.04361055791378021|1.651213884353638|0.1452000439167023|-0.2986647486686707|0.1322295665740967|XArbitraryZVertical|-0.4055280963214355|-0.2004038302659375|-0.1532955102871269|0.8785704055446006|-0.4764690101146698|0.6511279344558716|-0.5907705426216125|0|0|0|-1|-1|3
2021-04-08 20:50:57.151 +0100|21217.50449241667|-0.244354248046875|0.3297576904296875|-0.3255157470703125|21217.48453241667|-0.5836959391993306|-0.6612831800965329|-0.7395811381182731|-1.203431725502014|-0.08514672517776489|1.549867510795593|0.2086323797702789|-0.5907565951347351|0.1269568800926208|XArbitraryZVertical|-0.414483153655289|-0.191548281217855|-0.1413687946076046|0.8783667429969775|-0.4536892473697662|0.6739785075187683|-0.5830259323120117|0|0|0|-1|-1|3
2021-04-08 20:50:57.171 +0100|21217.52445141667|-0.3560943603515625|0.5396881103515625|-0.2397003173828125|21217.50449241667|-0.5839735180204351|-0.6720947876296186|-0.7816087495640615|-1.933805584907532|-0.9011032581329346|0.9594537019729614|0.224871814250946|-0.4225614070892334|0.2137130498886108|XArbitraryZVertical|-0.4321691938116481|-0.1884703186521157|-0.1309662268568181|0.8720990462671799|-0.4419287145137787|0.7044221758842468|-0.5554174780845642|0|0|0|-1|-1|3
2021-04-08 20:50:57.190 +0100|21217.54441041667|-0.55462646484375|0.6658935546875|-0.0885467529296875|21217.52445141667|-0.6030694302528165|-0.7090826110130015|-0.8188185771135212|-1.716041207313538|-1.386025547981262|0.3264086544513702|0.1270630955696106|-0.2464064359664917|0.2567463517189026|XArbitraryZVertical|-0.451047918341663|-0.1932329539414079|-0.1235394889573971|0.8625282337345432|-0.4447822272777557|0.7303393483161926|-0.5184336304664612|0|0|0|-1|-1|3
2021-04-08 20:50:57.210 +0100|21217.56437041667|-0.7359619140625|0.882720947265625|-0.1384735107421875|21217.54441041667|-0.6390419238294874|-0.7640688454952382|-0.8423751406879927|-1.624174356460571|-1.401807427406311|-0.5687090754508972|-0.02963513135910034|-0.1199136972427368|0.4002503156661987|XArbitraryZVertical|-0.4670379675972617|-0.2038421258903685|-0.1212876075838607|0.8518294431854392|-0.4605692923069|0.7462263107299805|-0.48064786195755|0|0|0|-1|-1|3
2021-04-08 20:50:57.230 +0100|21217.58432941667|-1.046646118164062|1.132049560546875|-0.213836669921875|21217.56437041667|-0.6843067480441858|-0.8225547499069852|-0.8518282308641391|-1.235834121704102|-1.09541642665863|-0.8819519877433777|-0.1876643598079681|0.07801997661590576|0.3310665488243103|XArbitraryZVertical|-0.4788988756007591|-0.215901104049652|-0.1244665973691653|0.8417546408335802|-0.4826853275299072|0.7524857521057129|-0.4480851590633392|0|0|0|-1|-1|3
2021-04-08 20:50:57.259 +0100|21217.60428941667|-1.196624755859375|1.14984130859375|-0.27117919921875|21217.58432941667|-0.7234955114143781|-0.866903671479495|-0.8473148964658703|-0.309335321187973|-0.293182760477066|-1.192690253257751|-0.4689426422119141|0.3300845623016357|0.243838906288147|XArbitraryZVertical|-0.4844363337799928|-0.2260577549961699|-0.131296838813241|0.8348536812249726|-0.5046601891517639|0.7495055794715881|-0.428438663482666|0|0|0|-1|-1|3
2021-04-08 20:50:57.275 +0100|21217.62424841667|-0.5080108642578125|0.4709014892578125|-0.463714599609375|21217.60428941667|-0.7654839745500704|-0.8918841043401025|-0.8247216013312709|-0.7042349576950073|1.04721200466156|-2.562649250030518|-0.6641328930854797|0.4723522663116455|0.2018467783927917|XArbitraryZVertical|-0.4829936999273646|-0.2315253284067635|-0.1483493766634589|0.8313277386950683|-0.5282504558563232|0.7343588471412659|-0.4262262284755707|0|0|0|-1|-1|3
2021-04-08 20:50:57.290 +0100|21217.64420741667|-0.4060821533203125|0.16094970703125|-0.330108642578125|21217.62424841667|-0.832739546185951|-0.9062438873373101|-0.7964518443194046|-0.7714803218841553|1.870988965034485|-2.287858247756958|-0.1754335761070251|-0.01033526659011841|0.008212536573410034|XArbitraryZVertical|-0.4820632083752666|-0.2280342799539702|-0.1799168963240949|0.8265866204286243|-0.5504428148269653|0.71487957239151|-0.4312308728694916|0|0|0|-1|-1|3
2021-04-08 20:50:57.310 +0100|21217.66416741667|-0.767425537109375|0.30303955078125|-0.20404052734375|21217.64420741667|-0.8649823024753849|-0.9050076487254947|-0.7690609106481751|0.5830708742141724|0.8152374625205994|-1.379027605056763|0.2876948714256287|-0.6169693470001221|-0.02127498388290405|XArbitraryZVertical|-0.4761771819031145|-0.2265702858343984|-0.2005135530305788|0.8256607051277678|-0.5651003122329712|0.6954607367515564|-0.4438423812389374|0|0|0|-1|-1|3
2021-04-08 20:50:57.330 +0100|21217.68412641667|-0.94866943359375|0.66619873046875|-0.2927093505859375|21217.66416741667|-0.8654011821851039|-0.8842311517088938|-0.7408212911896719|0.9448193311691284|1.212837219238281|-0.8211525678634644|-0.1841597557067871|-0.3707252740859985|0.288615345954895|XArbitraryZVertical|-0.4642775919967325|-0.2248778426005062|-0.2126933669501755|0.8298421527813491|-0.5707237720489502|0.6748941540718079|-0.4677525460720062|0|0|0|-1|-1|3
2021-04-08 20:50:57.350 +0100|21217.70408541667|-0.85748291015625|0.716583251953125|-0.4993133544921875|21217.68412641667|-0.8619171850342259|-0.8615430943775194|-0.7263351021313693|0.02246174216270447|0.9756544232368469|-0.4079322814941406|-0.3137025833129883|-0.1353101134300232|0.1903120875358582|XArbitraryZVertical|-0.4563302441327583|-0.2198059045016362|-0.2200471954493013|0.8336829850331569|-0.5673252940177917|0.66413414478302|-0.4868961572647095|0|0|0|-1|-1|3
2021-04-08 20:50:57.370 +0100|21217.72404541667|-0.7312774658203125|0.5527496337890625|-0.537872314453125|21217.70408541667|-0.8798999946005908|-0.8534386408964039|-0.7252847043353027|-0.9922541975975037|0.9772436618804932|-0.6079381704330444|-0.3561127781867981|0.09116822481155396|0.0373016893863678|XArbitraryZVertical|-0.4569907997850279|-0.2125823298147356|-0.2296455502370517|0.8326050430064132|-0.5638860464096069|0.6633484959602356|-0.4919363260269165|0|0|0|-1|-1|3
2021-04-08 20:50:57.390 +0100|21217.74400441667|-0.7361297607421875|0.7503204345703125|-0.3952789306640625|21217.72404541667|-0.9191929606100165|-0.8624357911031444|-0.7340652343288624|-1.610047459602356|0.7652764916419983|-0.6018701791763306|-0.1899561285972595|-0.1492938995361328|-0.08660510182380676|XArbitraryZVertical|-0.4652294338310692|-0.2050465280211978|-0.2417136485189674|0.8264938304927365|-0.5638439655303955|0.6698934435844421|-0.4830349981784821|0|0|0|-1|-1|3
2021-04-08 20:50:57.410 +0100|21217.76396441667|-0.7275848388671875|0.840240478515625|-0.3937835693359375|21217.74400441667|-0.9556603846908952|-0.8703212077651896|-0.7427922930115544|-0.8992924690246582|0.9797875881195068|-0.5145277380943298|-0.1715977191925049|0.03701651096343994|0.046245276927948|XArbitraryZVertical|-0.4728708302786505|-0.1974828193043986|-0.252712001197646|0.8206890847422887|-0.5631442666053772|0.6763473153114319|-0.4747874140739441|0|0|0|-1|-1|3
2021-04-08 20:50:57.430 +0100|21217.78392341667|-0.5731353759765625|0.7918853759765625|-0.559478759765625|21217.76396441667|-0.9727319956871612|-0.8591822712797034|-0.7378458168125025|0.1084147170186043|1.289323091506958|-0.7457676529884338|-0.1687639355659485|0.190509557723999|0.1355542540550232|XArbitraryZVertical|-0.4714065409451266|-0.1901869783640901|-0.2635760110874266|0.8198369505791782|-0.5603475570678711|0.6726955771446228|-0.4832095801830292|0|0|0|-1|-1|3
2021-04-08 20:50:57.450 +0100|21217.80388241667|-0.55474853515625|0.65606689453125|-0.633056640625|21217.78392341667|-0.9829411354798219|-0.8430092745390327|-0.7209746079535067|0.1882847547531128|0.9293496608734131|-1.113735795021057|-0.01960587501525879|0.1785519123077393|-0.04404300451278687|XArbitraryZVertical|-0.464431630268305|-0.1856323543734317|-0.2757067891355247|0.8208713894704793|-0.5608544945716858|0.6601170897483826|-0.4996877908706665|0|0|0|-1|-1|3
2021-04-08 20:50:57.470 +0100|21217.82384241667|-0.535400390625|0.591949462890625|-0.5424957275390625|21217.80388241667|-1.009381463806101|-0.8469325091552947|-0.7038543886552234|-0.5613318085670471|0.3912966549396515|-1.491673231124878|-0.00256657600402832|-0.003651857376098633|-0.1140463352203369|XArbitraryZVertical|-0.4615971841619473|-0.1856893769866193|-0.2898197126010024|0.817589235035616|-0.5711951851844788|0.6471608877182007|-0.5048949718475342|0|0|0|-1|-1|3
2021-04-08 20:50:57.490 +0100|21217.84380141667|-0.593902587890625|0.768157958984375|-0.3975067138671875|21217.82384241667|-1.05707924611282|-0.8765572102187641|-0.6923117042465119|-1.457247853279114|-0.2149796783924103|-1.771020531654358|0.07722699642181396|-0.03901416063308716|-0.1189786791801453|XArbitraryZVertical|-0.4666049889806373|-0.1898137027870151|-0.3051881183530092|0.8081526814927967|-0.5916014909744263|0.6383183598518372|-0.4925010800361633|0|0|0|-1|-1|3
2021-04-08 20:50:57.510 +0100|21217.86376041667|-0.702484130859375|0.9264984130859375|-0.4249114990234375|21217.84380141667|-1.115516908558338|-0.921441385473886|-0.6830412996253399|-1.039169311523438|-0.4023250639438629|-1.66540515422821|0.04839271306991577|0.03693586587905884|0.03991180658340454|XArbitraryZVertical|-0.4762589222467872|-0.1966422458765331|-0.3203812408597893|0.7948994570942062|-0.6177904605865479|0.6311549544334412|-0.4690185189247131|0|0|0|-1|-1|3
2021-04-08 20:50:57.530 +0100|21217.88372041667|-0.74017333984375|0.8614349365234375|-0.6334991455078125|21217.86376041667|-1.147707344620621|-0.9450370715255895|-0.6601528857734292|0.2887182831764221|0.02269776724278927|-1.725760340690613|-0.03665316104888916|0.3438698649406433|0.1049275994300842|XArbitraryZVertical|-0.476110786857704|-0.204918695431359|-0.3334076178896324|0.7875063454658957|-0.6402274966239929|0.6132376194000244|-0.4626536965370178|0|0|0|-1|-1|3
2021-04-08 20:50:57.550 +0100|21217.90367941667|-0.829315185546875|0.7785797119140625|-0.7525787353515625|21217.88372041667|-1.160334887823077|-0.9509014315455526|-0.6235784032087013|0.7934746146202087|0.08443325012922287|-1.885308623313904|-0.07318192720413208|0.3187660574913025|-0.127417117357254|XArbitraryZVertical|-0.4669286724180936|-0.214876448956325|-0.3464267798531339|0.7847255645055834|-0.6607512831687927|0.5839438438415527|-0.4716114401817322|0|0|0|-1|-1|3
2021-04-08 20:50:57.570 +0100|21217.92363941667|-0.793670654296875|0.659881591796875|-0.6656494140625|21217.90367941667|-1.177834891793153|-0.9615428236287142|-0.5861952797149402|0.07927247881889343|-0.1912317126989365|-1.938025951385498|-0.1347220540046692|0.235927939414978|-0.2720295786857605|XArbitraryZVertical|-0.4589389278883131|-0.2258670994638544|-0.3603839765134946|0.7800528896150178|-0.6831650137901306|0.5531955361366272|-0.4767182171344757|0|0|0|-1|-1|3
2021-04-08 20:50:57.589 +0100|21217.94359841667|-0.760650634765625|0.7067108154296875|-0.5367431640625|21217.92363941667|-1.211340496824944|-0.9875369883405843|-0.5599773355906871|-0.8896848559379578|-0.5532762408256531|-1.721011757850647|-0.1167545914649963|0.1628330945968628|-0.2360361516475677|XArbitraryZVertical|-0.4593690111259098|-0.2359343964282358|-0.3741131968815097|0.7702950359204859|-0.707190215587616|0.5311669707298279|-0.4666301310062408|0|0|0|-1|-1|3
2021-04-08 20:50:57.610 +0100|21217.96355741667|-0.8439483642578125|0.8484344482421875|-0.5427703857421875|21217.94359841667|-1.250200552484903|-1.020167149876867|-0.5447494780243435|-0.8082107305526733|-0.6022987365722656|-1.294194221496582|-0.03317832946777344|0.1951748728752136|-0.1142301857471466|XArbitraryZVertical|-0.4655601019091556|-0.2439435648095736|-0.3853496148168334|0.7584530554024781|-0.7288463115692139|0.5182038545608521|-0.4474906623363495|0|0|0|-1|-1|3
2021-04-08 20:50:57.629 +0100|21217.98351741667|-0.8759765625|0.7217864990234375|-0.77484130859375|21217.96355741667|-1.266250649220652|-1.035321391328418|-0.5292816369359544|0.4148025512695312|0.00381717924028635|-0.8203263878822327|-0.07375270128250122|0.3035581111907959|-0.05881920456886292|XArbitraryZVertical|-0.4658319753620785|-0.25056834521106|-0.3918999448629785|0.7527487168397369|-0.7423490285873413|0.5049133896827698|-0.4404321610927582|0|0|0|-1|-1|3
2021-04-08 20:50:57.649 +0100|21218.00347641667|-0.7728271484375|0.64215087890625|-0.7765655517578125|21217.98351741667|-1.263049639410046|-1.029375889600225|-0.5100238961445825|0.5828064680099487|0.3897757232189178|-0.7011319398880005|-0.1081368327140808|0.2925634682178497|-0.3070534765720367|XArbitraryZVertical|-0.4584480082261618|-0.2548378353695807|-0.3970450956757304|0.753152282302006|-0.7479124665260315|0.4881981015205383|-0.4497661888599396|0|0|0|-1|-1|3
2021-04-08 20:50:57.670 +0100|21218.02343641667|-0.691009521484375|0.5023345947265625|-0.578521728515625|21218.00347641667|-1.263724829357013|-1.019767042491044|-0.495597014558895|0.1179613322019577|0.5459201335906982|-0.6110028624534607|-0.07200878858566284|0.1612990498542786|-0.3299088478088379|XArbitraryZVertical|-0.4522165687477372|-0.2553708221710252|-0.4031744717751345|0.7534829111550132|-0.7494794726371765|0.4755569100379944|-0.460571825504303|0|0|0|-1|-1|3
2021-04-08 20:50:57.689 +0100|21218.04339541667|-0.6553192138671875|0.3986968994140625|-0.4135894775390625|21218.02343641667|-1.274114639535814|-1.013611357899151|-0.4872704613015554|-0.4362382888793945|0.582485556602478|-0.5548586845397949|0.03126001358032227|0.0712738037109375|-0.1654503345489502|XArbitraryZVertical|-0.4497363092444663|-0.2531996184267339|-0.4105795795059584|0.7516993270727819|-0.7499650716781616|0.4682157635688782|-0.4672544002532959|0|0|0|-1|-1|3
2021-04-08 20:50:57.709 +0100|21218.06335441667|-0.7168426513671875|0.493072509765625|-0.285919189453125|21218.04339541667|-1.293184581254401|-1.010561873866619|-0.4856221937271374|-0.8614943623542786|0.6429328322410583|-0.4680104553699493|0.09724158048629761|-0.05168935656547546|0.008203357458114624|XArbitraryZVertical|-0.4509919426359925|-0.248257853924506|-0.4188307542956212|0.748034158737947|-0.7491893172264099|0.4667586982250214|-0.4699486196041107|0|0|0|-1|-1|3
2021-04-08 20:50:57.729 +0100|21218.08331441667|-0.747100830078125|0.5974273681640625|-0.4113922119140625|21218.06335441667|-1.315564271929808|-1.005421425455601|-0.4881316329783357|-0.8995507955551147|0.9743357300758362|-0.4203240573406219|0.04025095701217651|-0.006727010011672974|0.163274735212326|XArbitraryZVertical|-0.4533975225944333|-0.240516958296722|-0.427713239110694|0.7440723504767017|-0.7457723021507263|0.4689765572547913|-0.4731645584106445|0|0|0|-1|-1|3
2021-04-08 20:50:57.759 +0100|21218.10327341667|-0.658843994140625|0.4374237060546875|-0.55816650390625|21218.08331441667|-1.336747920221453|-0.9927234746694126|-0.4894943242741771|-0.7544661164283752|1.25978672504425|-0.4745157361030579|-0.003889799118041992|0.1044966578483582|0.1042565107345581|XArbitraryZVertical|-0.4535524734052431|-0.230579633636345|-0.4381191113869098|0.741063472819846|-0.7391682863235474|0.4701796472072601|-0.4822463691234589|0|0|0|-1|-1|3
2021-04-08 20:50:57.770 +0100|21218.12323341667|-0.6046600341796875|0.3896636962890625|-0.502777099609375|21218.10327341667|-1.358662651053363|-0.9782400396224664|-0.4907359759767461|-0.9919350147247314|1.112810015678406|-0.4928522408008575|0.02790069580078125|-0.009162962436676025|-0.03856766223907471|XArbitraryZVertical|-0.453177642937364|-0.2198697035773844|-0.449199919972407|0.7379071467513751|-0.7316215634346008|0.4712751507759094|-0.4925746619701385|0|0|0|-1|-1|3
2021-04-08 20:50:57.789 +0100|21218.14319241667|-0.642547607421875|0.539276123046875|-0.378448486328125|21218.12323341667|-1.38630926377602|-0.97343040962789|-0.4961225399798866|-1.306003570556641|0.6933250427246094|-0.4092563986778259|0.1305608153343201|-0.07805493474006653|-0.0451718270778656|XArbitraryZVertical|-0.4566467567345059|-0.2101127609113554|-0.4591415196744362|0.7324722300756665|-0.7271345257759094|0.4760191440582275|-0.4946527481079102|0|0|0|-1|-1|3
2021-04-08 20:50:57.809 +0100|21218.16315141667|-0.67218017578125|0.581512451171875|-0.3568267822265625|21218.14319241667|-1.416763902368289|-0.9768249753344568|-0.5053806701490323|-1.394696474075317|0.462605744600296|-0.3313650786876678|0.09066480398178101|0.01733928918838501|0.09137952327728271|XArbitraryZVertical|-0.4632480153242916|-0.2013807644160948|-0.4672033649009891|0.7256502751681884|-0.7251260876655579|0.484140545129776|-0.4896941184997559|0|0|0|-1|-1|3
2021-04-08 20:50:57.829 +0100|21218.18311141667|-0.6999969482421875|0.684417724609375|-0.3644866943359375|21218.16315141667|-1.447249408997124|-0.9841889070915899|-0.5168282910025332|-1.468092083930969|0.2724057734012604|-0.1954831331968307|0.0567508339881897|0.07087695598602295|0.1166641414165497|XArbitraryZVertical|-0.4712264290504591|-0.1931964858568991|-0.4736843820601603|0.7185011786387542|-0.7240490317344666|0.4941251873970032|-0.4812415540218353|0|0|0|-1|-1|3
2021-04-08 20:50:57.849 +0100|21218.20307041667|-0.817962646484375|0.87713623046875|-0.3471221923828125|21218.18311141667|-1.478660729213179|-0.9969014882783804|-0.5307132430415784|-1.389980673789978|-0.01023957040160894|-0.1204963251948357|0.02977168560028076|0.1210941076278687|0.1301400065422058|XArbitraryZVertical|-0.4810481931979393|-0.185683971367872|-0.4784535650890134|0.7107717371530564|-0.7242763042449951|0.5061485767364502|-0.4682281911373138|0|0|0|-1|-1|3
2021-04-08 20:50:57.869 +0100|21218.22303041667|-0.621429443359375|0.7626953125|-0.4216461181640625|21218.20307041667|-1.503742829659484|-1.010988227522634|-0.5408129439793878|-1.026613116264343|-0.01668889448046684|-0.2201374471187592|-0.07285553216934204|0.3861522078514099|0.1315270960330963|XArbitraryZVertical|-0.4894294043813936|-0.1812128898617241|-0.4813919673351884|0.7041893516590364|-0.726431131362915|0.5148330926895142|-0.4552415013313293|0|0|0|-1|-1|3
2021-04-08 20:50:57.889 +0100|21218.24298941667|-0.5594940185546875|0.6362152099609375|-0.4219970703125|21218.22303041667|-1.523364200904153|-1.023567881136777|-0.5482027476858243|-0.9801727533340454|-0.2462462931871414|-0.1071523874998093|0.08742743730545044|0.352044939994812|-0.001983642578125|XArbitraryZVertical|-0.4961546797500747|-0.1783049231075998|-0.4833190912314413|0.6988854071291652|-0.7288314700126648|0.5211541652679443|-0.4440757632255554|0|0|0|-1|-1|3
2021-04-08 20:50:57.909 +0100|21218.26294841667|-0.5580902099609375|0.6724090576171875|-0.45513916015625|21218.24298941667|-1.545278154648413|-1.043299886138733|-0.5594127536369683|-1.105463147163391|-0.5078155994415283|0.1192653030157089|0.1643327474594116|0.09182393550872803|-0.004128873348236084|XArbitraryZVertical|-0.5057121502393465|-0.1758823555062656|-0.4831585792292661|0.6927327102376324|-0.7323572635650635|0.5306885838508606|-0.4266412258148193|0|0|0|-1|-1|3
2021-04-08 20:50:57.929 +0100|21218.28290841667|-0.599761962890625|0.66302490234375|-0.4144439697265625|21218.26294841667|-1.56065476150874|-1.06237642403975|-0.5727242513695975|-0.5964587926864624|-0.5582264065742493|0.392046332359314|0.1823217868804932|0.09384876489639282|-0.04022175073623657|XArbitraryZVertical|-0.5149391040780401|-0.1740073537185391|-0.4801834691913666|0.6884644196397088|-0.7341262102127075|0.5419235825538635|-0.4091183245182037|0|0|0|-1|-1|3
2021-04-08 20:50:57.949 +0100|21218.30286741667|-0.71002197265625|0.7342376708984375|-0.3820648193359375|21218.28290841667|-1.559187993966099|-1.072020544118433|-0.5838419007759548|0.1423825770616531|-0.4902519285678864|0.6524932384490967|0.1381568908691406|0.1279348134994507|-0.02822428941726685|XArbitraryZVertical|-0.5198072579547472|-0.1739084267105666|-0.4742971750673127|0.688911159839893|-0.7327011227607727|0.5512334704399109|-0.3991125524044037|0|0|0|-1|-1|3
2021-04-08 20:50:57.969 +0100|21218.32282741667|-0.6630401611328125|0.7216033935546875|-0.49176025390625|21218.30286741667|-1.543827074366887|-1.070329452301912|-0.5925668961756568|0.5252335667610168|-0.1689147651195526|0.6615354418754578|0.04210793972015381|0.1616765260696411|0.03593778610229492|XArbitraryZVertical|-0.5201831802452419|-0.1743428155729511|-0.4671457823880013|0.6933895360983522|-0.7277777194976807|0.558492124080658|-0.3980280756950378|0|0|0|-1|-1|3
2021-04-08 20:50:57.989 +0100|21218.34278641667|-0.6578521728515625|0.59991455078125|-0.5089569091796875|21218.32282741667|-1.523296802567303|-1.060431160749614|-0.5964773172177921|0.6885947585105896|-0.06301335990428925|0.5149549841880798|0.04830634593963623|0.2050833106040955|-0.06765866279602051|XArbitraryZVertical|-0.5170504728960442|-0.1748932775579984|-0.4615382402035199|0.6993238469437124|-0.7218912243843079|0.5617315769195557|-0.404142290353775|0|0|0|-1|-1|3
2021-04-08 20:50:58.009 +0100|21218.36274541667|-0.654083251953125|0.56072998046875|-0.4301300048828125|21218.34278641667|-1.506087497692364|-1.052043946150997|-0.6000300878606635|0.3614442646503448|-0.1650096029043198|0.352439820766449|0.05250734090805054|0.05180263519287109|-0.09738513827323914|XArbitraryZVertical|-0.5145030874108133|-0.1751892688905755|-0.4567302243718933|0.7042676629456939|-0.7167385220527649|0.564667284488678|-0.4091905951499939|0|0|0|-1|-1|3
2021-04-08 20:50:58.029 +0100|21218.382704875|-0.6348114013671875|0.519927978515625|-0.316131591796875|21218.36274541667|-1.496230762987172|-1.048524462971425|-0.6049718868128537|0.1941110342741013|-0.1634248644113541|0.1620607227087021|0.06319242715835571|0.00822603702545166|-0.05233210325241089|XArbitraryZVertical|-0.5140826457969115|-0.1748206645869037|-0.4528594427284069|0.7071599637798756|-0.7128667235374451|0.5687389373779297|-0.4103135466575623|0|0|0|-1|-1|3
2021-04-08 20:50:58.049 +0100|21218.402663875|-0.6674041748046875|0.44189453125|-0.30963134765625|21218.382704875|-1.489828699146562|-1.046074184478756|-0.6071775670176067|0.3293461203575134|0.05904202908277512|0.08724816888570786|0.07467782497406006|-0.03539592027664185|0.07395175099372864|XArbitraryZVertical|-0.5135268928150893|-0.1748580701294679|-0.4506424723520675|0.7089684455299898|-0.7107717394828796|0.5705517530441284|-0.4114295840263367|0|0|0|-1|-1|3
2021-04-08 20:50:58.069 +0100|21218.422623875|-0.6689605712890625|0.4443359375|-0.41925048828125|21218.402663875|-1.479120528999251|-1.034786573773083|-0.6076998454504793|0.5099490284919739|0.4202544093132019|0.1506017446517944|0.04540973901748657|-0.1158266067504883|0.1234830915927887|XArbitraryZVertical|-0.5101872741448725|-0.1734128616438956|-0.4495891322558009|0.7123949792785343|-0.7058262228965759|0.5709806084632874|-0.419273853302002|0|0|0|-1|-1|3
2021-04-08 20:50:58.088 +0100|21218.442582875|-0.685638427734375|0.44488525390625|-0.5284881591796875|21218.422623875|-1.464660284115088|-1.014956730430339|-0.6049340333218155|0.6001939177513123|0.6109211444854736|0.1188253536820412|0.02850008010864258|-0.1188027262687683|0.05052030086517334|XArbitraryZVertical|-0.5037651023722433|-0.1709135015420672|-0.4501689328403917|0.7171871484169654|-0.6987127065658569|0.5687078237533569|-0.4340185821056366|0|0|0|-1|-1|3
2021-04-08 20:50:58.109 +0100|21218.462541875|-0.7051849365234375|0.356170654296875|-0.4703216552734375|21218.442582875|-1.455308061094865|-0.9988102760172805|-0.6005384490764941|0.1920405775308609|0.4362668097019196|-0.04699370637536049|0.006940901279449463|-0.1039817929267883|-0.07562389969825745|XArbitraryZVertical|-0.4981688614947582|-0.1689134507728281|-0.4519877057558104|0.7204187719993742|-0.6937092542648315|0.5650867819786072|-0.4465920627117157|0|0|0|-1|-1|3
2021-04-08 20:50:58.128 +0100|21218.482501875|-0.689910888671875|0.424285888671875|-0.4148712158203125|21218.462541875|-1.461116406883838|-0.9958785394162702|-0.6013265177690952|-0.5949053168296814|0.2020071744918823|-0.137968972325325|-0.01572620868682861|-0.2288382649421692|-0.04189771413803101|XArbitraryZVertical|-0.498200265631469|-0.1661495549669532|-0.454606248544417|0.7193914775410967|-0.6920230388641357|0.5657367706298828|-0.448381632566452|0|0|0|-1|-1|3
2021-04-08 20:50:58.148 +0100|21218.502460875|-0.7208251953125|0.4645538330078125|-0.4315185546875|21218.482501875|-1.477039667741049|-1.002148034354726|-0.6066233443270247|-0.7544342279434204|0.1053140312433243|-0.1113075390458107|0.01474893093109131|-0.1190623044967651|0.008119463920593262|XArbitraryZVertical|-0.5023330188973705|-0.1626479810229118|-0.4573879553559772|0.7155442289223028|-0.6922857761383057|0.5700965523719788|-0.4424143433570862|0|0|0|-1|-1|3
2021-04-08 20:50:58.168 +0100|21218.522420875|-0.7756500244140625|0.531524658203125|-0.4745635986328125|21218.502460875|-1.493279274310088|-1.008856096267537|-0.6134485482986746|-0.6614225506782532|0.1577201932668686|-0.002864771988242865|-0.02770674228668213|-0.1337506771087646|0.02506387233734131|XArbitraryZVertical|-0.5069429766490127|-0.1586513845565304|-0.4597270387240788|0.7116809380246212|-0.6919291019439697|0.5756906270980835|-0.4356771111488342|0|0|0|-1|-1|3
2021-04-08 20:50:58.188 +0100|21218.542379875|-0.8127288818359375|0.5782623291015625|-0.524566650390625|21218.522420875|-1.504133374775144|-1.010566193484801|-0.619329148073383|-0.3452066779136658|0.3078436553478241|0.02150483801960945|-0.0761224627494812|-0.08444136381149292|-0.01900315284729004|XArbitraryZVertical|-0.5096881469463793|-0.1545140704760336|-0.4616246591102042|0.7093985336497456|-0.6897933483123779|0.5804890394210815|-0.4326867759227753|0|0|0|-1|-1|3
2021-04-08 20:50:58.208 +0100|21218.562338875|-0.7552337646484375|0.5825347900390625|-0.5341949462890625|21218.542379875|-1.507705178772788|-1.004882710620491|-0.617835561350343|-0.1313389092683792|0.4202909767627716|-0.1318663507699966|-0.1114920377731323|0.03001093864440918|-0.06351447105407715|XArbitraryZVertical|-0.5082662043833168|-0.1520958986856351|-0.4647242599125048|0.7089174064696299|-0.6880541443824768|0.5792722105979919|-0.4370646178722382|0|0|0|-1|-1|3
2021-04-08 20:50:58.228 +0100|21218.582298875|-0.765045166015625|0.5612335205078125|-0.464019775390625|21218.562338875|-1.512811986525507|-1.001197491252718|-0.6149151629938635|-0.2524961233139038|0.2257863730192184|-0.1516643762588501|-0.06978511810302734|-0.01615959405899048|-0.1179479956626892|XArbitraryZVertical|-0.5070505375238518|-0.1504856123078838|-0.468221703323965|0.7078293324978525|-0.687860369682312|0.5768892168998718|-0.4405076801776886|0|0|0|-1|-1|3
2021-04-08 20:50:58.259 +0100|21218.602257875|-0.738067626953125|0.541534423828125|-0.404937744140625|21218.582298875|-1.52195398361515|-1.004143071289518|-0.6128942957866436|-0.3822558224201202|0.09934380650520325|-0.1575347781181335|-0.08020365238189697|-0.0101284384727478|-0.0514494776725769|XArbitraryZVertical|-0.5079167812624139|-0.1498941728255414|-0.4712242467183078|0.7053369025607321|-0.6901372075080872|0.5752373337745667|-0.4391045570373535|0|0|0|-1|-1|3
2021-04-08 20:50:58.271 +0100|21218.622217875|-0.6945037841796875|0.5428009033203125|-0.4359588623046875|21218.602257875|-1.532735723324049|-1.009371797375584|-0.6129302292955622|-0.4247094392776489|0.05258450657129288|-0.1123984530568123|-0.05408507585525513|-0.04044651985168457|0.02448433637619019|XArbitraryZVertical|-0.5099665411086743|-0.1489784766943307|-0.47367894301009|0.7024016586416951|-0.6924062967300415|0.5752667784690857|-0.435479074716568|0|0|0|-1|-1|3
2021-04-08 20:50:58.288 +0100|21218.642176875|-0.7016448974609375|0.572479248046875|-0.451263427734375|21218.622217875|-1.541416053616553|-1.013327251819866|-0.6147106914370634|-0.3254394829273224|0.03803629800677299|-0.02261974476277828|-0.009750723838806152|-0.02594125270843506|0.004079163074493408|XArbitraryZVertical|-0.5119915757310416|-0.1475379758267318|-0.4752529673664932|0.7001657392400173|-0.6932530999183655|0.5767222046852112|-0.4321943521499634|0|0|0|-1|-1|3
2021-04-08 20:50:58.308 +0100|21218.662136875|-0.659454345703125|0.641143798828125|-0.469482421875|21218.642176875|-1.54663837640512|-1.014215434986079|-0.616148292623137|-0.2664700746536255|0.08557723462581635|0.02881184220314026|-0.006394505500793457|-0.0272676944732666|-0.0107843279838562|XArbitraryZVertical|-0.5129415830436239|-0.1460169731650286|-0.4764809667248164|0.6989535235479105|-0.6929319500923157|0.5778960585594177|-0.4311399459838867|0|0|0|-1|-1|3
2021-04-08 20:50:58.328 +0100|21218.682095875|-0.586456298828125|0.65289306640625|-0.5009765625|21218.662136875|-1.550318059343011|-1.013929259392137|-0.6173743709259828|-0.1754941195249557|0.1085173860192299|-0.04127359017729759|0.02171921730041504|0.05129140615463257|-0.04388934373855591|XArbitraryZVertical|-0.5134425281262628|-0.1445512153838926|-0.4775231399991414|0.6981787429899703|-0.6922065615653992|0.5788962244987488|-0.4309634268283844|0|0|0|-1|-1|3
2021-04-08 20:50:58.348 +0100|21218.702054875|-0.5905914306640625|0.6832733154296875|-0.4037017822265625|21218.682095875|-1.557061227505065|-1.017685052128944|-0.6175952081970241|-0.2668726146221161|-0.06587433815002441|-0.08985719084739685|0.0890047550201416|0.04883778095245361|-0.07886219024658203|XArbitraryZVertical|-0.5148811543187137|-0.144050951626784|-0.4788513768787205|0.6963104603395717|-0.6937114596366882|0.5790762901306152|-0.4282934367656708|0|0|0|-1|-1|3
2021-04-08 20:50:58.368 +0100|21218.722014875|-0.5252838134765625|0.6354827880859375|-0.3889312744140625|21218.702054875|-1.562880186649716|-1.023514569629271|-0.617431109078491|-0.1558892428874969|-0.1143153756856918|-0.1087777093052864|0.1051359176635742|0.1193755865097046|0.00168493390083313|XArbitraryZVertical|-0.5166577778159092|-0.1446338446181642|-0.479413692782686|0.6944842433309966|-0.6962774991989136|0.5789424777030945|-0.424291580915451|0|0|0|-1|-1|3
2021-04-08 20:50:58.388 +0100|21218.741973875|-0.504180908203125|0.6699066162109375|-0.3955078125|21218.722014875|-1.565941491973051|-1.027529779895458|-0.6168825480891809|-0.08429984003305435|-0.13585065305233|0.005255206022411585|0.1594432592391968|0.06812620162963867|0.02964377403259277|XArbitraryZVertical|-0.5177096648459261|-0.1454249077906776|-0.4795797121700713|0.6934203028229166|-0.6982472538948059|0.5784950852394104|-0.421656608581543|0|0|0|-1|-1|3
2021-04-08 20:50:58.408 +0100|21218.761933875|-0.498931884765625|0.627716064453125|-0.3907470703125|21218.741973875|-1.564730613101878|-1.02907246052314|-0.618631490369428|0.07850988209247589|-0.1498446017503738|0.1190430223941803|0.2028803825378418|0.07672548294067383|0.02062803506851196|XArbitraryZVertical|-0.5184131147006875|-0.1456693147977268|-0.4783064617050127|0.6937227714496844|-0.6980289220809937|0.5799208283424377|-0.4200565814971924|0|0|0|-1|-1|3
2021-04-08 20:50:58.428 +0100|21218.781892875|-0.52130126953125|0.665313720703125|-0.364044189453125|21218.761933875|-1.558332496975306|-1.026222976138538|-0.6210093581443655|0.1815442889928818|-0.1171534508466721|0.1904373168945312|0.1866746544837952|0.06323903799057007|0.0289340615272522|XArbitraryZVertical|-0.5178424642393512|-0.1455164471933009|-0.4762047352096448|0.6956242983405024|-0.6956475973129272|0.581856369972229|-0.4213283061981201|0|0|0|-1|-1|3
2021-04-08 20:50:58.448 +0100|21218.801851875|-0.524261474609375|0.6714019775390625|-0.2938385009765625|21218.781892875|-1.551205553779292|-1.023354785211179|-0.6249558041624996|0.1777227818965912|-0.1205520704388618|0.1697967499494553|0.1763256788253784|0.06239914894104004|0.04440808296203613|XArbitraryZVertical|-0.5176026864621389|-0.1450026646776808|-0.4734385013578251|0.6977949869503061|-0.692470371723175|0.5850614309310913|-0.4221233725547791|0|0|0|-1|-1|3
2021-04-08 20:50:58.468 +0100|21218.821811875|-0.5265350341796875|0.6626434326171875|-0.276214599609375|21218.801851875|-1.544454210741699|-1.02052214484703|-0.6287652470440535|0.1921748369932175|-0.04181800410151482|0.141815721988678|0.1657913327217102|0.08348387479782104|0.1045560240745544|XArbitraryZVertical|-0.5173750686904408|-0.1444497072787909|-0.4708206854003735|0.6998466479442035|-0.6893670558929443|0.5881465673446655|-0.4229146540164948|0|0|0|-1|-1|3
2021-04-08 20:50:58.488 +0100|21218.841770875|-0.547332763671875|0.62420654296875|-0.2940216064453125|21218.821811875|-1.537522900848671|-1.015834253323886|-0.6307060230020167|0.2300532162189484|0.02241387218236923|0.1802979558706284|0.1577485799789429|0.06786197423934937|0.1446106135845184|XArbitraryZVertical|-0.5162499232082887|-0.143931676231283|-0.4690975341871417|0.7019382021269452|-0.6864054203033447|0.5897151231765747|-0.4255393743515015|0|0|0|-1|-1|3
2021-04-08 20:50:58.508 +0100|21218.861730875|-0.643402099609375|0.66290283203125|-0.3354339599609375|21218.841770875|-1.530613541144441|-1.011898929351399|-0.6325208415545701|0.1085263043642044|-0.05944216251373291|0.2532556056976318|0.1424496173858643|0.03179043531417847|0.136623740196228|XArbitraryZVertical|-0.5152798037381697|-0.1437085271743899|-0.4672114848731658|0.7039518497341383|-0.6838170289993286|0.5911797881126404|-0.4276691675186157|0|0|0|-1|-1|3
2021-04-08 20:50:58.528 +0100|21218.881689875|-0.760040283203125|0.6473846435546875|-0.267120361328125|21218.861730875|-1.527394098491995|-1.011623452402706|-0.636493775504733|-0.07169415056705475|-0.09913486987352371|0.2366356998682022|0.06542998552322388|0.08138620853424072|0.1011999845504761|XArbitraryZVertical|-0.5159684294061067|-0.1430820501721332|-0.4651132629891378|0.7049638364399677|-0.6817028522491455|0.5943794250488281|-0.4266082048416138|0|0|0|-1|-1|3
2021-04-08 20:50:58.548 +0100|21218.901649875|-0.8072357177734375|0.684417724609375|-0.2136688232421875|21218.881689875|-1.528101724205345|-1.014290663264137|-0.6425205548051047|-0.3086986839771271|-0.1130687445402145|0.2483564466238022|-0.05297428369522095|0.05343329906463623|0.1284862160682678|XArbitraryZVertical|-0.5181264414668014|-0.1417770470476802|-0.4630980308897459|0.7049713666875682|-0.6797841787338257|0.5992152690887451|-0.4228885173797607|0|0|0|-1|-1|3
2021-04-08 20:50:58.568 +0100|21218.921608875|-0.801544189453125|0.7595977783203125|-0.2903900146484375|21218.901649875|-1.534267118670077|-1.019886180874057|-0.6516791979757415|-0.5734155774116516|-0.09628769010305405|0.2710220813751221|-0.1319528222084045|0.05961501598358154|0.194692075252533|XArbitraryZVertical|-0.5220953895665498|-0.1390052529462005|-0.4614087726614258|0.7037016943475354|-0.6774352788925171|0.6065223217010498|-0.4161878824234009|0|0|0|-1|-1|3
2021-04-08 20:50:58.587 +0100|21218.941567875|-0.8615570068359375|0.812530517578125|-0.3806304931640625|21218.921608875|-1.544080647420021|-1.029210250139052|-0.6621831383855311|-0.598945677280426|-0.2460690885782242|0.2327515631914139|-0.1163254976272583|0.1301547288894653|0.1459426283836365|XArbitraryZVertical|-0.527451459293636|-0.136094129612473|-0.4596319450780799|0.7014356087750403|-0.6757895946502686|0.614840030670166|-0.4065466821193695|0|0|0|-1|-1|3
2021-04-08 20:50:58.607 +0100|21218.961527875|-0.9271697998046875|0.85699462890625|-0.4276275634765625|21218.941567875|-1.553119589038014|-1.041083113987577|-0.6719116892141439|-0.4948872625827789|-0.3603174388408661|0.2400352209806442|-0.164362907409668|0.1814562082290649|0.0290297269821167|XArbitraryZVertical|-0.5330884801750516|-0.1344987541384079|-0.4570556101344082|0.6991616990673819|-0.6753749251365662|0.6224832534790039|-0.3954535126686096|0|0|0|-1|-1|3
2021-04-08 20:50:58.628 +0100|21218.981486875|-0.920867919921875|0.864288330078125|-0.466217041015625|21218.961527875|-1.558406752251798|-1.051367998590399|-0.6806219056381484|-0.2595298886299133|-0.3268229365348816|0.3117111027240753|-0.2457829713821411|0.2080950140953064|-0.02585506439208984|XArbitraryZVertical|-0.5378139531313945|-0.1336633649976759|-0.4538081082968566|0.6978170727192732|-0.6746737957000732|0.6292764544487|-0.3857805132865906|0|0|0|-1|-1|3
2021-04-08 20:50:58.647 +0100|21219.001446875|-0.8208160400390625|0.7040863037109375|-0.469146728515625|21218.981486875|-1.555720847735125|-1.055513883032117|-0.6871215818201311|0.09381267428398132|-0.2528122663497925|0.3513481616973877|-0.2553309798240662|0.250069260597229|-0.08608376979827881|XArbitraryZVertical|-0.5400708860849712|-0.1335858463671407|-0.4499960197559514|0.6985571686545159|-0.672694206237793|0.6343145966529846|-0.3809565305709839|0|0|0|-1|-1|3
2021-04-08 20:50:58.667 +0100|21219.021405875|-0.781982421875|0.65478515625|-0.466583251953125|21219.001446875|-1.547807669030804|-1.055581383588285|-0.6923695917390825|0.145117312669754|-0.2887547612190247|0.4089017510414124|-0.1789114475250244|0.0948825478553772|-0.09046018123626709|XArbitraryZVertical|-0.5407668254222631|-0.133934530657076|-0.4457851792067374|0.7006485545240617|-0.6698137521743774|0.6383629441261292|-0.3792655766010284|0|0|0|-1|-1|3
2021-04-08 20:50:58.687 +0100|21219.041364875|-0.7770233154296875|0.6117095947265625|-0.4727020263671875|21219.021405875|-1.53868025709443|-1.056204419830392|-0.6982558091947091|0.1640194952487946|-0.3520503342151642|0.4336797893047333|-0.1252255439758301|0.0205690860748291|-0.0899411141872406|XArbitraryZVertical|-0.5416532555463964|-0.1345942949867211|-0.4408105897419964|0.7029809666827778|-0.666767418384552|0.6428827047348022|-0.376992255449295|0|0|0|-1|-1|3
2021-04-08 20:50:58.707 +0100|21219.061324875|-0.7644195556640625|0.6077423095703125|-0.470428466796875|21219.041364875|-1.528936741164721|-1.056445218225156|-0.7041165262548481|0.1904684007167816|-0.2872685790061951|0.4628808200359344|-0.1165550947189331|-0.02371901273727417|-0.09765332937240601|XArbitraryZVertical|-0.5424082565289451|-0.1353050634348532|-0.4357127354297985|0.705436340903261|-0.6635665893554688|0.6473607420921326|-0.3749716579914093|0|0|0|-1|-1|3
2021-04-08 20:50:58.727 +0100|21219.081283875|-0.7446746826171875|0.6206207275390625|-0.4484100341796875|21219.061324875|-1.518097788383207|-1.053925067248962|-0.7104539698857155|0.2083164155483246|-0.1692205369472504|0.5084800720214844|-0.1117895841598511|-0.04200983047485352|-0.0963081419467926|XArbitraryZVertical|-0.5426066259173263|-0.1351819225199164|-0.4308280494810024|0.7083016209075235|-0.6590394377708435|0.6521779894828796|-0.3746078014373779|0|0|0|-1|-1|3
2021-04-08 20:50:58.758 +0100|21219.101243875|-0.6439666748046875|0.5579833984375|-0.4304351806640625|21219.081283875|-1.505923089953529|-1.048133799676243|-0.717685502558996|0.231764167547226|-0.01127751171588898|0.5381830334663391|-0.09039437770843506|-0.03197175264358521|-0.07800102233886719|XArbitraryZVertical|-0.5422441370259735|-0.133956278705073|-0.4260903094597178|0.7116700271664675|-0.6527552604675293|0.6576428413391113|-0.3760540187358856|0|0|0|-1|-1|3
2021-04-08 20:50:58.770 +0100|21219.121202875|-0.5907745361328125|0.4756927490234375|-0.4568634033203125|21219.121202875|-1.48205768983674|-1.02941757829696|-0.7325460732597566|0.05481718480587006|0.115637294948101|0.5166735053062439|0.02044129371643066|-0.1850613951683044|-0.06319308280944824|XArbitraryZVertical|-0.5402615554936492|-0.1286647466599613|-0.418537076580868|0.7186025602264299|-0.63715660572052|0.6687647104263306|-0.3831256628036499|0|0|0|-1|-1|3
2021-04-08 20:50:58.787 +0100|21219.141162875|-0.5746612548828125|0.4921722412109375|-0.47186279296875||||||||||||||||||||||||3
2021-04-08 20:50:58.807 +0100|21219.161121875|-0.61981201171875|0.5678863525390625|-0.449554443359375|21219.141162875|-1.475481969901667|-1.023417568755161|-0.7408529831846135|-0.02764416858553886|0.06923512369394302|0.4598987102508545|0.06948739290237427|-0.1988283395767212|-0.08751970529556274|XArbitraryZVertical|-0.5405921268283796|-0.1254655024323392|-0.4155086750373389|0.7206741813314536|-0.6300809383392334|0.6749175786972046|-0.3840371072292328|0|0|0|-1|-1|3
2021-04-08 20:50:58.827 +0100|21219.181080875|-0.6125030517578125|0.6190185546875|-0.46881103515625|21219.161121875|-1.468905013284066|-1.016680153961537|-0.7460075431006638|0.05173460766673088|0.154507040977478|0.4327143132686615|0.0093841552734375|-0.1296400427818298|-0.06969243288040161|XArbitraryZVertical|-0.5400333214280199|-0.1230655398681507|-0.4135383766790866|0.7226375810072222|-0.6245125532150269|0.6787120699882507|-0.3864377737045288|0|0|0|-1|-1|3
2021-04-08 20:50:58.847 +0100|21219.201040875|-0.5979766845703125|0.6133880615234375|-0.4918212890625|21219.181080875|-1.458868962830766|-1.005574464487456|-0.7484212933645764|0.2660114169120789|0.2398120164871216|0.3832107484340668|0.003653526306152344|-0.06514191627502441|-0.07646146416664124|XArbitraryZVertical|-0.5377171276161385|-0.1209333700040379|-0.4122349774722106|0.7254638908185438|-0.6187971830368042|0.680482804775238|-0.3924708068370819|0|0|0|-1|-1|3
2021-04-08 20:50:58.867 +0100|21219.220999875|-0.59173583984375|0.57647705078125|-0.488555908203125|21219.201040875|-1.445209577959782|-0.9908839656578516|-0.7474968263405456|0.4083444178104401|0.2344551831483841|0.3307114243507385|0.00919640064239502|-0.06644773483276367|-0.09047615528106689|XArbitraryZVertical|-0.5336418073981629|-0.1195609918572845|-0.4114549197479314|0.7291342131853512|-0.6134911179542542|0.6798050999641418|-0.4018631875514984|0|0|0|-1|-1|3
2021-04-08 20:50:58.887 +0100|21219.240959875|-0.605682373046875|0.5834197998046875|-0.47833251953125|21219.220999875|-1.42993763337274|-0.9749596295475013|-0.7441536777805147|0.4173819422721863|0.1834776401519775|0.2528907358646393|0.01204335689544678|-0.09937727451324463|-0.07046705484390259|XArbitraryZVertical|-0.5286132756860199|-0.1189152060509912|-0.4110072997868365|0.7331441695082047|-0.6088917851448059|0.6773494482040405|-0.4128543436527252|0|0|0|-1|-1|3
2021-04-08 20:50:58.907 +0100|21219.260918875|-0.6037445068359375|0.6331329345703125|-0.46026611328125|21219.240959875|-1.416495942005752|-0.9622685694682896|-0.7402384815727173|0.4286540448665619|0.1518647968769073|0.1796069443225861|0.007552921772003174|-0.08088201284408569|-0.0608329176902771|XArbitraryZVertical|-0.5242002054121327|-0.1190947178805535|-0.4104622966629687|0.7365809651213727|-0.6057746410369873|0.6744639873504639|-0.4220611751079559|0|0|0|-1|-1|3
2021-04-08 20:50:58.927 +0100|21219.280878875|-0.6017303466796875|0.646270751953125|-0.455718994140625|21219.260918875|-1.401974585234149|-0.9485916504888348|-0.7353670012302728|0.722517728805542|0.2327352613210678|0.2109164893627167|-0.008445978164672852|-0.07453089952468872|-0.02751490473747253|XArbitraryZVertical|-0.5192534318858373|-0.1194474753303004|-0.4099695016762151|0.7402926585900774|-0.602608323097229|0.6708593368530273|-0.4322163462638855|0|0|0|-1|-1|3
2021-04-08 20:50:58.947 +0100|21219.300837875|-0.5921783447265625|0.541778564453125|-0.5113372802734375|21219.280878875|-1.376211325424997|-0.9239779021056286|-0.7255249353029333|1.260234951972961|0.4415116310119629|0.2002711147069931|-0.01164537668228149|0.01394647359848022|-0.008399754762649536|XArbitraryZVertical|-0.5100241780331248|-0.1201601778933397|-0.4093217663525498|0.74692205819494|-0.5970285534858704|0.6635282635688782|-0.4508737325668335|0|0|0|-1|-1|3
2021-04-08 20:50:58.967 +0100|21219.320797875|-0.667510986328125|0.4984130859375|-0.5784759521484375|21219.300837875|-1.345598468920293|-0.8947034169226047|-0.7113078631454899|1.290686249732971|0.4401350915431976|0.1698022484779358|0.0115128755569458|-0.08489310741424561|-0.03529578447341919|XArbitraryZVertical|-0.4982288728966681|-0.1215003342705932|-0.4088916809470295|0.7548599043071534|-0.5908747315406799|0.6528250575065613|-0.4740113317966461|0|0|0|-1|-1|3
2021-04-08 20:50:58.987 +0100|21219.340756875|-0.926025390625|0.2270660400390625|-0.461944580078125|21219.320797875|-1.319015687096672|-0.8702038678118562|-0.6974717743372517|1.175556421279907|0.2592720091342926|0.05455209314823151|-0.06009268760681152|-0.1099944710731506|-0.08266162872314453|XArbitraryZVertical|-0.4876101860810833|-0.1231924710138564|-0.4083645194922337|0.7617732631769816|-0.5859348773956299|0.6422819495201111|-0.4941198527812958|0|0|0|-1|-1|3
2021-04-08 20:50:59.007 +0100|21219.360715875|-1.072189331054688|-0.1986236572265625|-0.3975372314453125|21219.340756875|-1.29600870293882|-0.8523364117472967|-0.6810134753803748|1.249649524688721|0.1304781883955002|-0.2079876512289047|-0.2667165994644165|-0.3391909003257751|-0.0007004737854003906|XArbitraryZVertical|-0.4776425470836964|-0.127114556668812|-0.4079826043364986|0.7676261379964717|-0.5848926305770874|0.6295807361602783|-0.51139897108078|0|0|0|-1|-1|3
2021-04-08 20:50:59.027 +0100|21219.3806765|-1.098114013671875|-0.38409423828125|-0.21563720703125|21219.360715875|-1.289782735764619|-0.846476669690312|-0.6625127400260231|0.1584402024745941|0.05057579278945923|-0.8055509328842163|-0.4717016220092773|-0.6924468874931335|0.1362020969390869|XArbitraryZVertical|-0.4704432813448761|-0.1321348152455247|-0.4115251395328755|0.7693313781748448|-0.5905094146728516|0.6150999665260315|-0.5224469900131226|0|0|0|-1|-1|3
2021-04-08 20:50:59.047 +0100|21219.4006355|-1.688888549804688|-0.944091796875|0.271453857421875|21219.3806765|-1.315689001902569|-0.861135087941942|-0.6527473318003325|-0.9898950457572937|0.07188832759857178|-1.387990951538086|-0.4218441247940063|-0.9340010285377502|0.2477889060974121|XArbitraryZVertical|-0.4722709430064342|-0.1347140951325401|-0.4203863871208563|0.7629467571152327|-0.6026319265365601|0.6073712110519409|-0.51762455701828|0|0|0|-1|-1|3
2021-04-08 20:50:59.067 +0100|21219.4205955|-2.171340942382812|-1.512771606445312|0.4924163818359375|21219.4006355|-1.372287971857451|-0.8902693759268699|-0.6423676507615388|-1.834986329078674|0.5249812006950378|-2.408373117446899|-0.9252565503120422|-1.323153138160706|0.6328340768814087|XArbitraryZVertical|-0.4792935045959051|-0.1355833748572353|-0.4374103769129994|0.7487103326745992|-0.6223212480545044|0.5990928411483765|-0.5037897825241089|0|0|0|-1|-1|3
2021-04-08 20:50:59.087 +0100|21219.4405545|-2.3524169921875|-1.103195190429688|0.6531524658203125|21219.4205955|-1.462602776023584|-0.9296312267949859|-0.6227429386933022|-2.798711538314819|0.8582163453102112|-3.676172971725464|-1.412805318832397|-2.058302402496338|0.91077721118927|XArbitraryZVertical|-0.4888048842890297|-0.1347030855571592|-0.4660618373510183|0.7250595775175076|-0.6509621143341064|0.5832653641700745|-0.4858497381210327|0|0|0|-1|-1|3
2021-04-08 20:50:59.107 +0100|21219.4605145|-2.101150512695312|-0.646026611328125|0.1554107666015625|21219.4405545|-1.592693358791329|-0.9852175998638755|-0.5913124695957165|-4.206272602081299|0.9241594076156616|-5.066793441772461|-1.644795536994934|-1.822069406509399|1.108577013015747|XArbitraryZVertical|-0.5029162019005325|-0.1328697785435964|-0.5061265980116764|0.6879366613766832|-0.6918905377388|0.5574511289596558|-0.4588418304920197|0|0|0|-1|-1|3
2021-04-08 20:50:59.127 +0100|21219.4804735|-1.82183837890625|-0.334197998046875|-0.81512451171875|21219.4605145|-1.758472070239084|-1.055670804373827|-0.5427493521030758|-5.047729015350342|0.8725539445877075|-6.435054779052734|-1.474677681922913|-1.254560351371765|0.8025394082069397|XArbitraryZVertical|-0.5214344676258267|-0.1310819749932251|-0.5549665465528624|0.6347723939869232|-0.7451717853546143|0.5164921879768372|-0.4218472242355347|0|0|0|-1|-1|3
2021-04-08 20:50:59.146 +0100|21219.5004325|-2.168228149414062|0.0082550048828125|-1.289749145507812|21219.4804735|-1.93752034678231|-1.129681345286972|-0.4647308896869027|-5.363533496856689|0.513408899307251|-7.604452133178711|-1.026209592819214|-0.8222216367721558|-0.2306373119354248|XArbitraryZVertical|-0.5394697045403227|-0.134681064165772|-0.6076496629011956|0.5670939905791981|-0.80837082862854|0.4481822550296783|-0.381666898727417|0|0|0|-1|-1|3
2021-04-08 20:50:59.166 +0100|21219.5203925|-2.187698364257812|0.869903564453125|-0.470733642578125|21219.5004325|-2.115926272738599|-1.190959486387491|-0.3667360224982759|-5.5777907371521|0.8144161701202393|-7.741522312164307|-1.125403642654419|-0.5508930683135986|-0.9915322065353394|XArbitraryZVertical|-0.5546229176233971|-0.1390557293953824|-0.6591037022152322|0.4885073178054252|-0.866967499256134|0.3585704267024994|-0.3461138606071472|0|0|0|-1|-1|3
2021-04-08 20:50:59.186 +0100|21219.5403515|-2.026458740234375|0.862945556640625|-0.1413116455078125|21219.5203925|-2.264159947280007|-1.201044691603964|-0.2645627717180631|-3.492549180984497|2.94244647026062|-6.780924797058105|-1.446964025497437|0.3658463358879089|-0.326909601688385|XArbitraryZVertical|-0.5533145989909202|-0.1394196234745448|-0.7087230122682203|0.4148698310745126|-0.899975597858429|0.2614872753620148|-0.3488102555274963|0|0|0|-1|-1|3
2021-04-08 20:50:59.206 +0100|21219.5603115|-2.017364501953125|0.870269775390625|-0.33453369140625|21219.5403515|-2.358384585163229|-1.146326132843378|-0.1673803686252099|-1.838841915130615|4.350481033325195|-5.687551975250244|-1.084693789482117|0.7716925144195557|0.2526251375675201|XArbitraryZVertical|-0.5262915632957793|-0.1413363532743972|-0.756566063370933|0.3614540932136769|-0.898521900177002|0.1665998995304108|-0.4060824513435364|0|0|0|-1|-1|3
2021-04-08 20:50:59.226 +0100|21219.5802705|-1.796112060546875|1.014663696289062|-0.19915771484375|21219.5603115|-2.45391197227721|-1.070667001516718|-0.09841020672678784|-4.003077983856201|4.24898099899292|-4.816174030303955|-1.151612520217896|0.729353666305542|0.1840061843395233|XArbitraryZVertical|-0.4939482598562301|-0.1319306298148496|-0.8003161461132074|0.3132148564793795|-0.8732748031616211|0.09825143963098526|-0.4772188365459442|0|0|0|-1|-1|3
2021-04-08 20:50:59.250 +0100|21219.6002305|-1.35028076171875|1.2991943359375|0.1239013671875|21219.5802705|-2.591146533871893|-1.00264059995892|-0.07898981365851809|-6.618670463562012|3.73884391784668|-3.83178973197937|-1.045185804367065|0.9059544801712036|0.2674188613891602|XArbitraryZVertical|-0.4715461572507687|-0.09717954953209419|-0.8381296074131077|0.256396759440959|-0.8402666449546814|0.07890769839286804|-0.5364007353782654|0|0|0|-1|-1|3
2021-04-08 20:50:59.266 +0100|21219.6201895|-1.080123901367188|1.494522094726562|0.24371337890625|21219.6002305|-2.739195014296245|-0.9433360069314057|-0.1027794708471825|-6.33897590637207|3.672812223434448|-2.523494720458984|-0.6404753923416138|1.076446890830994|0.610863208770752|XArbitraryZVertical|-0.4537638272042308|-0.04584849308969929|-0.8670254267811932|0.2006575008696423|-0.8052492141723633|0.1025986149907112|-0.583992600440979|0|0|0|-1|-1|3
2021-04-08 20:50:59.286 +0100|21219.6401495|-0.742645263671875|1.280624389648438|0.0974578857421875|21219.6201895|-2.843689260957366|-0.8760659936689522|-0.1323589656980588|-3.583653450012207|4.297196388244629|-1.561840415000916|-0.3894482254981995|1.35179078578949|0.8837241530418396|XArbitraryZVertical|-0.4274315221196269|-0.003583587966856764|-0.8894372981515507|0.1618359745302186|-0.761506974697113|0.1319728344678879|-0.6345788836479187|0|0|0|-1|-1|3
2021-04-08 20:50:59.306 +0100|21219.6601085|-0.3990936279296875|1.080581665039062|0.1310577392578125|21219.6401495|-2.9015843894793|-0.79606974199299|-0.1466127382702298|-1.981040239334106|4.30538272857666|-1.266717910766602|-0.1457764506340027|1.221678256988525|0.8358756303787231|XArbitraryZVertical|-0.3918690694467176|0.02075119647753823|-0.9093384955282461|0.1382455774542761|-0.7069457173347473|0.1460880488157272|-0.692016065120697|0|0|0|-1|-1|3
2021-04-08 20:50:59.326 +0100|21219.6800675|-0.26019287109375|1.156539916992188|0.32855224609375|21219.6601085|-2.948210605433021|-0.7264909839017524|-0.1586156120993029|-2.310992240905762|3.273247003555298|-1.25661313533783|0.1893138885498047|0.9586095213890076|0.8471500873565674|XArbitraryZVertical|-0.3596878839029685|0.03951531065927397|-0.9247406086250323|0.1179752332722423|-0.6559123396873474|0.1579513549804688|-0.7381263375282288|0|0|0|-1|-1|3
2021-04-08 20:50:59.346 +0100|21219.7000275|-0.35400390625|1.323684692382812|0.554351806640625|21219.6800675|-3.002222917181899|-0.6824685355611857|-0.1847909979725679|-3.090841293334961|2.121359825134277|-1.093585610389709|0.3520894050598145|0.9303021430969238|1.026584506034851|XArbitraryZVertical|-0.3384680658283902|0.06353152261555484|-0.9338957731356909|0.09613529243947856|-0.6199725270271301|0.1837410926818848|-0.762806236743927|0|0|0|-1|-1|3
2021-04-08 20:50:59.366 +0100|21219.7199865|-0.6057586669921875|1.3626708984375|0.6083221435546875|21219.7000275|-3.054347917916064|-0.6569112623394372|-0.2213463909220302|-2.699980974197388|1.616532564163208|-0.6090567708015442|0.2810322642326355|1.027617573738098|1.276102066040039|XArbitraryZVertical|-0.3248619956732495|0.09046236096774764|-0.9383021343548186|0.07661916792981993|-0.5957751274108887|0.2195433676242828|-0.7725625038146973|0|0|0|-1|-1|3
2021-04-08 20:50:59.386 +0100|21219.7399465|-0.881072998046875|1.245498657226562|0.5251922607421875|21219.7199865|-3.086451514810903|-0.6328263218961157|-0.2504141411470951|-1.545183181762695|1.524206161499023|-0.161904588341713|0.03893738985061646|1.118679404258728|1.394672632217407|XArbitraryZVertical|-0.3118783003127405|0.1101250991364954|-0.9414886531532728|0.0648364152924354|-0.5729795098304749|0.2478052079677582|-0.7812087535858154|0|0|0|-1|-1|3
2021-04-08 20:50:59.406 +0100|21219.7599055|-0.9322357177734375|1.096878051757812|0.5366668701171875|21219.7399465|-3.10191850516515|-0.6105123025149759|-0.2703261058666627|-1.091128349304199|1.002266526222229|0.06595086306333542|-0.2711557149887085|1.017178893089294|1.328737020492554|XArbitraryZVertical|-0.3002871318537697|0.1225899813796404|-0.9440818641622403|0.05923623387933902|-0.5524677038192749|0.2670457065105438|-0.7895986437797546|0|0|0|-1|-1|3
2021-04-08 20:50:59.426 +0100|21219.7798655|-0.6508941650390625|0.9753875732421875|0.5797576904296875|21219.7599055|-3.113072082547951|-0.6023600582543257|-0.2913059358299008|-1.247893929481506|0.05109025910496712|0.2674354314804077|-0.4360719323158264|0.8432736396789551|1.329964756965637|XArbitraryZVertical|-0.2954528551874837|0.1344059668692213|-0.9441651288716504|0.05652430036113593|-0.5427181720733643|0.2872033715248108|-0.7892853021621704|0|0|0|-1|-1|3
2021-04-08 20:50:59.446 +0100|21219.7998245|-0.43438720703125|1.24273681640625|0.777374267578125|21219.7798655|-3.121619802309102|-0.6149998434923898|-0.3159868173896504|-1.211776852607727|-1.043686509132385|0.5260921120643616|-0.1649395823478699|0.7233326435089111|1.330411911010742|XArbitraryZVertical|-0.3003895258832699|0.1469643193906594|-0.9407000104522369|0.05701914697353688|-0.5483933091163635|0.3107545971870422|-0.7763352394104004|0|0|0|-1|-1|3
2021-04-08 20:50:59.465 +0100|21219.8197845|-0.490234375|1.555755615234375|0.917816162109375|21219.7998245|-3.118207662619267|-0.6430843043564357|-0.3362650923292123|-0.02423731982707977|-1.762874841690063|0.9041828513145447|0.1082111001014709|0.8331518769264221|1.458418130874634|XArbitraryZVertical|-0.3134087142387553|0.1551112796824721|-0.934688638786203|0.06381789840533815|-0.5660814046859741|0.3299636840820312|-0.7554309368133545|0|0|0|-1|-1|3
2021-04-08 20:50:59.485 +0100|21219.8397435|-0.6788177490234375|1.764419555664062|0.6724090576171875|21219.8197845|-3.088775168739447|-0.6687902767288683|-0.3355997848949955|1.719810843467712|-1.750105619430542|1.215232133865356|0.09644901752471924|1.162683248519897|1.656772613525391|XArbitraryZVertical|-0.3276411852929173|0.1491629211825632|-0.9295694923283265|0.07938707684144376|-0.5854473114013672|0.3293355405330658|-0.7408033609390259|0|0|0|-1|-1|3
2021-04-08 20:50:59.505 +0100|21219.8597025|-1.195022583007812|2.513534545898438|0.741302490234375|21219.8397435|-3.035589223140683|-0.6886358343363208|-0.3174886411189017|2.682338714599609|-1.927292585372925|1.588356256484985|0.02408897876739502|1.345425367355347|1.438389301300049|XArbitraryZVertical|-0.3407253776692782|0.1309334466854733|-0.9253384817334548|0.1025256576149138|-0.6037245392799377|0.3121817111968994|-0.733525276184082|0|0|0|-1|-1|3
2021-04-08 20:50:59.525 +0100|21219.8796625|-2.569625854492188|3.548660278320312|0.61920166015625|21219.8597025|-2.966655282888128|-0.7087078172381631|-0.2993672282537392|3.274827718734741|-2.159855842590332|2.347487449645996|-0.3862121105194092|1.71625280380249|1.397158622741699|XArbitraryZVertical|-0.3540107345013137|0.1093529268087259|-0.9193183626308645|0.1325600062479246|-0.621905505657196|0.294915646314621|-0.7254366874694824|0|0|0|-1|-1|3
2021-04-08 20:50:59.545 +0100|21219.8996215|-3.47003173828125|4.00567626953125|-0.2238311767578125|21219.8796625|-2.870067557619756|-0.7202086234892694|-0.2874004247767942|3.451479434967041|-2.036328554153442|4.116356372833252|-1.665697574615479|3.025178194046021|1.589260816574097|XArbitraryZVertical|-0.3636701263602104|0.08558720412356403|-0.9108616552429188|0.175356759595611|-0.6324897408485413|0.2834602296352386|-0.7208377122879028|0|0|0|-1|-1|3
2021-04-08 20:50:59.566 +0100|21219.9195815|-3.677322387695312|5.156509399414062|0.3812408447265625|21219.8996215|-2.751027518918652|-0.7362334267775995|-0.3244021872499433|0.9145455360412598|-3.267649412155151|7.115197658538818|-2.613294124603271|3.799436092376709|0.540289580821991|XArbitraryZVertical|-0.3776223771222789|0.07889633506659913|-0.8919826271037472|0.2356770963361539|-0.6364770531654358|0.3187422156333923|-0.7023534178733826|0|0|0|-1|-1|3
2021-04-08 20:50:59.586 +0100|21219.9395405|-3.875198364257812|5.395523071289062|-0.8238372802734375|21219.9195815|-2.595137634053162|-0.7493732585846608|-0.434887635428869|0.2744869291782379|-3.730761766433716|10.98133182525635|-3.082543849945068|4.832779884338379|1.033414244651794|XArbitraryZVertical|-0.3982815684494557|0.09688868945220383|-0.8536946004492176|0.3212322849629242|-0.6177740693092346|0.4213084876537323|-0.6639687418937683|0|0|0|-1|-1|3
2021-04-08 20:50:59.605 +0100|21219.9595005|-5.68017578125|5.880645751953125|-2.212005615234375|21219.9395405|-2.394865221010781|-0.7377047012179511|-0.6132386160489706|-1.356282472610474|-5.116233825683594|13.70510673522949|-2.893780469894409|4.613872051239014|0.2669638991355896|XArbitraryZVertical|-0.4227384021512954|0.1367650039847949|-0.7882805027908356|0.4256776795615437|-0.5500372648239136|0.5755189657211304|-0.6051751375198364|0|0|0|-1|-1|3
2021-04-08 20:50:59.625 +0100|21219.9794595|-6.5670166015625|4.224685668945312|-3.039306640625|21219.9595005|-2.096756101023168|-0.6388349708196011|-0.8058934684119641|1.787656664848328|-4.039054393768311|15.7483491897583|-4.848264217376709|5.128113269805908|-1.475130319595337|XArbitraryZVertical|-0.4361012806310261|0.1785008421620573|-0.6954422438252907|0.542506519490516|-0.412890762090683|0.721449613571167|-0.5559062361717224|0|0|0|-1|-1|3
2021-04-08 20:50:59.645 +0100|21219.9994195|-7.467803955078125|4.126663208007812|-2.254592895507812|21219.9794595|-1.619556798770218|-0.3276997418974078|-0.9128392077379996|3.53374981880188|-1.397874712944031|16.29462051391602|-6.171907901763916|3.634125947952271|-2.19581937789917|XArbitraryZVertical|-0.4059152160463602|0.2138981380954712|-0.5917224774604429|0.6628310706637979|-0.1968216449022293|0.7912431359291077|-0.5789608359336853|0|0|0|-1|-1|3
2021-04-08 20:50:59.666 +0100|21220.0193785|-7.719039916992188|0.8842926025390625|-1.354156494140625|21219.9994195|-1.06972253590171|0.07815963851841604|-0.897010769729822|4.447490215301514|-0.915488064289093|17.00558280944824|-6.525525569915771|2.257551670074463|-2.241694927215576|XArbitraryZVertical|-0.3548297068774789|0.251145127861089|-0.4735329352175408|0.7660214008243511|0.04871797934174538|0.7814652919769287|-0.6220440268516541|0|0|0|-1|-1|3
2021-04-08 20:50:59.685 +0100|21220.0393385|-5.488555908203125|-2.09698486328125|1.158004760742188|21220.0193785|-0.6310685666515644|0.3936231324412587|-0.6910696318011683|7.105423450469971|0.2151162028312683|17.11456298828125|-8.439064979553223|1.270048379898071|-0.9238008260726929|XArbitraryZVertical|-0.2586674998519886|0.2779802551277653|-0.3493065911249306|0.8566230717234111|0.295540064573288|0.6373617649078369|-0.7116361856460571|0|0|0|-1|-1|3
2021-04-08 20:50:59.705 +0100|21220.0592975|-3.640121459960938|-3.129043579101562|1.880844116210938|21220.0393385|-0.3650923942347417|0.5439544293633435|-0.428746541237046|5.591938972473145|0.5342686772346497|14.30202579498291|-6.601358413696289|-1.832615852355957|1.420401453971863|XArbitraryZVertical|-0.1538601547670116|0.2953251559645926|-0.2270574228855252|0.9151803692502448|0.4706813991069794|0.4157311320304871|-0.7782202363014221|0|0|0|-1|-1|3
2021-04-08 20:50:59.725 +0100|21220.0792565|-2.363815307617188|-2.78466796875|1.861953735351562|21220.0592975|-0.2084543174396813|0.6072046093807315|-0.2257728119276419|3.439069986343384|0.7077134251594543|9.132285118103027|-4.568285942077637|-3.220868110656738|2.63577675819397|XArbitraryZVertical|-0.07600627137119775|0.3066283935483379|-0.1321425977100971|0.9395427539002386|0.5560936331748962|0.2238596230745316|-0.8004041314125061|0|0|0|-1|-1|3
2021-04-08 20:50:59.759 +0100|21220.0992165|-2.597274780273438|-1.929244995117188|1.263580322265625|21220.0792565|-0.1281409911747252|0.6312339265984019|-0.1115284404949439|1.566453099250793|0.3790113627910614|3.956116676330566|-3.007175445556641|-3.435072660446167|2.594993352890015|XArbitraryZVertical|-0.03303039267701129|0.3126768833638581|-0.07803437549269761|0.9460723753776107|0.5864748954772949|0.1112973764538765|-0.802284300327301|0|0|0|-1|-1|3
2021-04-08 20:50:59.771 +0100|21220.1191755|-3.150543212890625|-0.414154052734375|1.038711547851562|21220.1191755|-0.1017026534506012|0.6571372456465913|-0.09510459697388704|-0.3760264813899994|1.625034689903259|-0.8030797839164734|-3.703505992889404|-0.6408740878105164|1.989933013916016|XArbitraryZVertical|-0.02854985123932065|0.3241939964587661|-0.06337488329321485|0.9434336385669982|0.6080923676490784|0.09496129304170609|-0.788166344165802|0|0|0|-1|-1|3
2021-04-08 20:50:59.785 +0100|21220.1391355|-2.225784301757812|-0.427886962890625|0.38018798828125||||||||||||||||||||||||3
2021-04-08 20:50:59.805 +0100|21220.1590945|-1.084243774414062|0.10369873046875|0.0157623291015625|21220.1391355|-0.09877262510815743|0.6899873641229282|-0.1288568515273374|-2.74991774559021|1.330471992492676|-1.054970979690552|-3.106241703033447|-0.6047264337539673|1.181363582611084|XArbitraryZVertical|-0.043855768209043|0.340068653973308|-0.06810853922545751|0.9369052297903346|0.6312503218650818|0.1285005509853363|-0.7648599743843079|0|0|0|-1|-1|3
2021-04-08 20:50:59.825 +0100|21220.1790545|-0.2009124755859375|0.409576416015625|-0.4017333984375|21220.1590945|-0.06932650097194702|0.7123635750895405|-0.1994012385474085|-4.031143665313721|0.4053270816802979|-1.305212020874023|-2.041338920593262|-0.2262035012245178|0.9095169305801392|XArbitraryZVertical|-0.08120756050637641|0.3499911560602298|-0.06700680542932039|0.9308178302268726|0.6406731009483337|0.1980824619531631|-0.7418230175971985|0|0|0|-1|-1|3
2021-04-08 20:50:59.845 +0100|21220.1990135|0.2545166015625|0.4720306396484375|-0.4651641845703125|21220.1790545|-0.04475316516028014|0.716457856203136|-0.2738159150959681|-2.876058340072632|-0.5294930338859558|-1.768594622612|-0.9887744188308716|0.07309961318969727|0.3766462206840515|XArbitraryZVertical|-0.1200132340362445|0.3501082165274657|-0.06859860545435555|0.9264531727457663|0.6322522759437561|0.2704071402549744|-0.7260420918464661|0|0|0|-1|-1|3
2021-04-08 20:50:59.865 +0100|21220.2189735|0.4600677490234375|0.2839813232421875|-0.6859130859375|21220.1990135|-0.05112844518147048|0.6959549801084624|-0.3274586743578155|-1.001021981239319|-1.358016729354858|-2.152068853378296|-0.4534112215042114|0.2049897313117981|0.3162311315536499|XArbitraryZVertical|-0.144579461601749|0.3402436153316327|-0.07927198807105296|0.9257684470891164|0.6070514321327209|0.3216377794742584|-0.7266620993614197|0|0|0|-1|-1|3
2021-04-08 20:50:59.885 +0100|21220.2389325|0.19744873046875|0.35308837890625|-0.957305908203125|21220.2189735|-0.07843237331093746|0.6483533840937702|-0.3673622231472477|-0.5891729593276978|-2.414137363433838|-2.316996812820435|-0.09597808122634888|-0.09488701820373535|0.06988519430160522|XArbitraryZVertical|-0.1607250384090539|0.3197173916255306|-0.09467332272935111|0.9289700367999127|0.5635830163955688|0.3591549098491669|-0.743896484375|0|0|0|-1|-1|3
2021-04-08 20:50:59.905 +0100|21220.2588925|-0.0255279541015625|0.3454132080078125|-1.0968017578125|21220.2389325|-0.1134544714044583|0.5831735313026647|-0.401371675464763|-0.4284918904304504|-2.712811708450317|-2.303759574890137|-0.2439267635345459|-0.01033991575241089|-0.09442746639251709|XArbitraryZVertical|-0.1746482533905792|0.2920746236847443|-0.1104266766583673|0.9338075415691296|0.5069113373756409|0.3906813859939575|-0.7683808207511902|0|0|0|-1|-1|3
2021-04-08 20:50:59.925 +0100|21220.2788515|-0.0959625244140625|0.5818634033203125|-1.118270874023438|21220.2588925|-0.1488768433039939|0.5143964047727253|-0.4371678186981982|-0.9262688755989075|-2.664984226226807|-2.325625419616699|-0.4233847558498383|-0.1163829267024994|-0.3234373331069946|XArbitraryZVertical|-0.1906663694107233|0.2632279810508653|-0.1252191535890331|0.9373781296466649|0.4457381367683411|0.4233753383159637|-0.7887147068977356|0|0|0|-1|-1|3
2021-04-08 20:50:59.945 +0100|21220.2988105|-0.1470794677734375|0.76190185546875|-1.321151733398438|21220.2788515|-0.1860425389801263|0.4490072247012009|-0.4735817609204909|-0.6920632123947144|-2.247294425964355|-2.335240602493286|-0.4670785069465637|0.1131684482097626|-0.2717427611351013|XArbitraryZVertical|-0.2076068070810246|0.2367177489690318|-0.140027164016427|0.9387527637570683|0.3862977027893066|0.4560767710208893|-0.8017282485961914|0|0|0|-1|-1|3
2021-04-08 20:50:59.965 +0100|21220.3187705|-0.249725341796875|0.7136383056640625|-1.3206787109375|21220.2988105|-0.2312616637311761|0.3849460771896814|-0.5007327515301483|-0.174656942486763|-2.093892812728882|-2.455307960510254|-0.4422936141490936|0.2383618950843811|-0.4770506024360657|XArbitraryZVertical|-0.2201785880910835|0.2121422035041367|-0.156788661566595|0.9391137419196032|0.3294083178043365|0.4800684452056885|-0.8130341768264771|0|0|0|-1|-1|3
2021-04-08 20:50:59.985 +0100|21220.3387295|-0.38336181640625|0.64215087890625|-1.208709716796875|21220.3387295|-0.3430106033339444|0.2447233897787112|-0.5348661462298225|-0.1283034980297089|-2.057060956954956|-2.715158224105835|-0.5686491727828979|0.1577705144882202|-0.4027850031852722|XArbitraryZVertical|-0.2383424895615091|0.1607530611255608|-0.1951493573001993|0.9376930071495682|0.2084492743015289|0.5097258687019348|-0.8347026109695435|0|0|0|-1|-1|3
2021-04-08 20:51:00.005 +0100|21220.3586895|-0.3476409912109375|0.5293121337890625|-1.194671630859375||||||||||||||||||||||||3
2021-04-08 20:51:00.025 +0100|21220.378648|-0.2624969482421875|0.5214385986328125|-1.146133422851562|21220.3586895|-0.4059858200953088|0.1735757860022243|-0.5519000916944559|-0.4601593613624573|-1.836363315582275|-2.935379266738892|-0.5075231790542603|0.02807790040969849|-0.3607282638549805|XArbitraryZVertical|-0.2490489295029973|0.1364090997727612|-0.2163760937236682|0.9341032378507235|0.1470638960599899|0.5243061780929565|-0.8387343883514404|0|0|0|-1|-1|3
2021-04-08 20:51:00.045 +0100|21220.398608|-0.261627197265625|0.543243408203125|-1.232406616210938|21220.378648|-0.4748514502358817|0.1025921191716224|-0.5717512068951865|-0.6554448008537292|-1.59913694858551|-3.11353588104248|-0.3736921548843384|-0.02816551923751831|-0.2994835376739502|XArbitraryZVertical|-0.2621559236271793|0.1140515584752219|-0.2394122712329209|0.9278731361209325|0.08612406253814697|0.5411055684089661|-0.8365330100059509|0|0|0|-1|-1|3
2021-04-08 20:51:00.065 +0100|21220.418567|-0.378936767578125|0.49267578125|-1.081314086914062|21220.398608|-0.5502379824408195|0.03102486898009305|-0.5894186633014364|-0.6914409399032593|-1.441165924072266|-3.326982021331787|-0.2735894620418549|-0.02195709943771362|-0.3914257287979126|XArbitraryZVertical|-0.2754723509989931|0.09318257190908903|-0.2642540485066038|0.9195662051479856|0.02578571997582912|0.5558778643608093|-0.8308640122413635|0|0|0|-1|-1|3
2021-04-08 20:51:00.085 +0100|21220.438527|-0.570556640625|0.29534912109375|-0.7330169677734375|21220.438527|-0.7334849359340523|-0.1363132556961502|-0.623941327887787|-1.677300095558167|-1.933365225791931|-4.176936149597168|-0.4242903292179108|-0.2589206695556641|-0.01216906309127808|XArbitraryZVertical|-0.3091001212040936|0.04929774198082395|-0.3209623956216656|0.893873733040263|-0.1102871149778366|0.5842384099960327|-0.8040537238121033|0|0|0|-1|-1|3
2021-04-08 20:51:00.105 +0100|21220.458486|-0.7244415283203125|0.3153228759765625|-0.457855224609375||||||||||||||||||||||||3
2021-04-08 20:51:00.125 +0100|21220.478446|-0.8521728515625|0.3805389404296875|-0.1494903564453125|21220.458486|-0.8515771987420762|-0.2504765194725206|-0.6478083882892745|-2.430855512619019|-2.472338676452637|-4.70213508605957|-0.4919871687889099|-0.3135383129119873|0.2495148777961731|XArbitraryZVertical|-0.3364930195733213|0.02258559513812343|-0.3522884930142611|0.873015073757638|-0.1976501047611237|0.6034402251243591|-0.7725246548652649|0|0|0|-1|-1|3
2021-04-08 20:51:00.144 +0100|21220.498405|-1.009719848632812|0.1882781982421875|0.360260009765625|21220.478446|-0.9903331453133185|-0.387377986772664|-0.6660951792550845|-2.675978660583496|-2.68309760093689|-5.148194313049316|-0.5297867059707642|-0.216888964176178|0.4857342839241028|XArbitraryZVertical|-0.3687151947042205|-0.007612409008332649|-0.3853017907160645|0.8458923527468742|-0.2970117926597595|0.6179205775260925|-0.7279823422431946|0|0|0|-1|-1|3
2021-04-08 20:51:00.164 +0100|21220.518365|-1.385574340820312|-0.145599365234375|1.037582397460938|21220.498405|-1.141019957460454|-0.5339355777537615|-0.6670295679098878|-2.612199544906616|-2.60157299041748|-5.433269500732422|-0.549391508102417|-0.3618953824043274|0.877403199672699|XArbitraryZVertical|-0.4003813767758161|-0.03925843228845592|-0.4195410142065842|0.8137191745189343|-0.3998434841632843|0.6186549663543701|-0.6763070821762085|0|0|0|-1|-1|3
2021-04-08 20:51:00.184 +0100|21220.538324|-1.538955688476562|-0.558807373046875|0.92822265625|21220.518365|-1.29044969332891|-0.6732973064152511|-0.6442563487401877|-2.336692333221436|-2.120810031890869|-5.615818023681641|-0.7889819145202637|-0.6243315935134888|1.509034156799316|XArbitraryZVertical|-0.4271754481810263|-0.07064277825463637|-0.4548717809985507|0.7782175173382962|-0.4985710084438324|0.6006039977073669|-0.6250614523887634|0|0|0|-1|-1|3
2021-04-08 20:51:00.204 +0100|21220.558284|-1.815765380859375|-0.5897064208984375|0.30657958984375|21220.538324|-1.434256613027774|-0.7959029070686821|-0.6042969736699241|-2.670062303543091|-1.885755658149719|-5.82402515411377|-0.9522480964660645|-1.040596127510071|1.580999851226807|XArbitraryZVertical|-0.4499093156807544|-0.09856034226660952|-0.4915044429166338|0.7391149329212012|-0.5879597067832947|0.5681837201118469|-0.5757349133491516|0|0|0|-1|-1|3
2021-04-08 20:51:00.224 +0100|21220.578243|-2.29266357421875|-0.367218017578125|-0.4449310302734375|21220.558284|-1.587024073903039|-0.9225183534620259|-0.5537844918913595|-3.821147918701172|-2.36767053604126|-6.436550617218018|-1.04291558265686|-1.182862281799316|0.9644055962562561|XArbitraryZVertical|-0.4768635591788677|-0.1257648008594115|-0.5286795064759028|0.6908563081938897|-0.6779868006706238|0.5259098410606384|-0.5135686993598938|0|0|0|-1|-1|3
2021-04-08 20:51:00.259 +0100|21220.598202|-2.982437133789062|-0.286346435546875|-0.670379638671875|21220.578243|-1.762023945688188|-1.056588571805863|-0.4892504324144028|-5.412286281585693|-2.12503457069397|-7.211698055267334|-1.389405488967896|-0.8420352935791016|0.2247946858406067|XArbitraryZVertical|-0.5103604481765602|-0.1498663498422035|-0.5686964879687356|0.6274206042412435|-0.7685388326644897|0.4699643850326538|-0.4341445863246918|0|0|0|-1|-1|3
2021-04-08 20:51:00.271 +0100|21220.618162|-3.297622680664062|0.8449554443359375|-0.1130828857421875|21220.598202|-1.961477936769723|-1.174470170037694|-0.4117191522738845|-7.232550144195557|-0.8756367564201355|-7.475990295410156|-1.936036467552185|-0.8241668939590454|-0.3240524530410767|XArbitraryZVertical|-0.5453353678944729|-0.1603835936510515|-0.6140904313393156|0.5475213089786737|-0.8453973531723022|0.4001854062080383|-0.3537728786468506|0|0|0|-1|-1|3
2021-04-08 20:51:00.284 +0100|21220.638121|-2.79217529296875|0.8645477294921875|-0.7674407958984375|21220.618162|-2.158428098517066|-1.238269042472946|-0.3252979681584691|-6.614617347717285|1.834345102310181|-6.925674438476562|-2.415325880050659|0.2469057738780975|0.1004057228565216|XArbitraryZVertical|-0.5671073444700975|-0.1540538211495886|-0.6641142751982397|0.4621786598955981|-0.8956489562988281|0.3195911347866058|-0.3093133568763733|0|0|0|-1|-1|3
2021-04-08 20:51:00.304 +0100|21220.658081|-2.5572509765625|1.47845458984375|-1.360992431640625|21220.638121|-2.330705749591647|-1.229457283385651|-0.2459315077299642|-6.631741523742676|3.409201383590698|-5.940033435821533|-2.038728713989258|0.6225669384002686|-0.1952354609966278|XArbitraryZVertical|-0.5654997308659583|-0.1336846798995493|-0.7171293442971698|0.3847909201060243|-0.9139541983604431|0.2434599101543427|-0.3246769309043884|0|0|0|-1|-1|3
2021-04-08 20:51:00.324 +0100|21220.67804|-2.826522827148438|2.538589477539062|-1.2861328125|21220.658081|-2.501031455298371|-1.195888757775852|-0.1921012344086099|-7.061536312103271|3.57718563079834|-4.923450469970703|-1.648724913597107|1.131556272506714|-0.8737950921058655|XArbitraryZVertical|-0.5568091763386525|-0.1011840804834648|-0.7638519590920333|0.3102510056562122|-0.9134244918823242|0.1909219026565552|-0.35945063829422|0|0|0|-1|-1|3
2021-04-08 20:51:00.344 +0100|21220.698|-3.521713256835938|3.541122436523438|-0.3524932861328125|21220.67804|-2.662022574619852|-1.152482538319774|-0.1639845333515137|-6.014365196228027|3.783043384552002|-3.742565393447876|-1.744433879852295|1.909914255142212|-1.028916835784912|XArbitraryZVertical|-0.5438183354577062|-0.06225994759076931|-0.8011911959957998|0.2418223128312565|-0.9015166163444519|0.1632505655288696|-0.4007706344127655|0|0|0|-1|-1|3
2021-04-08 20:51:00.364 +0100|21220.717959|-2.084182739257812|2.309677124023438|-0.0911712646484375|21220.698|-2.771165142253115|-1.073011563731964|-0.1515190932296688|-3.084255218505859|6.112819194793701|-1.923483490943909|-2.679047107696533|3.358351469039917|-0.1192989945411682|XArbitraryZVertical|-0.5129326927194779|-0.02991863634312089|-0.835252451030695|0.1958533999168957|-0.8685759305953979|0.1509400010108948|-0.4720098674297333|0|0|0|-1|-1|3
2021-04-08 20:51:00.384 +0100|21220.737919|-1.250946044921875|2.061309814453125|0.1699066162109375|21220.717959|-2.819380751083132|-0.9453368302304511|-0.1611326167203437|-2.101927995681763|6.797826766967773|0.163616880774498|-1.678780794143677|2.443337678909302|0.5141801834106445|XArbitraryZVertical|-0.4594048396765928|-0.002064694188516224|-0.8700991516149391|0.1785236217295816|-0.8001927137374878|0.1604362577199936|-0.5778858661651611|0|0|0|-1|-1|3
2021-04-08 20:51:00.404 +0100|21220.757878|-0.320281982421875|2.425308227539062|1.048431396484375|21220.737919|-2.854665857950622|-0.8309698852285671|-0.2095801904456628|-3.672386884689331|5.350680828094482|1.216913819313049|-0.6980624198913574|1.830966353416443|0.6418753862380981|XArbitraryZVertical|-0.4109779446372266|0.0373244383631972|-0.8945181773675962|0.1718760330789775|-0.7224241495132446|0.2080492973327637|-0.6594080328941345|0|0|0|-1|-1|3
2021-04-08 20:51:00.424 +0100|21220.777838|0.06048583984375|2.601181030273438|1.636795043945312|21220.757878|-2.883461319715587|-0.7374412950681666|-0.2779321014773291|-2.779796600341797|4.762908458709717|1.526550650596619|0.1120164394378662|2.191604137420654|1.573511004447937|XArbitraryZVertical|-0.3706091119097422|0.08219261781547896|-0.9096875779839821|0.168409900234691|-0.646592915058136|0.2743676900863647|-0.7117865085601807|0|0|0|-1|-1|3
2021-04-08 20:51:00.444 +0100|21220.797797|0.102935791015625|1.634063720703125|1.870498657226562|21220.777838|-2.874994763134772|-0.6455462300461351|-0.3141847483745653|0.4648384153842926|4.22728157043457|1.393988490104675|0.6706642508506775|2.405603170394897|2.250560522079468|XArbitraryZVertical|-0.3302313431820011|0.1054139302108336|-0.9217769084009285|0.1736736670315889|-0.5721840262413025|0.3090412318706512|-0.7596703171730042|0|0|0|-1|-1|3
2021-04-08 20:51:00.464 +0100|21220.817757|0.0980682373046875|0.8609619140625|2.018753051757812|21220.797797|-2.837733613161364|-0.5614417744688168|-0.3093576798125242|1.322878241539001|2.682632446289062|1.238529443740845|0.5528488159179688|1.596171617507935|2.650100469589233|XArbitraryZVertical|-0.292991483974526|0.1048974432874131|-0.9319885480259265|0.185876458385179|-0.5071334838867188|0.3044468760490417|-0.8063050508499146|0|0|0|-1|-1|3
2021-04-08 20:51:00.484 +0100|21220.837716|-0.2453460693359375|0.9613800048828125|1.478683471679688|21220.817757|-2.809501624416685|-0.5277005252506274|-0.3133327089560286|-0.3014879524707794|-0.1445109844207764|1.206611275672913|0.6130794882774353|0.5982165932655334|2.862490177154541|XArbitraryZVertical|-0.2789584596470986|0.1059769861152028|-0.9337288906922439|0.1977413408127128|-0.4790310859680176|0.3082307875156403|-0.8219020962715149|0|0|0|-1|-1|3
2021-04-08 20:51:00.504 +0100|21220.857676|-0.66546630859375|1.28985595703125|0.9902801513671875|21220.837716|-2.797364168513825|-0.5469430889664745|-0.3369099853763164|-0.7502090334892273|-1.902215719223022|0.9796474575996399|0.2921554744243622|0.4757773578166962|2.43563175201416|XArbitraryZVertical|-0.2899660091266408|0.1134439402687778|-0.9274304112437681|0.207178867248072|-0.4908402264118195|0.3305723667144775|-0.8061003684997559|0|0|0|-1|-1|3
2021-04-08 20:51:00.524 +0100|21220.877635|-1.028182983398438|1.307937622070312|0.6333465576171875|21220.857676|-2.781598821144428|-0.5850869575347745|-0.34790629391463|0.8806186318397522|-2.211506605148315|0.8969050645828247|0.036213219165802|0.8211475610733032|1.842814922332764|XArbitraryZVertical|-0.3091164000957492|0.1121962924870013|-0.9188912463957216|0.2179404017913237|-0.5191844701766968|0.3409302830696106|-0.7837181091308594|0|0|0|-1|-1|3
2021-04-08 20:51:00.544 +0100|21220.897595|-1.436614990234375|1.589920043945312|0.1197662353515625|21220.877635|-2.743887949587533|-0.6124614673551195|-0.333279114092524|1.893546462059021|-2.02023458480835|1.195483922958374|-0.4996271729469299|0.96002596616745|1.601138114929199|XArbitraryZVertical|-0.322674581758038|0.09630785160212398|-0.9118619206085806|0.2347636674360504|-0.5432501435279846|0.3271434605121613|-0.7732118368148804|0|0|0|-1|-1|3
2021-04-08 20:51:00.564 +0100|21220.917554|-2.000595092773438|2.82781982421875|-0.32696533203125|21220.897595|-2.706339786139037|-0.6511012072463292|-0.3339404300126622|0.2976352274417877|-2.940765142440796|1.862829327583313|-0.790179967880249|0.9870805740356445|0.8355674743652344|XArbitraryZVertical|-0.3419424256952209|0.0856566953974905|-0.900783913781399|0.2536274486743332|-0.5725827217102051|0.3277683258056641|-0.7514766454696655|0|0|0|-1|-1|3
2021-04-08 20:51:00.583 +0100|21220.937514|-3.2291259765625|5.223709106445312|-1.191009521484375|21220.917554|-2.66189691824022|-0.694436084523395|-0.3618384496779685|0.2132205963134766|-2.857471942901611|3.335630178451538|-1.100995063781738|2.140786170959473|0.7110893726348877|XArbitraryZVertical|-0.3653407086460982|0.08483598064725338|-0.8839524444966658|0.2792082656241436|-0.5985137820243835|0.3539942502975464|-0.7186580300331116|0|0|0|-1|-1|3
2021-04-08 20:51:00.603 +0100|21220.957473|-2.23095703125|5.537429809570312|-0.293853759765625|21220.937514|-2.580086469864941|-0.7131467021009296|-0.4105539671712588|0.6859031915664673|-2.102643489837646|5.819099903106689|-2.447939395904541|4.498022079467773|-0.4101953506469727|XArbitraryZVertical|-0.3812831493148344|0.0888496125545388|-0.8617888774431099|0.3225661904238052|-0.5998513698577881|0.3991173207759857|-0.6934578418731689|0|0|0|-1|-1|3
2021-04-08 20:51:00.623 +0100|21220.977433|-2.557220458984375|5.524063110351562|0.1356658935546875|21220.957473|-2.442411673706469|-0.6968449973094759|-0.5003202933790593|0.3576535582542419|-2.750786542892456|9.569026947021484|-1.955542087554932|5.249601364135742|0.1740952730178833|XArbitraryZVertical|-0.3904771095123276|0.1053102549849163|-0.8266235008917282|0.3913196537471028|-0.5631351470947266|0.4797065854072571|-0.6728747487068176|0|0|0|-1|-1|3
2021-04-08 20:51:00.643 +0100|21220.997392|-3.27691650390625|4.031646728515625|-0.2320404052734375|21220.977433|-2.227724359093146|-0.6572949406053856|-0.6329606484720766|1.172192454338074|-4.915475845336914|12.59561634063721|-1.813152670860291|4.905352115631104|0.6989889740943909|XArbitraryZVertical|-0.4052282314155782|0.1290164492555847|-0.7628777768975052|0.4869933326701196|-0.4926189184188843|0.591534435749054|-0.6382896900177002|0|0|0|-1|-1|3
2021-04-08 20:51:00.663 +0100|21221.017352|-4.371307373046875|4.250076293945312|-1.159774780273438|21220.997392|-1.931395687885418|-0.5861477391543605|-0.7760035886543991|-0.1405690908432007|-7.014166355133057|13.74375915527344|-2.649194478988647|3.351629734039307|0.3238462209701538|XArbitraryZVertical|-0.4259790973909867|0.1457748360021457|-0.6666740613805756|0.5940010987242971|-0.3947975933551788|0.7004327178001404|-0.5945830345153809|0|0|0|-1|-1|3
2021-04-08 20:51:00.683 +0100|21221.037311|-5.591110229492188|5.438644409179688|-0.8546142578125|21221.017352|-1.60213323351069|-0.4808643271967137|-0.9566052451940336|-3.797445774078369|-6.94997501373291|13.52581596374512|-3.848396778106689|3.04999303817749|-0.1506780385971069|XArbitraryZVertical|-0.4629146895205224|0.1738922498747486|-0.5428979721525585|0.678773439850806|-0.2665640115737915|0.8172398805618286|-0.5109429359436035|0|0|0|-1|-1|3
2021-04-08 20:51:00.703 +0100|21221.057271|-7.716567993164062|6.130996704101562|-0.03179931640625|21221.037311|-1.126161730845562|-0.1952296038200438|-1.156637757040488|-5.933340072631836|-6.085609912872314|15.21934604644775|-5.386321067810059|4.020229339599609|-0.9561154842376709|XArbitraryZVertical|-0.5035903014599562|0.2213799729054838|-0.3998133147548197|0.7331693332727268|-0.07806620001792908|0.9154552817344666|-0.3947754204273224|0|0|0|-1|-1|3
2021-04-08 20:51:00.723 +0100|21221.07723|-7.130142211914062|4.284713745117188|-0.508056640625|21221.057271|-0.2342800321043718|0.5565422938149109|-1.211734098263783|-4.975382804870605|-2.391279220581055|16.17644309997559|-7.884571552276611|5.716804027557373|0.512035608291626|XArbitraryZVertical|-0.517425829492589|0.2882486158817434|-0.247733379193304|0.7666887815509977|0.1856266558170319|0.9362267851829529|-0.2983664870262146|0|0|0|-1|-1|3
2021-04-08 20:51:00.757 +0100|21221.097189|-6.694732666015625|2.630111694335938|-0.5468597412109375|21221.07723|0.4618731660098377|1.134973021915022|-1.025293898695266|-5.942618370056152|-3.496936559677124|16.70504188537598|-7.521144866943359|3.878547668457031|-0.4923901557922363|XArbitraryZVertical|-0.5098396160343344|0.3613114697194553|-0.08844371798136576|0.7756902668073556|0.4703473448753357|0.8548667430877686|-0.2190351784229279|0|0|0|-1|-1|3
2021-04-08 20:51:00.775 +0100|21221.117149|-5.8258056640625|-0.4424896240234375|-0.613067626953125|21221.097189|0.7961420970988583|1.310542067423136|-0.7511329572288729|-4.320420742034912|-4.938166618347168|15.66277027130127|-7.614017963409424|2.568235397338867|-0.1510267704725266|XArbitraryZVertical|-0.4878432011909682|0.4098378207249212|0.07988989260491659|0.7665896457166793|0.7063023447990417|0.6824672818183899|-0.1880839467048645|0|0|0|-1|-1|3
2021-04-08 20:51:00.783 +0100|21221.137108|-5.696746826171875|-3.009490966796875|-0.0773468017578125|21221.117149|0.9417591631280676|1.298073147578112|-0.4829443956225227|0.1447061002254486|-4.55348014831543|13.08810997009277|-6.743402481079102|-0.1982136368751526|-0.5742552280426025|XArbitraryZVertical|-0.4360270458275381|0.4365842427560732|0.2221316866745307|0.7549385167566652|0.8528993725776672|0.4643888473510742|-0.2385492324829102|0|0|0|-1|-1|3
2021-04-08 20:51:00.803 +0100|21221.157068|-4.416229248046875|-4.046875|-0.1239166259765625|21221.137108|0.9715183262921283|1.235259258027689|-0.2590214469445587|3.392969369888306|-2.890042066574097|8.969459533691406|-6.706710815429688|-2.691116094589233|0.1368809640407562|XArbitraryZVertical|-0.3612171927245474|0.4586677623671616|0.3112987377801572|0.7498260976675102|0.9127350449562073|0.2561347782611847|-0.3182920515537262|0|0|0|-1|-1|3
2021-04-08 20:51:00.823 +0100|21221.177027|-3.832305908203125|-3.316741943359375|-0.0836029052734375|21221.157068|0.9425930040372239|1.184332451792916|-0.1052178942735773|4.513659477233887|-2.01537561416626|4.271929740905762|-5.614179611206055|-4.122936725616455|0.2838433980941772|XArbitraryZVertical|-0.2919517964377067|0.476810894226677|0.350061652551746|0.7515800298263663|0.9211253523826599|0.1050238609313965|-0.3748310506343842|0|0|0|-1|-1|3
2021-04-08 20:51:00.843 +0100|21221.196987|-3.128311157226562|-2.61798095703125|0.4573974609375|21221.177027|0.8779047982877966|1.135696542618732|-0.036256689539792|3.693381309509277|-2.673103332519531|-0.449707955121994|-4.924450874328613|-3.637032032012939|0.3132531642913818|XArbitraryZVertical|-0.2423646020053148|0.4802576802816668|0.3494094731304716|0.7671539274498413|0.9062321186065674|0.03624874725937843|-0.421223908662796|0|0|0|-1|-1|3
2021-04-08 20:51:00.863 +0100|21221.216946|-2.500473022460938|-1.364288330078125|0.15594482421875|21221.196987|0.8153850690501515|1.071659295112775|-0.05308426923180518|1.029236316680908|-3.267714500427246|-3.413038015365601|-4.175999164581299|-2.788135051727295|0.7977726459503174|XArbitraryZVertical|-0.2233086172858112|0.4594957639375766|0.3283626898178648|0.7944652465546195|0.8767592906951904|0.05305933952331543|-0.4779938161373138|0|0|0|-1|-1|3
2021-04-08 20:51:00.883 +0100|21221.236906|-2.180679321289062|0.1556396484375|-0.8385772705078125|21221.216946|0.7737424436405869|1.009060673324084|-0.1219355170101|-0.8012850880622864|-2.554315567016602|-4.461674213409424|-3.463796615600586|-1.85985267162323|0.8923641443252563|XArbitraryZVertical|-0.2314392562429311|0.4267146099683838|0.3023924429471191|0.8203105486947874|0.8400479555130005|0.1216335818171501|-0.5287010073661804|0|0|0|-1|-1|3
2021-04-08 20:51:00.903 +0100|21221.256865|-1.611953735351562|0.8509674072265625|-1.061004638671875|21221.236906|0.7453035952290329|0.9580505594457345|-0.2182922203503994|-2.082915306091309|-2.099035263061523|-5.170086860656738|-3.049619436264038|-0.430230438709259|-0.09900861978530884|XArbitraryZVertical|-0.2568481899377092|0.3915292977946768|0.2744227230944331|0.8398964386340139|0.7986580729484558|0.2165626883506775|-0.5614676475524902|0|0|0|-1|-1|3
2021-04-08 20:51:00.923 +0100|21221.276825|-0.9270172119140625|1.42144775390625|-0.97357177734375|21221.256865|0.7166968769890479|0.9128477943110638|-0.3334909668356066|-2.360648155212402|-1.647203683853149|-5.679365158081055|-2.528325080871582|0.3896679282188416|-0.4774620532989502|XArbitraryZVertical|-0.2919561667127805|0.3547663606947379|0.2419542911346892|0.8546113991401671|0.7476548552513123|0.3273436427116394|-0.5778048634529114|0|0|0|-1|-1|3
2021-04-08 20:51:00.943 +0100|21221.296784|-0.3607025146484375|1.702377319335938|-1.368316650390625|21221.276825|0.6734959285027711|0.8667365606701246|-0.4512480920471531|-1.934218168258667|-1.334813594818115|-5.983651638031006|-1.769726514816284|0.8245474100112915|-0.3772082328796387|XArbitraryZVertical|-0.3268663953065169|0.3192126250643943|0.2036058835988664|0.8659136901180151|0.6859250068664551|0.436089038848877|-0.5825233459472656|0|0|0|-1|-1|3
2021-04-08 20:51:00.963 +0100|21221.316744|-0.7472991943359375|1.876556396484375|-1.25921630859375|21221.296784|0.6121527669414487|0.8083601090884794|-0.5685134114767929|-1.961260795593262|-1.674426674842834|-6.309987545013428|-1.051604747772217|1.129116773605347|-0.7023048996925354|XArbitraryZVertical|-0.3596065975211964|0.2822447201284923|0.1607604079051101|0.8747440252758032|0.6094047427177429|0.5383799076080322|-0.5820420384407043|0|0|0|-1|-1|3
2021-04-08 20:51:00.983 +0100|21221.336703|-0.79302978515625|2.207870483398438|-1.513595581054688|21221.316744|0.5315771444286538|0.7254041706514907|-0.6817741060779253|-1.501528739929199|-1.670983672142029|-6.202229976654053|-1.123803853988647|1.141573190689087|-0.7269682884216309|XArbitraryZVertical|-0.3894301323696253|0.2405407011263096|0.1169969064868146|0.8813603635243917|0.515130341053009|0.630171537399292|-0.5809686779975891|0|0|0|-1|-1|3
2021-04-08 20:51:01.003 +0100|21221.356663|-0.5152130126953125|2.105224609375|-1.567245483398438|21221.336703|0.4207383466377534|0.6258890256669153|-0.7731335727017231|-0.5339265465736389|-0.9438329935073853|-6.019808292388916|-1.297123789787292|1.515456199645996|-0.8019331097602844|XArbitraryZVertical|-0.4103358358549161|0.2039536740946257|0.07050980770673802|0.8860338868776282|0.4192851483821869|0.6983814239501953|-0.5800548195838928|0|0|0|-1|-1|3
2021-04-08 20:51:01.023 +0100|21221.3766215|-0.28668212890625|1.966522216796875|-1.266036987304688|21221.356663|0.2812319521911682|0.509167575442562|-0.8412101737003472|-0.07545403391122818|-0.5949313044548035|-5.812584400177002|-0.8869432806968689|1.377749919891357|-1.050452470779419|XArbitraryZVertical|-0.4234720766425711|0.1722416818478622|0.02199831971310681|0.8891121955427747|0.3249157071113586|0.7454503178596497|-0.582008421421051|0|0|0|-1|-1|3
2021-04-08 20:51:01.043 +0100|21221.3965815|-0.219818115234375|1.867431640625|-1.106292724609375|21221.3766215|0.1219764376113165|0.380129092643411|-0.8915830167502887|-0.2953171133995056|-0.2299516350030899|-5.708746433258057|-0.5681032538414001|1.238611459732056|-0.7304261922836304|XArbitraryZVertical|-0.4330099075768322|0.144335039440387|-0.02730316264528606|0.8893393934551485|0.2330805957317352|0.7780671715736389|-0.5833396315574646|0|0|0|-1|-1|3
2021-04-08 20:51:01.063 +0100|21221.4165405|-0.3540496826171875|2.0479736328125|-0.9183197021484375|21221.3965815|-0.04459904296674244|0.2420996298168378|-0.9464240982717732|-1.876991868019104|-0.381112813949585|-5.588306427001953|-0.3486164212226868|1.029582262039185|-0.6289927959442139|XArbitraryZVertical|-0.4499035071695931|0.1175455845152937|-0.07472194874527241|0.882148932081105|0.1401500850915909|0.811330258846283|-0.5675397515296936|0|0|0|-1|-1|3
2021-04-08 20:51:01.083 +0100|21221.4365005|-0.4927520751953125|2.209442138671875|-0.73858642578125|21221.4165405|-0.2227963488885231|0.08851944903688928|-1.012869266446744|-2.840413570404053|-0.0555616170167923|-5.243799209594727|-0.3816890120506287|1.140720844268799|-0.4289574027061462|XArbitraryZVertical|-0.4772825450735909|0.09232233437520949|-0.1184475518139924|0.8658222538813367|0.04680356383323669|0.8483543992042542|-0.5273559093475342|0|0|0|-1|-1|3
2021-04-08 20:51:01.103 +0100|21221.4564595|-0.471954345703125|2.067367553710938|-0.5777740478515625|21221.4365005|-0.418607880494994|-0.07470174051480248|-1.067819732126676|-2.368150472640991|0.7608003616333008|-4.71370792388916|-0.3995112776756287|1.307457804679871|-0.3138482570648193|XArbitraryZVertical|-0.5041283169850831|0.07422208316763899|-0.1601476253364011|0.8453984940986288|-0.03597543016076088|0.8761516213417053|-0.4806914329528809|0|0|0|-1|-1|3
2021-04-08 20:51:01.123 +0100|21221.4764195|-0.396392822265625|1.636367797851562|-0.35009765625|21221.4564595|-0.6195967299214483|-0.226497280298642|-1.090328986162181|-1.230754137039185|1.676021575927734|-4.331048965454102|-0.4142897129058838|1.241074681282043|-0.1640360355377197|XArbitraryZVertical|-0.5201669554208924|0.06505284221055019|-0.2031929829257868|0.8269868420829725|-0.1037928611040115|0.8867790102958679|-0.4503889381885529|0|0|0|-1|-1|3
2021-04-08 20:51:01.143 +0100|21221.4963785|-0.2804107666015625|0.83734130859375|-0.02166748046875|21221.4764195|-0.8031569125254902|-0.3507195498868894|-1.078834882882457|-0.1737825870513916|2.142937183380127|-4.262168407440186|-0.2552534341812134|0.9235391020774841|0.04397445917129517|XArbitraryZVertical|-0.5240330327328603|0.05990525928814335|-0.2477464812959458|0.8126638666220457|-0.1622889935970306|0.8814080357551575|-0.4436014890670776|0|0|0|-1|-1|3
2021-04-08 20:51:01.163 +0100|21221.5163385|-0.6636810302734375|0.0158538818359375|0.4450531005859375|21221.4963785|-0.9662167437371754|-0.4509425871723564|-1.045227668180407|-0.03309133276343346|1.908824920654297|-4.448568820953369|-0.05306403338909149|0.1916782855987549|0.321747213602066|XArbitraryZVertical|-0.5208251054688759|0.05444869468442787|-0.2935174644255728|0.7997651114325385|-0.2186501920223236|0.8650388121604919|-0.4515531063079834|0|0|0|-1|-1|3
2021-04-08 20:51:01.183 +0100|21221.5362975|-1.645156860351562|-0.2222900390625|0.867706298828125|21221.5163385|-1.127455900570277|-0.5596070885252072|-1.003943083443027|-0.2671743333339691|0.918603241443634|-4.998629570007324|-0.2242359220981598|-0.6719334721565247|0.7620787024497986|XArbitraryZVertical|-0.5202510399513723|0.04246430274926807|-0.3378868235825049|0.7831782884555458|-0.2850576937198639|0.8435949087142944|-0.4550712704658508|0|0|0|-1|-1|3
2021-04-08 20:51:01.203 +0100|21221.5562575|-1.494140625|-0.2781219482421875|0.638763427734375|21221.5362975|-1.29474994983211|-0.6848173005062116|-0.9410949533325346|-0.1138969287276268|0.7463141679763794|-6.238744258880615|-1.058607459068298|-1.052862882614136|1.231746435165405|XArbitraryZVertical|-0.5211352724474481|0.01883852676701741|-0.3849208120009325|0.7615112298694214|-0.3725001215934753|0.808203399181366|-0.4561262726783752|0|0|0|-1|-1|3
2021-04-08 20:51:01.223 +0100|21221.5762165|-1.246261596679688|-0.1565399169921875|0.3791961669921875|21221.5562575|-1.458913798530892|-0.792894305516498|-0.8518150030162519|-0.108434833586216|0.9069406390190125|-7.353803634643555|-1.197023391723633|-0.9694725275039673|1.262411594390869|XArbitraryZVertical|-0.5184866660848657|-0.008173889681025122|-0.4409131885066176|0.7325983864695286|-0.4691915810108185|0.7524770498275757|-0.4622095227241516|0|0|0|-1|-1|3
