loggingTime(txt)|accelerometerTimestamp_sinceReboot(s)|accelerometerAccelerationX(G)|accelerometerAccelerationY(G)|accelerometerAccelerationZ(G)|motionTimestamp_sinceReboot(s)|motionYaw(rad)|motionRoll(rad)|motionPitch(rad)|motionRotationRateX(rad/s)|motionRotationRateY(rad/s)|motionRotationRateZ(rad/s)|motionUserAccelerationX(G)|motionUserAccelerationY(G)|motionUserAccelerationZ(G)|motionAttitudeReferenceFrame(txt)|motionQuaternionX(R)|motionQuaternionY(R)|motionQuaternionZ(R)|motionQuaternionW(R)|motionGravityX(G)|motionGravityY(G)|motionGravityZ(G)|motionMagneticFieldX(µT)|motionMagneticFieldY(µT)|motionMagneticFieldZ(µT)|motionHeading(°)|motionMagneticFieldCalibrationAccuracy(Z)|label
2021-04-22 20:59:59.634 +0100|138190.3749549167|-0.2995452880859375|-0.172088623046875|-0.8828582763671875|138190.3649739167|-0.5195116189177847|-0.4607409134486177|0.01309487145065768|0.2109183222055435|0.2414170056581497|-0.1323097795248032|-0.1003947854042053|-0.06193241477012634|-0.05050474405288696|XArbitraryZVertical|0.052485577116646|0.222310569582558|0.2514986915334079|-0.9405168328128408|-0.4445737600326538|-0.01309449691325426|-0.8956465721130371|0|0|0|-1|-1|3
2021-04-22 20:59:59.644 +0100|138190.3949169167|-0.455596923828125|-0.00067138671875|-0.884307861328125|138190.3849359167|-0.523347865548815|-0.459522301070214|0.01007352585232425|-0.4929313361644745|-0.06501993536949158|-0.1190277189016342|0.1439513266086578|-0.1620147079229355|0.01336121559143066|XArbitraryZVertical|0.05417895750553688|0.2212580891055548|0.2530043406062296|-0.9402650316993032|-0.443497508764267|-0.01007335539907217|-0.89621901512146|0|0|0|-1|-1|3
2021-04-22 20:59:59.646 +0100|138190.4148779167|-0.5067901611328125|0.0450897216796875|-0.8885040283203125|138190.4048969167|-0.5286199882494252|-0.4604797394946058|0.00370542787625992|-0.1993346363306046|0.03181488811969757|-0.0689842626452446|-0.0112229585647583|0.003034576773643494|0.01152586936950684|XArbitraryZVertical|0.05787732684691601|0.220756841325343|0.2547572065135493|-0.9396889849492395|-0.4443748891353607|-0.003705419367179275|-0.8958332538604736|0|0|0|-1|-1|3
2021-04-22 20:59:59.663 +0100|138190.4348399167|-0.3917083740234375|-0.0746612548828125|-0.8961944580078125|138190.4248589167|-0.5299407005091364|-0.4580850803122964|0.004042677301808066|0.07191433012485504|0.1642037183046341|-0.06368342041969299|-0.06456327438354492|0.04913293570280075|0.008390069007873535|XArbitraryZVertical|0.05755875399793249|0.2196364171615148|0.2554838157961966|-0.9397739360573002|-0.4422278106212616|-0.004042666405439377|-0.8968936800956726|0|0|0|-1|-1|3
2021-04-22 20:59:59.683 +0100|138190.4548009167|-0.3887786865234375|-0.0726776123046875|-0.902313232421875|138190.4448209167|-0.5310776084772029|-0.4555178974241359|0.003695550126592954|-0.1790352463722229|0.08666806668043137|-0.01823106780648232|0.04821518063545227|-0.07096517086029053|0.001833200454711914|XArbitraryZVertical|0.05751811711755775|0.2183530987957136|0.2560541108607065|-0.939920157641707|-0.4399244487285614|-0.003695541759952903|-0.8980271816253662|0|0|0|-1|-1|3
2021-04-22 20:59:59.703 +0100|138190.4747629167|-0.4232635498046875|0.016387939453125|-0.916229248046875|138190.4647819167|-0.5331617789516858|-0.4538391186084793|-0.001056451375057414|-0.2862641215324402|0.09688246250152588|0.03246096149086952|0.04963940382003784|-0.07373352348804474|-0.003542721271514893|XArbitraryZVertical|0.05976325854912311|0.2168946911113176|0.2565665620416893|-0.9399780429747001|-0.4384190142154694|0.001056451234035194|-0.8987700939178467|0|0|0|-1|-1|3
2021-04-22 20:59:59.723 +0100|138190.4947249167|-0.4266204833984375|0.002838134765625|-0.920806884765625|138190.4847439167|-0.5342614830883023|-0.4510425566419921|-0.005540428734636154|-0.1631458103656769|0.1952697038650513|0.06279685348272324|0.01263290643692017|0.01084808260202408|-0.01624947786331177|XArbitraryZVertical|0.06163046357257514|0.2149698100280394|0.2566823399236794|-0.9402680214706998|-0.4358973801136017|0.00554040027782321|-0.8999793529510498|0|0|0|-1|-1|3
2021-04-22 20:59:59.743 +0100|138190.5146859167|-0.3873748779296875|-0.000335693359375|-0.9050140380859375|138190.5047049167|-0.5339210715979922|-0.4467304051075671|-0.008451137378565128|-0.07651665061712265|0.2952381372451782|0.08280331641435623|0.005382299423217773|-0.005612365901470184|-0.0189741849899292|XArbitraryZVertical|0.06240926347407151|0.2125769368125273|0.2563422258695971|-0.9408533328606732|-0.4320037066936493|0.008451037108898163|-0.9018322825431824|0|0|0|-1|-1|3
2021-04-22 20:59:59.763 +0100|138190.5346479167|-0.3768310546875|0.0099945068359375|-0.8921661376953125|138190.5246669167|-0.5323984841428492|-0.44048670023577|-0.00959522444168444|-0.04054015874862671|0.3049863874912262|0.1447048485279083|0.03898432850837708|-0.009930230677127838|-0.0005109906196594238|XArbitraryZVertical|0.06198749314632721|0.2095381494973471|0.2556977348762762|-0.9417378544731848|-0.4263601303100586|0.009595077484846115|-0.9045026302337646|0|0|0|-1|-1|3
2021-04-22 20:59:59.783 +0100|138190.5546089167|-0.38067626953125|-0.0104522705078125|-0.88690185546875|138190.5446289167|-0.5295426344504256|-0.4335851163629852|-0.008984668235405212|0.02796837873756886|0.3220027685165405|0.1674415916204453|0.04327791929244995|0.001010507345199585|0.01526308059692383|XArbitraryZVertical|0.06052248238271922|0.2064525224528106|0.2546278417307784|-0.9428039241531971|-0.4201099276542664|0.008984547108411789|-0.9074287414550781|0|0|0|-1|-1|3
2021-04-22 20:59:59.808 +0100|138190.5745709167|-0.356658935546875|-0.0356292724609375|-0.8725128173828125|138190.5645899167|-0.5264964088847717|-0.4265412381115488|-0.01071232422489356|-0.1196960583329201|0.3647834658622742|0.1965723186731339|0.03302347660064697|-0.02116384357213974|0.02344852685928345|XArbitraryZVertical|0.0601307834569865|0.2030007646183331|0.2532243997886405|-0.9439558772866584|-0.4137006998062134|0.01071211975067854|-0.91034996509552|0|0|0|-1|-1|3
2021-04-22 20:59:59.823 +0100|138190.5945319167|-0.3466339111328125|0.03033447265625|-0.84600830078125|138190.5845519167|-0.5239938803843652|-0.4196053259245549|-0.01602152936438958|-0.2310822308063507|0.349387913942337|0.241620659828186|0.05068787932395935|-0.05164957046508789|0.04062020778656006|XArbitraryZVertical|0.06150907516233886|0.1991238958116895|0.2517107199569712|-0.9450969795188283|-0.4073477685451508|0.01602084375917912|-0.9131326079368591|0|0|0|-1|-1|3
2021-04-22 20:59:59.843 +0100|138190.6144939167|-0.3635711669921875|0.0402984619140625|-0.833404541015625|138190.6045129167|-0.5212160194062|-0.4126862010737825|-0.02193881219704199|-0.2326804995536804|0.326471358537674|0.2690228819847107|0.05434009432792664|0.008397974073886871|0.06981843709945679|XArbitraryZVertical|0.06316230946154035|0.1951854308228551|0.2500153946649981|-0.9462587609457509|-0.4009749591350555|0.02193705178797245|-0.9158263206481934|0|0|0|-1|-1|3
2021-04-22 20:59:59.863 +0100|138190.6344559167|-0.3535614013671875|0.078094482421875|-0.8096771240234375|138190.6244749167|-0.5181609270823139|-0.4058145696856644|-0.02823836553849666|-0.248291015625|0.3431284129619598|0.275446891784668|0.031037837266922|0.01206440478563309|0.08501070737838745|XArbitraryZVertical|0.06498959716218303|0.191230041397649|0.2481607609202875|-0.9474300759647536|-0.3946099281311035|0.02823461219668388|-0.918414831161499|0|0|0|-1|-1|3
2021-04-22 20:59:59.883 +0100|138190.6544169167|-0.29815673828125|0.12359619140625|-0.843658447265625|138190.6444359167|-0.514830519119472|-0.3988479471741184|-0.0338977175472653|-0.1709173619747162|0.3109665513038635|0.2704609036445618|0.03457152843475342|0.04420382529497147|0.11130291223526|XArbitraryZVertical|0.06649141280315322|0.187320764766587|0.2462535110112391|-0.948603833902336|-0.3881338834762573|0.0338912270963192|-0.9209796190261841|0|0|0|-1|-1|3
2021-04-22 20:59:59.903 +0100|138190.6743789167|-0.3275604248046875|0.096588134765625|-0.869873046875|138190.6643979167|-0.5114043617581421|-0.3936573735133255|-0.03725982752841032|-0.1323675215244293|0.2108093053102493|0.1870313584804535|0.08514472842216492|0.08634554594755173|0.07921338081359863|XArbitraryZVertical|0.06712858878881738|0.1845482215208529|0.2444736098023514|-0.9495622427952038|-0.3833023905754089|0.03725120797753334|-0.9228714108467102|0|0|0|-1|-1|3
2021-04-22 20:59:59.923 +0100|138190.6943399167|-0.3442230224609375|0.1031951904296875|-0.8903961181640625|138190.6843599167|-0.510602212275072|-0.3901027409068473|-0.04264271502746701|-0.3544296324253082|0.1401346474885941|0.09691931307315826|0.052376389503479|0.05395890772342682|0.0541566014289856|XArbitraryZVertical|0.06917230640227594|0.1822102385525803|0.2436935706074085|-0.9500674960339281|-0.3799377381801605|0.04262979328632355|-0.9240292310714722|0|0|0|-1|-1|3
2021-04-22 20:59:59.943 +0100|138190.7143019167|-0.3314666748046875|0.16131591796875|-0.9136962890625|138190.7043209167|-0.5128236964320441|-0.3879871933864129|-0.05119491972646568|-0.4811407029628754|0.08835449069738388|0.02199358493089676|0.03360635042190552|0.05202319473028183|0.03406393527984619|XArbitraryZVertical|0.07316840766671481|0.1800459815825328|0.2439998058799246|-0.9501021905395872|-0.3778303265571594|0.05117255821824074|-0.9244596362113953|0|0|0|-1|-1|3
2021-04-22 20:59:59.963 +0100|138190.7342629167|-0.3062744140625|0.1888885498046875|-0.9341278076171875|138190.7242829167|-0.5162345618439304|-0.387316721694943|-0.05914280004772726|-0.3738053143024445|-0.02153467014431953|-0.04366842657327652|0.0455772876739502|0.1022081524133682|0.01061111688613892|XArbitraryZVertical|0.07715667935955674|0.1785871307711179|0.2448778042134027|-0.9498359520079965|-0.3770448565483093|0.05910832807421684|-0.9243069887161255|0|0|0|-1|-1|3
2021-04-22 20:59:59.983 +0100|138190.7542249167|-0.3321990966796875|0.1773834228515625|-0.963104248046875|138190.7442439167|-0.520264389923296|-0.3895872008681619|-0.06401560173922399|-0.2444204688072205|-0.1704508662223816|-0.1321287006139755|0.07275331020355225|0.1249172165989876|-0.01095622777938843|XArbitraryZVertical|0.08010153010665773|0.1788803535104182|0.2462285183546227|-0.9491877164085261|-0.3790286183357239|0.06397188454866409|-0.9231711030006409|0|0|0|-1|-1|3
2021-04-22 21:00:00.003 +0100|138190.7741869167|-0.3751373291015625|0.15673828125|-0.9960784912109375|138190.7642059167|-0.5251945860866957|-0.3940256848272645|-0.06717671108972431|-0.2209202200174332|-0.2567172050476074|-0.2211013436317444|0.05084279179573059|0.1102577671408653|-0.04181540012359619|XArbitraryZVertical|0.08258708120628595|0.1803750929518232|0.2480764452252534|-0.9482101745979762|-0.3830428123474121|0.06712619960308075|-0.9212883710861206|0|0|0|-1|-1|3
2021-04-22 21:00:00.023 +0100|138190.7941479167|-0.411163330078125|0.1768646240234375|-0.9846954345703125|138190.7841669167|-0.5316093995146021|-0.3991494373284784|-0.07047294066413966|-0.267205536365509|-0.2606906592845917|-0.2720561325550079|0.01253190636634827|0.08632420003414154|-0.07697319984436035|XArbitraryZVertical|0.0853630511969343|0.1821008956565774|0.2505729053782211|-0.9469771795683875|-0.3876701295375824|0.07041462510824203|-0.9191048145294189|0|0|0|-1|-1|3
2021-04-22 21:00:00.043 +0100|138190.8141099167|-0.4383544921875|0.200408935546875|-0.94915771484375|138190.8041289167|-0.538922938710096|-0.4036870546977719|-0.07449313906654839|-0.22578364610672|-0.2234443575143814|-0.3115914165973663|-0.01944196224212646|0.1024409160017967|-0.0676264762878418|XArbitraryZVertical|0.08849761094128861|0.1833954956000191|0.2534310928270038|-0.9456780899100057|-0.3917222917079926|0.07442425936460495|-0.9170685410499573|0|0|0|-1|-1|3
2021-04-22 21:00:00.063 +0100|138190.8340709167|-0.4638519287109375|0.142913818359375|-0.8824615478515625|138190.8240909167|-0.5468813293675217|-0.4068421023526842|-0.0777900042454443|-0.2132297158241272|-0.2011871933937073|-0.3916534781455994|-0.0438409149646759|0.1226978972554207|-0.03355950117111206|XArbitraryZVertical|0.09118219697162597|0.1840840270020057|0.2567140227066053|-0.9444029698993696|-0.3945145010948181|0.07771157473325729|-0.9155977368354797|0|0|0|-1|-1|3
2021-04-22 21:00:00.083 +0100|138190.8540329167|-0.4988250732421875|0.1317291259765625|-0.860931396484375|138190.8440519167|-0.5565058758984505|-0.4100218322228564|-0.08162968643602682|-0.3215491771697998|-0.1919658482074738|-0.4290343225002289|-0.06655088067054749|0.06137527525424957|0.03159719705581665|XArbitraryZVertical|0.09428388423096476|0.184611514967143|0.2607129878497764|-0.9428986836712565|-0.397301971912384|0.08153906464576721|-0.9140582680702209|0|0|0|-1|-1|3
2021-04-22 21:00:00.103 +0100|138190.8739949167|-0.4881134033203125|0.12109375|-0.799652099609375|138190.8640139167|-0.5675843152239929|-0.4132417981670972|-0.0858856180441427|-0.4000942707061768|-0.1545941829681396|-0.4714555144309998|-0.098725825548172|0.04594957083463669|0.05151724815368652|XArbitraryZVertical|0.09772557368150551|0.1850016955194725|0.2653349450628913|-0.9411809650884343|-0.4001001715660095|0.085780069231987|-0.9124481678009033|0|0|0|-1|-1|3
2021-04-22 21:00:00.123 +0100|138190.8939559167|-0.4718170166015625|0.0939788818359375|-0.7267303466796875|138190.8839749167|-0.5809877215173395|-0.4171338018779786|-0.09182219966391575|-0.60605388879776|-0.1818469017744064|-0.5815282464027405|-0.08467936515808105|0.0294010266661644|0.1107508540153503|XArbitraryZVertical|0.1022633415633114|0.185313204481122|0.2708181377140879|-0.9390734482117069|-0.4034349620342255|0.0916932225227356|-0.9104024767875671|0|0|0|-1|-1|3
2021-04-22 21:00:00.142 +0100|138190.9139179167|-0.50146484375|0.1483917236328125|-0.665924072265625|138190.9039369167|-0.5983242334840598|-0.4234307597688615|-0.1026227091087981|-0.8989872336387634|-0.2664751410484314|-0.6058871150016785|-0.0630890429019928|-0.008463308215141296|0.1801583170890808|XArbitraryZVertical|0.1097665193642954|0.1857611613244144|0.2774608650557461|-0.9361943104581371|-0.4087288975715637|0.1024426743388176|-0.9068881869316101|0|0|0|-1|-1|3
2021-04-22 21:00:00.163 +0100|138190.9338789167|-0.5248565673828125|0.1634063720703125|-0.637664794921875|138190.9238979167|-0.6181660109629713|-0.4310599073598489|-0.1167728099491383|-1.164319634437561|-0.2223620563745499|-0.6355459690093994|-0.08647733926773071|0.03188458830118179|0.2364125847816467|XArbitraryZVertical|0.1192456536334768|0.18604402176659|0.2847526383175248|-0.932783093622972|-0.4149884581565857|0.1165076047182083|-0.9023361802101135|0|0|0|-1|-1|3
2021-04-22 21:00:00.182 +0100|138190.9538409167|-0.4653167724609375|0.1558074951171875|-0.6920928955078125|138190.9438599167|-0.641628651776451|-0.4376186740277587|-0.1350533387897398|-1.482729315757751|-0.1575352251529694|-0.7173318862915039|-0.1049326658248901|0.02876363694667816|0.2598513960838318|XArbitraryZVertical|0.1307998715944217|0.1847527042719944|0.293219707266447|-0.9288595969486603|-0.4199248552322388|0.134643167257309|-0.8975156545639038|0|0|0|-1|-1|3
2021-04-22 21:00:00.203 +0100|138190.9738019167|-0.3930511474609375|0.2435760498046875|-0.70587158203125|138190.9638219167|-0.6707549252485067|-0.4458462653348337|-0.1583606177670241|-1.862652540206909|-0.2373782396316528|-0.9146447777748108|-0.03949198126792908|-0.001891627907752991|0.1988640427589417|XArbitraryZVertical|0.1453781148555537|0.1827211111977078|0.3034631074685958|-0.9237902935267851|-0.4258257746696472|0.1576995551586151|-0.8909564018249512|0|0|0|-1|-1|3
2021-04-22 21:00:00.222 +0100|138190.9937639167|-0.357696533203125|0.3907012939453125|-0.7501983642578125|138190.9837829167|-0.7067711217182036|-0.457774434832771|-0.1858916765893033|-2.089008331298828|-0.3605326116085052|-1.097316265106201|0.0412866473197937|0.05875352025032043|0.1757129430770874|XArbitraryZVertical|0.1629894886469803|0.1806721428358824|0.3158382408250108|-0.9170814250937402|-0.4343387484550476|0.1848229169845581|-0.8815839886665344|0|0|0|-1|-1|3
2021-04-22 21:00:00.242 +0100|138191.0137259167|-0.440399169921875|0.494873046875|-0.7142486572265625|138191.0037449167|-0.7477457274744016|-0.4739559087567365|-0.2113912002355477|-2.031074047088623|-0.4432093501091003|-1.301517128944397|0.08855247497558594|0.1808812916278839|0.1197656393051147|XArbitraryZVertical|0.1807298215500131|0.1798749942329914|0.3299783553203081|-0.9088982693017819|-0.4462499916553497|0.2098203301429749|-0.8699634075164795|0|0|0|-1|-1|3
2021-04-22 21:00:00.262 +0100|138191.0336865|-0.4693756103515625|0.4781341552734375|-0.619903564453125|138191.0237055|-0.7898020256735834|-0.4923756498095034|-0.2333325447974096|-1.779219269752502|-0.4519916176795959|-1.302285671234131|0.01951038837432861|0.2636523246765137|0.1430845260620117|XArbitraryZVertical|0.1973247138977569|0.1799907282800581|0.3443959120707307|-0.9000321690860387|-0.4599105417728424|0.2312210351228714|-0.8573325872421265|0|0|0|-1|-1|3
2021-04-22 21:00:00.282 +0100|138191.0536485|-0.488494873046875|0.4912261962890625|-0.6405029296875|138191.0436675|-0.8287721807216776|-0.5113732577603592|-0.2500759330891312|-1.448286533355713|-0.5355297327041626|-1.226775169372559|0.004776030778884888|0.2306568622589111|0.2250433564186096|XArbitraryZVertical|0.2114795069756088|0.1811167582550095|0.3576259300999881|-0.8913904583512539|-0.4741526246070862|0.2474775314331055|-0.8449462652206421|0|0|0|-1|-1|3
2021-04-22 21:00:00.313 +0100|138191.0736095|-0.522216796875|0.3133544921875|-0.56170654296875|138191.0636285|-0.8645657500136065|-0.5314938886519257|-0.2590665035179179|-1.158809185028076|-0.5721266269683838|-1.333126187324524|0.00141298770904541|0.2350481152534485|0.1927815675735474|XArbitraryZVertical|0.2222775214248341|0.1842573304971715|0.3700481491808223|-0.8830098610442773|-0.4899088442325592|0.2561783194541931|-0.8332839012145996|0|0|0|-1|-1|3
2021-04-22 21:00:00.329 +0100|138191.0935715|-0.6071319580078125|0.2530059814453125|-0.5045166015625|138191.0835905|-0.9030726375186837|-0.5545320898428782|-0.2673751798291369|-1.570584177970886|-0.7499991655349731|-1.415846109390259|-0.0143815279006958|0.04915383458137512|0.258233368396759|XArbitraryZVertical|0.2337252857537078|0.1881565036626485|0.3831099158017775|-0.8736111685406348|-0.5078362226486206|0.2642008066177368|-0.8199392557144165|0|0|0|-1|-1|3
2021-04-22 21:00:00.342 +0100|138191.1135325|-0.65606689453125|0.3117218017578125|-0.423797607421875|138191.1035525|-0.9500765035060255|-0.5833127375071383|-0.2842411551136745|-2.319843292236328|-0.8214811086654663|-1.478308439254761|-0.07844167947769165|-0.02742302417755127|0.2966364622116089|XArbitraryZVertical|0.2508263598054887|0.191075766156185|0.3974223565142853|-0.8617608989107134|-0.5286912322044373|0.2804291248321533|-0.8011523485183716|0|0|0|-1|-1|3
2021-04-22 21:00:00.362 +0100|138191.1334945|-0.6707611083984375|0.4839935302734375|-0.42254638671875|138191.1235135|-1.006687060747958|-0.6173075026978161|-0.3118193546473256|-2.93326997756958|-0.9438698887825012|-1.437345862388611|-0.1051396131515503|0.004931122064590454|0.3523200750350952|XArbitraryZVertical|0.2743437418472763|0.1915124098655494|0.4126685889553625|-0.8472091834085423|-0.5509282350540161|0.3067907691001892|-0.7761170268058777|0|0|0|-1|-1|3
2021-04-22 21:00:00.382 +0100|138191.1534565|-0.7003936767578125|0.5484619140625|-0.4914093017578125|138191.1434755|-1.068035627004938|-0.6572081087583538|-0.342057363340374|-2.867658138275146|-1.05340039730072|-1.452233195304871|-0.09524518251419067|0.1485675275325775|0.3232893347740173|XArbitraryZVertical|0.3005284947565079|0.1917423655588724|0.4274539654499767|-0.8307831896077565|-0.5755168795585632|0.3354259729385376|-0.74583500623703|0|0|0|-1|-1|3
2021-04-22 21:00:00.402 +0100|138191.1734175|-0.7195892333984375|0.513031005859375|-0.5294036865234375|138191.1634365|-1.129391276517063|-0.7001520511233253|-0.3665112719421074|-2.715147972106934|-1.118173480033875|-1.501673221588135|-0.09885513782501221|0.1901012659072876|0.2225438952445984|XArbitraryZVertical|0.3250730814908145|0.1932647711710515|0.4414853254120761|-0.8136750660814795|-0.6015394330024719|0.3583605885505676|-0.7139524221420288|0|0|0|-1|-1|3
2021-04-22 21:00:00.422 +0100|138191.1933795|-0.7496795654296875|0.4787445068359375|-0.547149658203125|138191.1833985|-1.19283332378348|-0.7466733655694682|-0.3871612308461019|-2.760913610458374|-1.182411789894104|-1.57017195224762|-0.09066051244735718|0.1354696154594421|0.1502256989479065|XArbitraryZVertical|0.3492298659634269|0.1955100390875437|0.4551717756655638|-0.7953824126946774|-0.6289296746253967|0.3775612711906433|-0.6796286702156067|0|0|0|-1|-1|3
2021-04-22 21:00:00.442 +0100|138191.2133405|-0.753509521484375|0.45391845703125|-0.592987060546875|138191.2033605|-1.259742357551864|-0.7959680594833293|-0.4046552900892645|-2.779857158660889|-1.170504093170166|-1.658925414085388|-0.09284687042236328|0.08504241704940796|0.0959441065788269|XArbitraryZVertical|0.3733290133775388|0.1976839587807631|0.4689918878258226|-0.775624500846703|-0.6568335890769958|0.3937019109725952|-0.6430929899215698|0|0|0|-1|-1|3
2021-04-22 21:00:00.462 +0100|138191.2333025|-0.74627685546875|0.4486236572265625|-0.5679473876953125|138191.2233215|-1.329237641324705|-0.8473511790248409|-0.4175561125460066|-2.780757188796997|-1.188745141029358|-1.720312237739563|-0.06837832927703857|0.04839050769805908|0.01210987567901611|XArbitraryZVertical|0.396775902694373|0.2000519532190148|0.4829462552172203|-0.7545272157781827|-0.6851321458816528|0.4055277407169342|-0.6050962209701538|0|0|0|-1|-1|3
2021-04-22 21:00:00.482 +0100|138191.2532635|-0.7873992919921875|0.4299163818359375|-0.5247344970703125|138191.2432835|-1.399584134389371|-0.9003296849422568|-0.4262707207117462|-2.666783094406128|-1.251189827919006|-1.736337900161743|-0.03286099433898926|0.03514522314071655|-0.002197146415710449|XArbitraryZVertical|0.4195891896879715|0.202657802159769|0.4963664045910607|-0.7324583052572433|-0.7134167551994324|0.4134781360626221|-0.56574946641922|0|0|0|-1|-1|3
2021-04-22 21:00:00.502 +0100|138191.2732255|-0.865570068359375|0.449859619140625|-0.4475555419921875|138191.2632445|-1.466106900860526|-0.9549257235564342|-0.428540247928105|-2.286820888519287|-1.466566205024719|-1.712264537811279|-0.04494184255599976|0.01437252759933472|0.0006990432739257812|XArbitraryZVertical|0.4408011587210243|0.2073112774964061|0.5081042127602002|-0.7103145586417347|-0.7424582839012146|0.4155434966087341|-0.5254327654838562|0|0|0|-1|-1|3
2021-04-22 21:00:00.522 +0100|138191.2931875|-0.9305267333984375|0.4517059326171875|-0.3493499755859375|138191.2832065|-1.523684124016518|-1.009404234296649|-0.422654186517149|-1.755341649055481|-1.62243926525116|-1.705643773078918|-0.09354633092880249|0.03967666625976562|0.03796416521072388|XArbitraryZVertical|0.4591955815206904|0.2153600913353782|0.5173626524930707|-0.689271722068297|-0.7720245122909546|0.4101825356483459|-0.4855189025402069|0|0|0|-1|-1|3
2021-04-22 21:00:00.542 +0100|138191.3131485|-1.0247802734375|0.4131927490234375|-0.329833984375|138191.3031675|-1.570839429638419|-1.063836925317036|-0.4097280685655537|-1.293707609176636|-1.943495154380798|-1.598698258399963|-0.1286628842353821|0.05334550142288208|0.09598520398139954|XArbitraryZVertical|0.4751158638299666|0.2271513578533195|0.5237219525013147|-0.6696137437255815|-0.8018645644187927|0.3983599245548248|-0.4453343451023102|0|0|0|-1|-1|3
2021-04-22 21:00:00.562 +0100|138191.3331105|-1.11761474609375|0.3902130126953125|-0.30181884765625|138191.3231295|-1.606826705881355|-1.119548027738497|-0.3927106867498616|-0.8729080557823181|-2.190896272659302|-1.427609324455261|-0.1933825016021729|0.03049811720848083|0.07305890321731567|XArbitraryZVertical|0.4896027350903416|0.2425760500287617|0.5262407728745639|-0.6515496384908926|-0.8313985466957092|0.3826941549777985|-0.4028920531272888|0|0|0|-1|-1|3
2021-04-22 21:00:00.581 +0100|138191.3530715|-1.15716552734375|0.36309814453125|-0.3228302001953125|138191.3430915|-1.632141945796244|-1.173902772878391|-0.3749826326592827|-0.5664585828781128|-2.289536476135254|-1.15838360786438|-0.2594336867332458|0.02395609021186829|0.05787715315818787|XArbitraryZVertical|0.5026937238508488|0.2597142286175093|0.5251881593146522|-0.6356296225894588|-0.8581817150115967|0.3662563562393188|-0.3596950769424438|0|0|0|-1|-1|3
2021-04-22 21:00:00.601 +0100|138191.3730335|-1.1845703125|0.26776123046875|-0.370941162109375|138191.3630525|-1.649503712677105|-1.226380393244829|-0.3588416616361267|-0.3881507813930511|-2.342584609985352|-0.9530951380729675|-0.2758482694625854|0.01190769672393799|-0.006688982248306274|XArbitraryZVertical|0.5148960628805349|0.2771495630838155|0.5212399151599306|-0.6215941309652486|-0.8813178539276123|0.351189911365509|-0.3161403238773346|0|0|0|-1|-1|3
2021-04-22 21:00:00.621 +0100|138191.3929955|-1.240341186523438|0.201568603515625|-0.4341888427734375|138191.3830145|-1.664488929572144|-1.277974419636546|-0.3453536129218455|-0.5789806842803955|-2.290286540985107|-0.7683370113372803|-0.283668577671051|-0.07076874375343323|-0.09932848811149597|XArbitraryZVertical|0.5272836144067942|0.2935405972856949|0.5157400919754683|-0.6081269399426756|-0.9009025096893311|0.3385294377803802|-0.2716118097305298|0|0|0|-1|-1|3
2021-04-22 21:00:00.642 +0100|138191.4129565|-1.213638305664062|0.2687530517578125|-0.399749755859375|138191.4029755|-1.681766520451379|-1.327657865121562|-0.3349251223613249|-0.677570104598999|-2.090704917907715|-0.6861147880554199|-0.3236851692199707|-0.127130389213562|-0.2068152129650116|XArbitraryZVertical|0.5402830590774703|0.3072586131453163|0.5102830716111296|-0.5943886086532241|-0.9166566133499146|0.328698456287384|-0.2273727208375931|0|0|0|-1|-1|3
2021-04-22 21:00:00.661 +0100|138191.4329185|-1.1680908203125|0.4170379638671875|-0.332855224609375|138191.4229375|-1.696586276492457|-1.372585224208333|-0.325751656408555|-0.3838879764080048|-1.950763463973999|-0.5023636817932129|-0.2847781777381897|-0.05126860737800598|-0.2131887525320053|XArbitraryZVertical|0.5520126581686765|0.3193775014579298|0.5046903680288904|-0.5818657338056957|-0.928860604763031|0.320021003484726|-0.1865600794553757|0|0|0|-1|-1|3
2021-04-22 21:00:00.681 +0100|138191.4528795|-1.1788330078125|0.4926910400390625|-0.292327880859375|138191.4428985|-1.697733613175213|-1.412103284620893|-0.3184707171455162|0.4728482961654663|-2.022831916809082|-0.23126620054245|-0.2303092479705811|0.1039228141307831|-0.1827728003263474|XArbitraryZVertical|0.5605434921659526|0.3327916261800769|0.4958895076095721|-0.5737024014798103|-0.9377819895744324|0.3131145536899567|-0.15008145570755|0|0|0|-1|-1|3
2021-04-22 21:00:00.701 +0100|138191.4728415|-1.288543701171875|0.3675384521484375|-0.428314208984375|138191.4628605|-1.678243206182074|-1.448508136992583|-0.3158713756350849|1.409263968467712|-2.214179754257202|0.2569771707057953|-0.2354056835174561|0.182045578956604|-0.1763782501220703|XArbitraryZVertical|0.5655641492290662|0.3495180612369135|0.4807333285905518|-0.5717254330419913|-0.9434278011322021|0.3106448650360107|-0.1159486323595047|0|0|0|-1|-1|3
2021-04-22 21:00:00.721 +0100|138191.4928025|-1.29693603515625|0.0152740478515625|-0.41766357421875|138191.4828225|-1.639129223841914|-1.479153447429619|-0.3196123978232476|1.936310887336731|-2.038246393203735|0.5395690202713013|-0.3431704640388489|0.05333927273750305|-0.341433048248291|XArbitraryZVertical|0.5665339809757672|0.3682379542972052|0.4598371254042013|-0.5761857169578444|-0.9453735947608948|0.3141986131668091|-0.08688011765480042|0|0|0|-1|-1|3
2021-04-22 21:00:00.741 +0100|138191.5127645|-1.440338134765625|0.1088104248046875|-0.533447265625|138191.5027835|-1.608319385895074|-1.509204513852249|-0.3332474472300875|0.7307578325271606|-1.971764326095581|1.068334221839905|-0.3537430763244629|-0.3118400275707245|-0.359495997428894|XArbitraryZVertical|0.5703590981448967|0.3815851391189973|0.4386521490761913|-0.580230789455785|-0.9431933760643005|0.327113538980484|-0.05816655978560448|0|0|0|-1|-1|3
2021-04-22 21:00:00.761 +0100|138191.5327265|-1.495651245117188|0.1773681640625|-1.55645751953125|138191.5227455|-1.609991914217613|-1.54647452100987|-0.3612360490073387|-0.779782772064209|-1.52826976776123|1.664264321327209|-0.5051543712615967|-0.2446208596229553|-0.5106962919235229|XArbitraryZVertical|0.5843818326848479|0.3835660927117543|0.4205070122505573|-0.5784019999415161|-0.935184121131897|0.3534307777881622|-0.02274985238909721|0|0|0|-1|-1|3
2021-04-22 21:00:00.781 +0100|138191.5526875|-1.474166870117188|0.4533843994140625|-1.27850341796875|138191.5427065|-1.614179526063129|-1.567901919089719|-0.3946637530406959|0.5002098083496094|-0.2944364547729492|1.602176308631897|-0.5725294351577759|-0.2071302235126495|-1.553784489631653|XArbitraryZVertical|0.596106645213195|0.3785774926401369|0.4058012641393216|-0.5802252566745045|-0.9231221079826355|0.3844978213310242|-0.002671899273991585|0|0|0|-1|-1|3
2021-04-22 21:00:00.816 +0100|138191.5726495|-1.1805419921875|0.22454833984375|-1.123855590820312|138191.5626685|-1.588627090917505|-1.551972368620997|-0.4274109654487961|1.232426047325134|0.4907476902008057|1.823729276657104|-0.5642862915992737|0.0388677716255188|-1.261372804641724|XArbitraryZVertical|0.5943773000598381|0.3716864745701819|0.3934826130193294|-0.5947572312809356|-0.9098806977272034|0.4145160615444183|-0.01712957955896854|0|0|0|-1|-1|3
2021-04-22 21:00:00.832 +0100|138191.5926105|-1.308486938476562|0.250152587890625|-0.891571044921875|138191.5826295|-1.558633910670855|-1.527530979724735|-0.4681841544468618|1.602895140647888|0.918574333190918|2.074087142944336|-0.2889881134033203|-0.2267186641693115|-1.085257053375244|XArbitraryZVertical|0.5920063288994258|0.3608736073916652|0.3796074746189853|-0.6125333391056241|-0.8915542960166931|0.4512665867805481|-0.03859749063849449|0|0|0|-1|-1|3
2021-04-22 21:00:00.841 +0100|138191.6125725|-0.8968505859375|0.057891845703125|-0.4084014892578125|138191.6025915|-1.522487162068681|-1.482780514536434|-0.5017693017958049|1.043185472488403|1.730875372886658|1.66446840763092|-0.4351480603218079|-0.2308253049850464|-0.8145031929016113|XArbitraryZVertical|0.5838229440649398|0.3473001316418787|0.3714591305853477|-0.632891455542712|-0.8733392953872681|0.4809775054454803|-0.07706677913665771|0|0|0|-1|-1|3
2021-04-22 21:00:00.861 +0100|138191.6325335|-0.622344970703125|0.268218994140625|0.0621185302734375|138191.6225535|-1.51350911156218|-1.444969960058077|-0.5352639564985346|-0.656968891620636|1.553977012634277|1.723109126091003|-0.04351687431335449|-0.4521766304969788|-0.3004582524299622|XArbitraryZVertical|0.582065473361731|0.3274579214738359|0.3695617887733323|-0.6460613109656922|-0.8533341288566589|0.5100681185722351|-0.1079421862959862|0|0|0|-1|-1|3
2021-04-22 21:00:00.888 +0100|138191.6524955|-0.589447021484375|0.51519775390625|0.2160491943359375|138191.6425145|-1.533761489790236|-1.42968282532189|-0.5729293231079915|-1.362420916557312|1.040443301200867|1.765073299407959|0.2096185088157654|-0.2738772630691528|0.1803064942359924|XArbitraryZVertical|0.5899674046187942|0.304704804823989|0.3692986874425864|-0.6501631216133769|-0.8319640159606934|0.542095959186554|-0.1181868836283684|0|0|0|-1|-1|3
2021-04-22 21:00:00.901 +0100|138191.6724575|-0.5818328857421875|0.5332794189453125|0.17388916015625|138191.6624765|-1.562022495448591|-1.426565359074559|-0.610029523581489|-1.472507119178772|0.9085713624954224|1.579962730407715|0.2216731905937195|-0.05769425630569458|0.333856999874115|XArbitraryZVertical|0.6006630364235267|0.2833734903597259|0.3682503356391003|-0.6506113888096317|-0.8111207485198975|0.5728916525840759|-0.1178067624568939|0|0|0|-1|-1|3
2021-04-22 21:00:00.921 +0100|138191.6924185|-0.4806671142578125|0.5772857666015625|0.1584930419921875|138191.6824375|-1.597768468159127|-1.429566725750792|-0.6444365238243538|-1.87586784362793|0.8357921838760376|1.431809663772583|0.2096456289291382|-0.06746900081634521|0.2864195704460144|XArbitraryZVertical|0.6123284892970819|0.2622767686054108|0.3685563720099619|-0.6484065594647775|-0.7914791107177734|0.6007480621337891|-0.1125294342637062|0|0|0|-1|-1|3
2021-04-22 21:00:00.941 +0100|138191.7123805|-0.451019287109375|0.7034149169921875|0.0279388427734375|138191.7023995|-1.633969887682903|-1.437608662083632|-0.6756363830964489|-1.186060905456543|0.6521480083465576|1.260348439216614|0.2927308678627014|-0.04810869693756104|0.2621146440505981|XArbitraryZVertical|0.6236739421249023|0.2433526742706662|0.3683230661163411|-0.645095754997436|-0.7733985781669617|0.6253940463066101|-0.1036205813288689|0|0|0|-1|-1|3
2021-04-22 21:00:00.961 +0100|138191.7323415|-0.36328125|0.5813140869140625|0.0709686279296875|138191.7223615|-1.644935257110405|-1.430180932306362|-0.6985318955534937|-0.01990928128361702|0.7851075530052185|0.9005311131477356|0.3072089552879333|0.06032031774520874|0.1352667808532715|XArbitraryZVertical|0.627298166445485|0.2298554502771236|0.3672306297323781|-0.6471516195241516|-0.7582288384437561|0.6430941224098206|-0.1073269620537758|0|0|0|-1|-1|3
2021-04-22 21:00:00.981 +0100|138191.7523035|-0.30023193359375|0.4165496826171875|0.0752410888671875|138191.7423225|-1.634070123934639|-1.40701293363309|-0.7119470846713322|0.4463237226009369|0.8352177739143372|0.53264319896698|0.3836776614189148|-0.07199543714523315|0.1944149881601334|XArbitraryZVertical|0.6239777616022786|0.2211991834774418|0.36686209307607|-0.6535555995273128|-0.7469595074653625|0.6533091068267822|-0.1234453469514847|0|0|0|-1|-1|3
2021-04-22 21:00:01.000 +0100|138191.7722645|-0.2297210693359375|0.5172119140625|0.0860137939453125|138191.7622845|-1.625727825164944|-1.385318222710719|-0.718131847211648|-0.01129240728914738|0.7367370128631592|0.2290131747722626|0.4398878812789917|-0.2414296865463257|0.2141143679618835|XArbitraryZVertical|0.6200937538470954|0.2145870032561671|0.3689932882203473|-0.6582402717428338|-0.7401204705238342|0.6579790115356445|-0.1388723105192184|0|0|0|-1|-1|3
2021-04-22 21:00:01.021 +0100|138191.7922265|-0.29833984375|0.7944793701171875|-0.0033111572265625|138191.7822455|-1.629849395092545|-1.376585489366641|-0.7228007820660018|-0.2118328809738159|0.4395879805088043|0.1750946342945099|0.5061353445053101|-0.1442762613296509|0.2307504713535309|XArbitraryZVertical|0.6196886717343648|0.2088494683015676|0.371640527716282|-0.6589773360963874|-0.7358570098876953|0.6614876985549927|-0.1447356939315796|0|0|0|-1|-1|3
2021-04-22 21:00:01.041 +0100|138191.8121885|-0.393218994140625|0.820068359375|-0.0777435302734375|138191.8022075|-1.631806602373561|-1.36850332017139|-0.7249228750302215|0.01973205432295799|0.5229054093360901|0.004679575096815825|0.4349460005760193|0.1314012408256531|0.1470856815576553|XArbitraryZVertical|0.6187371601770076|0.2048569978478393|0.3741454304663634|-0.6597068872911757|-0.7332864999771118|0.663077712059021|-0.1503958702087402|0|0|0|-1|-1|3
2021-04-22 21:00:01.061 +0100|138191.8321495|-0.46624755859375|0.7388458251953125|-0.0794219970703125|138191.8221685|-1.633055180522474|-1.357712392918835|-0.7246588748873638|-0.2109734565019608|0.6323854327201843|-0.03852808102965355|0.3385723233222961|0.1571878790855408|0.08059419691562653|XArbitraryZVertical|0.6167906652836793|0.2009996773031158|0.3779703951293391|-0.6605352292927853|-0.7317919731140137|0.6628800630569458|-0.15833680331707|0|0|0|-1|-1|3
2021-04-22 21:00:01.080 +0100|138191.8521115|-0.5153350830078125|0.7579345703125|-0.1174163818359375|138191.8421305|-1.647465567049337|-1.354560452079736|-0.7265131016229247|-0.8618176579475403|0.6305478811264038|0.004997024312615395|0.2638394236564636|0.07457816600799561|0.08095753192901611|XArbitraryZVertical|0.617926607063681|0.1948778863836992|0.3831365248994366|-0.6583281103630372|-0.7300876975059509|0.6642672419548035|-0.160378634929657|0|0|0|-1|-1|3
2021-04-22 21:00:01.101 +0100|138191.8720725|-0.587493896484375|0.870330810546875|-0.115081787109375|138191.8620925|-1.674071000060033|-1.359666924690351|-0.7312203758870313|-1.105893969535828|0.6321924924850464|0.01788210868835449|0.2124958038330078|0.09015560150146484|0.03857588768005371|XArbitraryZVertical|0.6222163288722344|0.1866846409028805|0.3888641572559167|-0.6532844160873988|-0.7278316020965576|0.6677785515785217|-0.1559913754463196|0|0|0|-1|-1|3
2021-04-22 21:00:01.121 +0100|138191.8920345|-0.6540985107421875|0.93035888671875|-0.1391448974609375|138191.8820535|-1.701233449503455|-1.364931331291133|-0.7357269374152051|-0.9190570116043091|0.6722729802131653|0.008942052721977234|0.1381947994232178|0.19920414686203|0.03646004199981689|XArbitraryZVertical|0.6264324413712534|0.1783590269817069|0.3947084395280275|-0.6480554132804989|-0.7256894111633301|0.6711262464523315|-0.1515409052371979|0|0|0|-1|-1|3
2021-04-22 21:00:01.140 +0100|138191.9119965|-0.6876983642578125|0.9302215576171875|-0.2026214599609375|138191.9020155|-1.721172255643342|-1.364693713116137|-0.7386320923375062|-0.5833141803741455|0.6866148114204407|-0.03244782239198685|0.06964266300201416|0.2570813298225403|0.01216965913772583|XArbitraryZVertical|0.6285671414221732|0.17101606023027|0.4003590033126281|-0.6444918209568556|-0.7237419486045837|0.6732771396636963|-0.1513137072324753|0|0|0|-1|-1|3
2021-04-22 21:00:01.161 +0100|138191.9319575|-0.7240753173828125|0.877349853515625|-0.173614501953125|138191.9219765|-1.733797922636811|-1.359147508434109|-0.7392496449246402|-0.4339734315872192|0.7271866798400879|-0.09895981848239899|0.03478580713272095|0.2564874887466431|-0.04738259315490723|XArbitraryZVertical|0.6286018247195179|0.1650477005128571|0.4059808062019429|-0.6424941620384409|-0.7224849462509155|0.6737335920333862|-0.155238002538681|0|0|0|-1|-1|3
2021-04-22 21:00:01.180 +0100|138191.9519195|-0.7801971435546875|0.8306884765625|-0.1774444580078125|138191.9419385|-1.750662128481866|-1.355825876988075|-0.7398044523991658|-0.8140810132026672|0.7463997602462769|-0.1001173257827759|-0.002476096153259277|0.203205943107605|-0.01605641841888428|XArbitraryZVertical|0.6293678678094928|0.1584849475480096|0.4122657029012609|-0.6393870347906189|-0.7215999960899353|0.6741434931755066|-0.1575572192668915|0|0|0|-1|-1|3
2021-04-22 21:00:01.200 +0100|138191.9718805|-0.80816650390625|0.8078460693359375|-0.171966552734375|138191.9619005|-1.776764606863302|-1.358481243562588|-0.742002927723757|-1.086503744125366|0.7565014958381653|-0.1126931235194206|-0.05963265895843506|0.1549223661422729|-0.02211576700210571|XArbitraryZVertical|0.6322492499253637|0.1503228336748041|0.4190902447402767|-0.6340563659556515|-0.7205652594566345|0.6757656335830688|-0.1553278565406799|0|0|0|-1|-1|3
2021-04-22 21:00:01.220 +0100|138191.9918425|-0.7642669677734375|0.83453369140625|-0.226959228515625|138191.9818615|-1.803844324328615|-1.360619270668446|-0.7447251817712345|-0.8899752497673035|0.8545670509338379|-0.02433387748897076|-0.08907335996627808|0.1300758123397827|-0.01856319606304169|XArbitraryZVertical|0.6350507752944972|0.1414540605152773|0.4261621493932677|-0.6285595839718342|-0.7190937995910645|0.6777697801589966|-0.1534025222063065|0|0|0|-1|-1|3
2021-04-22 21:00:01.240 +0100|138192.0118035|-0.6396942138671875|0.6563262939453125|-0.2055206298828125|138192.0018235|-1.823558649879516|-1.356232609681968|-0.7477956602530285|-0.4897764623165131|0.953424870967865|-0.01550745218992233|-0.04789042472839355|0.1545090079307556|-0.0708467960357666|XArbitraryZVertical|0.6358685967588359|0.1327226828801596|0.432838299525231|-0.6250655710774496|-0.716377317905426|0.6800242066383362|-0.1561116278171539|0|0|0|-1|-1|3
2021-04-22 21:00:01.260 +0100|138192.0317660417|-0.59716796875|0.609283447265625|-0.407196044921875|138192.0217845|-1.833963452405007|-1.34398085349269|-0.7496249262002895|-0.2911021709442139|0.9441129565238953|0.01803124509751797|0.07350265979766846|-0.02503848075866699|-0.04092329740524292|XArbitraryZVertical|0.6341070694543066|0.1249397597739668|0.4394453823855903|-0.6238478593669143|-0.713197648525238|0.6813642978668213|-0.1645965576171875|0|0|0|-1|-1|3
2021-04-22 21:00:01.280 +0100|138192.0517280417|-0.5848236083984375|0.5869293212890625|-0.4350128173828125|138192.0417470417|-1.837971923326339|-1.326822776585174|-0.748114140989391|-0.07749184966087341|1.010168313980103|-0.218729093670845|0.114098072052002|-0.07097470760345459|-0.2301380038261414|XArbitraryZVertical|0.6303513765083972|0.1188632947690975|0.4465564583733745|-0.6237917928606481|-0.7112668752670288|0.6802576780319214|-0.1770573258399963|0|0|0|-1|-1|3
2021-04-22 21:00:01.300 +0100|138192.0716890417|-0.6314849853515625|0.7559051513671875|-0.3917388916015625|138192.0617080417|-1.83891046904791|-1.309310713263044|-0.7437987476523594|0.115792490541935|0.8158703446388245|-0.1993736773729324|0.1260620951652527|-0.09015947580337524|-0.2447696924209595|XArbitraryZVertical|0.6258847429140336|0.1146607340984597|0.4535895354531027|-0.6240015613998856|-0.7108864784240723|0.6770883202552795|-0.1902424097061157|0|0|0|-1|-1|3
2021-04-22 21:00:01.320 +0100|138192.0916510417|-0.63397216796875|0.5904693603515625|-0.297576904296875|138192.0816700417|-1.831441476411598|-1.288566451106364|-0.7377898451489217|0.5536259412765503|0.7800569534301758|-0.2804771661758423|0.07919639348983765|0.08325052261352539|-0.1856615543365479|XArbitraryZVertical|0.6198919503431317|0.1126750420008678|0.4594332836894505|-0.626066740225892|-0.7106821537017822|0.6726541519165039|-0.2060766071081161|0|0|0|-1|-1|3
2021-04-22 21:00:01.340 +0100|138192.1116120417|-0.6227264404296875|0.45208740234375|-0.31231689453125|138192.1016320417|-1.822111669069996|-1.26792776865851|-0.7288955493276706|0.2422924190759659|0.6234278082847595|-0.334177553653717|0.0779874324798584|-0.07557731866836548|-0.07510128617286682|XArbitraryZVertical|0.6133119613327642|0.1122986343758389|0.4653969541059183|-0.6282064866115352|-0.71196049451828|0.6660462021827698|-0.2224749028682709|0|0|0|-1|-1|3
2021-04-22 21:00:01.360 +0100|138192.1315740417|-0.7109832763671875|0.6190643310546875|-0.3787841796875|138192.1215930417|-1.826927692818844|-1.260980478666245|-0.7232612044608591|-0.3508497178554535|0.4171151220798492|-0.3034786880016327|0.09123325347900391|-0.2097460031509399|-0.08375996351242065|XArbitraryZVertical|0.6111221750521827|0.1106868398106653|0.4706252045398623|-0.6267298241832259|-0.7139604687690735|0.6618329286575317|-0.228556215763092|0|0|0|-1|-1|3
2021-04-22 21:00:01.380 +0100|138192.1515360417|-0.7982177734375|0.7076263427734375|-0.361724853515625|138192.1415550417|-1.838896335301606|-1.260033944647739|-0.7200661893349545|-0.3651121258735657|0.4798221290111542|-0.287253201007843|0.004769265651702881|-0.0403706431388855|-0.1489062160253525|XArbitraryZVertical|0.6110811584052375|0.1078942732685031|0.4755529925684385|-0.6235287331593563|-0.7157533168792725|0.65943443775177|-0.2298772931098938|0|0|0|-1|-1|3
2021-04-22 21:00:01.400 +0100|138192.1714970417|-0.8157958984375|0.7525177001953125|-0.334228515625|138192.1615160417|-1.847025766797905|-1.252938159626852|-0.7158328343573994|-0.2056015729904175|0.6235722899436951|-0.3897430002689362|-0.08146905899047852|0.0513797402381897|-0.1259034872055054|XArbitraryZVertical|0.6091943120730671|0.1047471210700074|0.4814313047599348|-0.621397088067958|-0.7167495489120483|0.6562460660934448|-0.2358206659555435|0|0|0|-1|-1|3
2021-04-22 21:00:01.421 +0100|138192.1914590417|-0.790435791015625|0.8937225341796875|-0.35650634765625|138192.1814780417|-1.852419540725543|-1.242898916839407|-0.710554452786751|-0.05441996827721596|0.5210700631141663|-0.3380503356456757|-0.09818130731582642|0.1002629995346069|-0.09011140465736389|XArbitraryZVertical|0.6062624710889515|0.1019194970162333|0.4876225881743857|-0.6199053053322787|-0.7176154255867004|0.6522541642189026|-0.2441164702177048|0|0|0|-1|-1|3
2021-04-22 21:00:01.440 +0100|138192.2114200417|-0.8345947265625|0.8660125732421875|-0.4176025390625|138192.2014390417|-1.846829873790917|-1.229971819784257|-0.7031547110397103|0.7405195832252502|0.4895114898681641|-0.2623876333236694|-0.07150745391845703|0.2470947504043579|-0.1015268266201019|XArbitraryZVertical|0.6017014556653022|0.1023029672611463|0.4918369429592044|-0.6209558610410231|-0.7189292907714844|0.6466273069381714|-0.2549789249897003|0|0|0|-1|-1|3
2021-04-22 21:00:01.460 +0100|138192.2313820417|-0.7979888916015625|0.675811767578125|-0.4771881103515625|138192.2214010417|-1.824308605654698|-1.203320063969844|-0.6907129920775148|1.237405300140381|0.7443578839302063|-0.2930473685264587|-0.1152638792991638|0.2289251089096069|-0.14068603515625|XArbitraryZVertical|0.5919982995061095|0.1052621246850879|0.4961829085796855|-0.6263070752714202|-0.719331681728363|0.6370869278907776|-0.2769157886505127|0|0|0|-1|-1|3
2021-04-22 21:00:01.480 +0100|138192.2513440417|-0.7230682373046875|0.480804443359375|-0.4871063232421875|138192.2413630417|-1.798891705544067|-1.170582297408472|-0.6773492043646673|0.9372696280479431|0.910767674446106|-0.1821618527173996|-0.08032995462417603|0.04908156394958496|-0.1735846698284149|XArbitraryZVertical|0.5802484572259911|0.1072863146369401|0.5014112996052441|-0.6327623646805307|-0.7176597714424133|0.6267296075820923|-0.3036027550697327|0|0|0|-1|-1|3
2021-04-22 21:00:01.500 +0100|138192.2713050417|-0.638397216796875|0.4652099609375|-0.4359130859375|138192.2613240417|-1.786581608273091|-1.143984401023008|-0.6713709313002432|0.1751204580068588|0.9449306726455688|0.02586653083562851|-0.01033943891525269|-0.1412560343742371|-0.1629790663719177|XArbitraryZVertical|0.5718400224375557|0.1045737422120015|0.5067757028039888|-0.6365861111854114|-0.7127296328544617|0.6220599412918091|-0.3241266310214996|0|0|0|-1|-1|3
2021-04-22 21:00:01.520 +0100|138192.2912670417|-0.5970458984375|0.564208984375|-0.3885040283203125|138192.2812860417|-1.786965662274717|-1.125745413747085|-0.6737097931255857|-0.1557132005691528|0.8969838619232178|0.1660515069961548|0.06698644161224365|-0.1586800813674927|-0.09946829080581665|XArbitraryZVertical|0.5676383822083958|0.09779861932246925|0.5114683579916411|-0.6376694605114234|-0.7053845524787903|0.6238895058631897|-0.3364441990852356|0|0|0|-1|-1|3
2021-04-22 21:00:01.540 +0100|138192.3112280417|-0.5526580810546875|0.5517578125|-0.351837158203125|138192.3012470417|-1.789849994418254|-1.11169537877152|-0.6806464440013139|-0.2507425844669342|0.7230360507965088|0.3570431172847748|0.09964478015899658|-0.06508713960647583|-0.04410818219184875|XArbitraryZVertical|0.5654295250846401|0.0899547630089077|0.5145200467901837|-0.638331193844719|-0.6966915130615234|0.6292955279350281|-0.3443951904773712|0|0|0|-1|-1|3
2021-04-22 21:00:01.560 +0100|138192.3311900417|-0.6071624755859375|0.659942626953125|-0.5126190185546875|138192.3212090417|-1.7898795059454|-1.099827219306001|-0.6892721673721667|-0.1261112987995148|0.4368288815021515|0.4632199108600616|0.1350334286689758|-0.08421838283538818|-0.001673400402069092|XArbitraryZVertical|0.5639437160753493|0.08298143089594225|0.515584263736983|-0.6397300785476523|-0.6876924633979797|0.6359756588935852|-0.3501631319522858|0|0|0|-1|-1|3
2021-04-22 21:00:01.580 +0100|138192.3511510417|-0.659271240234375|0.6121063232421875|-0.430084228515625|138192.3411710417|-1.78566921176016|-1.088719866625794|-0.7009097535548707|-0.07142360508441925|0.4458147287368774|0.6663670539855957|0.06999349594116211|0.01502889394760132|-0.1582940816879272|XArbitraryZVertical|0.5630392264864462|0.07631945409848492|0.5142620049522492|-0.6424149467560739|-0.6771568655967712|0.6449132561683655|-0.3543243408203125|0|0|0|-1|-1|3
2021-04-22 21:00:01.600 +0100|138192.3711130417|-0.666656494140625|0.5823822021484375|-0.4626922607421875|138192.3611320417|-1.77960757781808|-1.075297671729285|-0.7149294203694713|-0.2598004043102264|0.5073009729385376|0.798791766166687|0.005048155784606934|-0.04345834255218506|-0.07103711366653442|XArbitraryZVertical|0.561943308994991|0.06853078918165627|0.5123366536541307|-0.6457820385507193|-0.6643202304840088|0.6555641293525696|-0.3590464890003204|0|0|0|-1|-1|3
2021-04-22 21:00:01.620 +0100|138192.3910750417|-0.680145263671875|0.708953857421875|-0.47479248046875|138192.3810940417|-1.776774643556704|-1.061301226563209|-0.733018953031519|-0.5832366943359375|0.6223767399787903|0.9609266519546509|-0.0178874135017395|-0.08673453330993652|-0.1002264618873596|XArbitraryZVertical|0.5615957782092779|0.05811674005127668|0.510497145951353|-0.6485564237485132|-0.6487700343132019|0.6691162586212158|-0.3624652624130249|0|0|0|-1|-1|3
2021-04-22 21:00:01.640 +0100|138192.4110360417|-0.6634674072265625|0.9839935302734375|-0.5130615234375|138192.4010550417|-1.770974511606995|-1.043762701024922|-0.7542925761753076|-0.002238475019112229|0.6133189797401428|1.07790219783783|-0.05028003454208374|0.02418005466461182|-0.1082481443881989|XArbitraryZVertical|0.5608888019856306|0.04617214447528977|0.5077973474897384|-0.6522375584775745|-0.6298661231994629|0.684773325920105|-0.3665437698364258|0|0|0|-1|-1|3
2021-04-22 21:00:01.660 +0100|138192.4309980417|-0.6642608642578125|0.86663818359375|-0.415771484375|138192.4210170417|-1.738682958075088|-1.007892785868724|-0.7619711051095016|1.377487897872925|0.6747838854789734|0.770900547504425|-0.0516173243522644|0.2936442494392395|-0.1269819438457489|XArbitraryZVertical|0.5525548746774404|0.04054145053928492|0.5051032130693694|-0.661747910665847|-0.611850917339325|0.6903488636016846|-0.3860790133476257|0|0|0|-1|-1|3
2021-04-22 21:00:01.680 +0100|138192.4509590417|-0.633453369140625|0.68280029296875|-0.3139495849609375|138192.4409790417|-1.693666243216212|-0.9631777142724477|-0.7561626085140354|1.463066101074219|0.6499801874160767|0.645571231842041|-0.06699812412261963|0.1805028319358826|-0.000445634126663208|XArbitraryZVertical|0.5391983828074951|0.04003100216943696|0.5038304205275466|-0.6736598221576574|-0.5972636342048645|0.6861348748207092|-0.415325254201889|0|0|0|-1|-1|3
2021-04-22 21:00:01.699 +0100|138192.4709210417|-0.642974853515625|0.8485565185546875|-0.4181365966796875|138192.4609400417|-1.65237141910204|-0.9250030438951812|-0.7507464189532724|1.506895065307617|0.2960971891880035|0.620969295501709|-0.04951745271682739|0.000615239143371582|0.1260985732078552|XArbitraryZVertical|0.5276098140383493|0.04005054690584935|0.5014158613152633|-0.6845481795957481|-0.5839369297027588|0.6821846961975098|-0.4400476813316345|0|0|0|-1|-1|3
2021-04-22 21:00:01.719 +0100|138192.4908820417|-0.7163543701171875|0.6642608642578125|-0.33026123046875|138192.4809020417|-1.600277049596764|-0.8838266188438242|-0.7350517904077615|2.348840951919556|0.3627351820468903|0.5362434983253479|-0.06944030523300171|0.1779305934906006|0.05230897665023804|XArbitraryZVertical|0.5125938246334609|0.0450007459019429|0.4981770086755281|-0.6978841863053596|-0.5735355615615845|0.6706255674362183|-0.4704450070858002|0|0|0|-1|-1|3
2021-04-22 21:00:01.739 +0100|138192.5108440417|-0.7493133544921875|0.43780517578125|-0.35333251953125|138192.5008630417|-1.54753606893437|-0.8422091633231641|-0.713947846096879|1.856361985206604|0.2885231971740723|0.4699395000934601|-0.1524538993835449|0.009437918663024902|0.1729516983032227|XArbitraryZVertical|0.4957661896281051|0.05108533572509254|0.4954057189720261|-0.71146291271521|-0.5639014840126038|0.6548225879669189|-0.5032123327255249|0|0|0|-1|-1|3
2021-04-22 21:00:01.760 +0100|138192.5308060417|-0.74212646484375|0.3960113525390625|-0.34710693359375|138192.5208250417|-1.510759238891288|-0.8123156165021772|-0.7021465033886224|1.070635199546814|0.3431484997272491|0.5178881287574768|-0.1951342821121216|-0.2080530524253845|0.1717890501022339|XArbitraryZVertical|0.4843326656781212|0.05349185533769447|0.4924609092675371|-0.7211399138991293|-0.5541800260543823|0.6458579301834106|-0.5251209735870361|0|0|0|-1|-1|3
2021-04-22 21:00:01.779 +0100|138192.5507670417|-0.718353271484375|0.316680908203125|-0.298004150390625|138192.5407860417|-1.487996786989381|-0.7897770484113386|-0.6980355818468525|0.3885102570056915|0.4333201348781586|0.4312609732151031|-0.1980414986610413|-0.2467029094696045|0.1922352910041809|XArbitraryZVertical|0.4770774072888161|0.05221416880540557|0.490628929680981|-0.7272923934746214|-0.5440859198570251|0.6427139639854431|-0.5393416285514832|0|0|0|-1|-1|3
2021-04-22 21:00:01.799 +0100|138192.5707290417|-0.7154998779296875|0.4269866943359375|-0.2835845947265625|138192.5607480417|-1.481807256676978|-0.7770719251033615|-0.704981411496696|-0.5151989459991455|0.4526751339435577|0.3919577896595001|-0.1843076944351196|-0.3313390016555786|0.245011031627655|XArbitraryZVertical|0.475723506009165|0.04668868005860379|0.4897384622098552|-0.7291526991946191|-0.5340465307235718|0.6480196714401245|-0.5430146455764771|0|0|0|-1|-1|3
2021-04-22 21:00:01.819 +0100|138192.5906900417|-0.6963653564453125|0.5713043212890625|-0.299285888671875|138192.5807100417|-1.488011143116528|-0.7714090419155544|-0.7209276099691888|-0.8957375288009644|0.52762770652771|0.3766904175281525|-0.1918089985847473|-0.2330953478813171|0.2549686431884766|XArbitraryZVertical|0.4788557244111796|0.03769376887774795|0.4895291924943352|-0.7277621793205055|-0.5236918926239014|0.6600817441940308|-0.5385527610778809|0|0|0|-1|-1|3
2021-04-22 21:00:01.839 +0100|138192.6106520417|-0.6653289794921875|0.65216064453125|-0.331787109375|138192.6006710417|-1.497504106621743|-0.7659399676928093|-0.7378010769345232|-0.7340637445449829|0.6387072205543518|0.2793112993240356|-0.1834223866462708|-0.1013584136962891|0.2340193390846252|XArbitraryZVertical|0.4822695647975401|0.02763619624304462|0.4902285835453273|-0.7254848791694923|-0.5129439234733582|0.6726624369621277|-0.5333046317100525|0|0|0|-1|-1|3
2021-04-22 21:00:01.859 +0100|138192.6306140417|-0.6375732421875|0.6526031494140625|-0.39093017578125|138192.6206330417|-1.501494422297202|-0.7545831238195903|-0.7481948283180412|-0.2359091192483902|0.7709076404571533|0.2262443751096725|-0.1632919907569885|-0.02815645933151245|0.2021862864494324|XArbitraryZVertical|0.4823415246714846|0.01898026948695277|0.491905134937165|-0.7245797577016683|-0.5020380020141602|0.6803168058395386|-0.5339727997779846|0|0|0|-1|-1|3
2021-04-22 21:00:01.879 +0100|138192.6505750417|-0.5825042724609375|0.56597900390625|-0.4425811767578125|138192.6405940417|-1.498296828639454|-0.7357574044042674|-0.7503533439652127|0.1983053535223007|0.9058757424354553|0.09382258355617523|-0.1466638147830963|-0.02929443120956421|0.1513093113899231|XArbitraryZVertical|0.4782595118841111|0.01218060017024164|0.494748678382833|-0.7254951650105863|-0.4909104704856873|0.6818972826004028|-0.5422389507293701|0|0|0|-1|-1|3
2021-04-22 21:00:01.899 +0100|138192.6705370417|-0.5195465087890625|0.4593658447265625|-0.502471923828125|138192.6605560417|-1.493072525343236|-0.7135036027905735|-0.7475362799667483|0.2003084868192673|0.9363076686859131|-0.002327733673155308|-0.1025269329547882|-0.1138553619384766|0.1118979454040527|XArbitraryZVertical|0.4719331574593695|0.006308589014249416|0.4988063573788044|-0.7269329716999516|-0.4799783527851105|0.6798340082168579|-0.5544785857200623|0|0|0|-1|-1|3
2021-04-22 21:00:01.919 +0100|138192.6904980417|-0.4931488037109375|0.470916748046875|-0.540924072265625|138192.6805180417|-1.493883014044135|-0.6960200289558381|-0.7474853652629504|-0.2838718295097351|0.8611421585083008|-0.01037749368697405|-0.04931411147117615|-0.2204310894012451|0.0603402853012085|XArbitraryZVertical|0.4675404492136305|-0.0002182476645098875|0.5032192226531153|-0.7267574654630352|-0.4702334702014923|0.6797966957092285|-0.5628117322921753|0|0|0|-1|-1|3
2021-04-22 21:00:01.939 +0100|138192.7104600417|-0.4860382080078125|0.5372467041015625|-0.54547119140625|138192.7004790417|-1.501426801003323|-0.6853359193532558|-0.7540853321708695|-0.5584757924079895|0.7157851457595825|-0.00450042961165309|-0.03180608153343201|-0.213705837726593|0.02339404821395874|XArbitraryZVertical|0.466663904716191|-0.008123793522447425|0.506915588517551|-0.7247036824063798|-0.4613437354564667|0.6846222281455994|-0.5643175840377808|0|0|0|-1|-1|3
2021-04-22 21:00:01.959 +0100|138192.7304220417|-0.474151611328125|0.5862884521484375|-0.58990478515625|138192.7204410417|-1.509902537699817|-0.6784150793112054|-0.7621472361455025|-0.3922941088676453|0.5530145764350891|0.04573779553174973|-0.03209063410758972|-0.1532298922538757|0.01771062612533569|XArbitraryZVertical|0.4670895902235475|-0.01538303204069818|0.5097224802563722|-0.7223390431418021|-0.453948587179184|0.6904762387275696|-0.5631813406944275|0|0|0|-1|-1|3
2021-04-22 21:00:01.979 +0100|138192.7503830417|-0.472686767578125|0.6357269287109375|-0.638671875|138192.7404020417|-1.511338330020333|-0.6695812876407145|-0.7656835012022629|0.08565111458301544|0.467927485704422|0.08707538247108459|-0.0267149806022644|-0.106741726398468|-0.02465295791625977|XArbitraryZVertical|0.4657995085687721|-0.02012733297602442|0.5114797565740049|-0.7218131871693564|-0.4474377036094666|0.6930298805236816|-0.5652514100074768|0|0|0|-1|-1|3
2021-04-22 21:00:01.999 +0100|138192.7703450417|-0.5072479248046875|0.560211181640625|-0.691650390625|138192.7603640417|-1.50555359914441|-0.657026941204757|-0.7626054344618924|0.3836401700973511|0.3681369721889496|0.03458625078201294|-0.03108078241348267|-0.05508100986480713|-0.06616109609603882|XArbitraryZVertical|0.4617892299782597|-0.02226061675138099|0.513011628057533|-0.7232387240246748|-0.4416069984436035|0.6908076405525208|-0.5725103616714478|0|0|0|-1|-1|3
2021-04-22 21:00:02.019 +0100|138192.7903060417|-0.552398681640625|0.5633392333984375|-0.6367340087890625|138192.7803260417|-1.499953558336758|-0.6455868435074503|-0.7585264848395742|0.130126565694809|0.4006705284118652|0.05716586485505104|-0.0705285370349884|-0.1276416778564453|-0.1118792295455933|XArbitraryZVertical|0.4577688948530017|-0.0237123904774775|0.5145468968274582|-0.7246564525503711|-0.4367204606533051|0.6878526210784912|-0.5797707438468933|0|0|0|-1|-1|3
2021-04-22 21:00:02.039 +0100|138192.8102680417|-0.512725830078125|0.6321258544921875|-0.5632781982421875|138192.8002870417|-1.50096877713059|-0.6396915338896639|-0.7578815961977595|-0.2688266932964325|0.3590814769268036|0.06620880216360092|-0.1188400685787201|-0.1240454316139221|-0.05404263734817505|XArbitraryZVertical|0.4560546462697157|-0.02585854773666865|0.5164078798307454|-0.7243400487903692|-0.4335596561431885|0.6873844265937805|-0.5826910138130188|0|0|0|-1|-1|3
2021-04-22 21:00:02.059 +0100|138192.8302300417|-0.4864349365234375|0.7084808349609375|-0.541961669921875|138192.8202490417|-1.507084817128219|-0.6389939703896155|-0.7629113561354915|-0.4968584179878235|0.1699801087379456|0.05031869560480118|-0.08164119720458984|-0.05890321731567383|0.0169329047203064|XArbitraryZVertical|0.4572088350638751|-0.02923592222356769|0.5176383340385206|-0.7226036106797137|-0.4310856759548187|0.6910287737846375|-0.5802106857299805|0|0|0|-1|-1|3
2021-04-22 21:00:02.079 +0100|138192.8501910417|-0.53668212890625|0.841094970703125|-0.5174560546875|138192.8402100417|-1.51494676018804|-0.6430182306949704|-0.7683104652295261|-0.4044340848922729|-0.01705108024179935|-0.06269298493862152|-0.05526232719421387|0.01355922222137451|0.03351569175720215|XArbitraryZVertical|0.4596440244406215|-0.03144698447885096|0.5183218037909241|-0.7204727571144681|-0.4311736524105072|0.6949213147163391|-0.5754769444465637|0|0|0|-1|-1|3
2021-04-22 21:00:02.099 +0100|138192.8701530417|-0.5942840576171875|0.90631103515625|-0.52105712890625|138192.8601720417|-1.521134147636979|-0.6489673113715942|-0.7684788511106393|-0.1693792939186096|-0.1847464889287949|-0.0858394056558609|-0.1021642684936523|0.1460523009300232|0.05535286664962769|XArbitraryZVertical|0.461137524475712|-0.0307886353913217|0.5191403837992021|-0.7189559528969535|-0.4345188736915588|0.6950423717498779|-0.5728085041046143|0|0|0|-1|-1|3
2021-04-22 21:00:02.119 +0100|138192.8901140417|-0.625091552734375|0.879913330078125|-0.5537872314453125|138192.8801330417|-1.52449257625467|-0.6561014335983293|-0.7680614645087711|0.03078470565378666|-0.2874122262001038|-0.1449053883552551|-0.1555139422416687|0.2115685343742371|0.04886704683303833|XArbitraryZVertical|0.4628232852301234|-0.02885661727061036|0.5187951081652931|-0.718201648054173|-0.4387711584568024|0.6947422623634338|-0.5699238181114197|0|0|0|-1|-1|3
2021-04-22 21:00:02.139 +0100|138192.9100760417|-0.6506500244140625|0.8580169677734375|-0.5462799072265625|138192.9000950417|-1.527396229605949|-0.6642424774536887|-0.7653767279694352|0.02639391832053661|-0.2936505675315857|-0.1927299052476883|-0.1805480122566223|0.1871042847633362|0.01401269435882568|XArbitraryZVertical|0.4641562518288287|-0.02567573943925821|0.5185706470499235|-0.7176240135407568|-0.4445445537567139|0.6928086876869202|-0.56779944896698|0|0|0|-1|-1|3
2021-04-22 21:00:02.159 +0100|138192.9300370417|-0.6320343017578125|0.804840087890625|-0.546630859375|138192.9200570417|-1.534113326793672|-0.673793881807406|-0.7637951357683157|-0.2399412989616394|-0.1872351169586182|-0.2807527184486389|-0.200020432472229|0.1663493514060974|0.01810371875762939|XArbitraryZVertical|0.4661192537120618|-0.02326455027596612|0.5191235698726123|-0.7160323996480462|-0.4506306350231171|0.6916673183441162|-0.5643832087516785|0|0|0|-1|-1|3
2021-04-22 21:00:02.179 +0100|138192.9499990417|-0.5745697021484375|0.774017333984375|-0.45770263671875|138192.9400180417|-1.548548359485312|-0.686300997158759|-0.767186322738485|-0.7065327763557434|-0.0782739520072937|-0.2966344654560089|-0.175870269536972|0.1107272505760193|0.01025503873825073|XArbitraryZVertical|0.4701186359639554|-0.02336139248840803|0.5205586833477666|-0.712363342063271|-0.456165075302124|0.6941125392913818|-0.5568854212760925|0|0|0|-1|-1|3
2021-04-22 21:00:02.199 +0100|138192.9699610417|-0.529510498046875|0.86346435546875|-0.346038818359375|138192.9599800417|-1.569957598152417|-0.7027529149449797|-0.7765263308362714|-0.9036502242088318|-0.08548164367675781|-0.2907737195491791|-0.1135163903236389|0.07321125268936157|0.08663249015808105|XArbitraryZVertical|0.4766162438269244|-0.02587706286636785|0.5220515316600975|-0.7068447528139487|-0.4610543549060822|0.7008057236671448|-0.5443346500396729|0|0|0|-1|-1|3
2021-04-22 21:00:02.219 +0100|138192.9899220417|-0.4732513427734375|0.91448974609375|-0.3123779296875|138192.9799410417|-1.588838077196292|-0.7178215064756558|-0.7835800197856538|-0.4318469762802124|-0.104609377682209|-0.2894639670848846|-0.06357046961784363|0.1576440334320068|0.1875505447387695|XArbitraryZVertical|0.4821244889161303|-0.02759515817873811|0.5233984535198956|-0.7020318204399094|-0.4659410715103149|0.7058199644088745|-0.5335889458656311|0|0|0|-1|-1|3
2021-04-22 21:00:02.238 +0100|138193.0098840417|-0.45147705078125|0.7745819091796875|-0.3763427734375|138192.9999030417|-1.597570789478667|-0.7267870311675343|-0.7805883371245816|0.2042796015739441|-0.162127748131752|-0.365668386220932|-0.001145243644714355|0.2107918858528137|0.2185882925987244|XArbitraryZVertical|0.4835980526676267|-0.02549542915678253|0.5250175354138613|-0.6998854273624584|-0.4721071422100067|0.7036975622177124|-0.5309658050537109|0|0|0|-1|-1|3
2021-04-22 21:00:02.258 +0100|138193.0298455|-0.4077301025390625|0.7133026123046875|-0.4415435791015625|138193.0198650417|-1.601134208954127|-0.7316648158716053|-0.7716962512063635|0.1741068810224533|-0.06066779792308807|-0.4193122386932373|0.02737516164779663|0.07722961902618408|0.1569492220878601|XArbitraryZVertical|0.4825899104582168|-0.02147478823638378|0.5272355575514404|-0.6990484414192278|-0.4788532853126526|0.6973519921302795|-0.5332916378974915|0|0|0|-1|-1|3
2021-04-22 21:00:02.278 +0100|138193.0498075|-0.398712158203125|0.7537689208984375|-0.4593963623046875|138193.0398265|-1.610250515153282|-0.73874194516931|-0.7653674650321262|-0.1446889936923981|-0.01785173267126083|-0.4915944635868073|0.07784637808799744|0.02050024271011353|0.09159839153289795|XArbitraryZVertical|0.4827737399473584|-0.01894001797360514|0.5302372914233775|-0.696720400539438|-0.4855774939060211|0.6928020119667053|-0.5331416130065918|0|0|0|-1|-1|3
2021-04-22 21:00:02.298 +0100|138193.0697695|-0.4214630126953125|0.7399139404296875|-0.4208984375|138193.0597885|-1.628085302626576|-0.7515369758451085|-0.7648073244418618|-0.4714181125164032|0.08946450054645538|-0.5410100221633911|0.09391084313392639|0.06137055158615112|0.06777268648147583|XArbitraryZVertical|0.4858695066199687|-0.01861490218721626|0.5334669400320491|-0.6920964518045999|-0.4926240146160126|0.6923980116844177|-0.5271686315536499|0|0|0|-1|-1|3
2021-04-22 21:00:02.318 +0100|138193.0897305|-0.39508056640625|0.7256011962890625|-0.3294525146484375|138193.0797495|-1.653258406255274|-0.767990251640889|-0.7705716949152509|-0.6987845897674561|0.2041597068309784|-0.5828766226768494|0.07698556780815125|0.04336804151535034|0.09521472454071045|XArbitraryZVertical|0.4914211292065511|-0.02118670431164078|0.5367080715831346|-0.6855661674367105|-0.4984495937824249|0.6965455412864685|-0.5161128044128418|0|0|0|-1|-1|3
2021-04-22 21:00:02.338 +0100|138193.1096925|-0.3932037353515625|0.781219482421875|-0.2908172607421875|138193.0997115|-1.681479270036767|-0.7849646092431495|-0.7769468761853838|-0.7564533948898315|0.1460678577423096|-0.5858163833618164|0.1089075803756714|0.02449518442153931|0.174974262714386|XArbitraryZVertical|0.4971685409311776|-0.02470304815001502|0.5405595110052314|-0.6782395172971322|-0.5039892196655273|0.7011056542396545|-0.5044264197349548|0|0|0|-1|-1|3
2021-04-22 21:00:02.358 +0100|138193.1296535|-0.4280548095703125|0.81695556640625|-0.31549072265625|138193.1196735|-1.704118728730243|-0.7988814434015555|-0.7780546601316441|-0.2891360521316528|0.0850825309753418|-0.6215102672576904|0.1171984672546387|0.07932388782501221|0.2060048282146454|XArbitraryZVertical|0.5009091423472983|-0.02606111428628847|0.5444547315958708|-0.6722945041231314|-0.5104032158851624|0.7018951177597046|-0.4968217015266418|0|0|0|-1|-1|3
2021-04-22 21:00:02.378 +0100|138193.1496155|-0.4375152587890625|0.714080810546875|-0.364959716796875|138193.1396345|-1.715903141356711|-0.8042783663422288|-0.770900385270493|0.2159672528505325|0.1112806349992752|-0.7039281129837036|0.08862537145614624|0.1201738119125366|0.1820400655269623|XArbitraryZVertical|0.5006314720203904|-0.024554854971696|0.5488415776365956|-0.6689830137630589|-0.5166811943054199|0.6967813372612|-0.4975303709506989|0|0|0|-1|-1|3
2021-04-22 21:00:02.398 +0100|138193.1695775|-0.44024658203125|0.665771484375|-0.40045166015625|138193.1595965|-1.725426144300316|-0.8080968852055425|-0.7598272706887723|0.1008519232273102|0.1217244789004326|-0.7642264366149902|0.08660709857940674|0.02528411149978638|0.1358944177627563|XArbitraryZVertical|0.4991079164600457|-0.02155016399397861|0.5538213015031739|-0.6661148147916436|-0.5241234302520752|0.6887962222099304|-0.5008537769317627|0|0|0|-1|-1|3
2021-04-22 21:00:02.418 +0100|138193.1895385|-0.4423675537109375|0.7241058349609375|-0.4505462646484375|138193.1795575|-1.742608145905207|-0.817860969660795|-0.7510271233893824|-0.4103790521621704|0.05312614515423775|-0.7292007207870483|0.09314358234405518|-0.01661890745162964|0.09938660264015198|XArbitraryZVertical|0.4997076711518835|-0.01932136573751983|0.5592673536636205|-0.6611648720442677|-0.5333911776542664|0.6823899149894714|-0.4998378455638885|0|0|0|-1|-1|3
2021-04-22 21:00:02.438 +0100|138193.2095005|-0.46502685546875|0.77996826171875|-0.4288482666015625|138193.1995195|-1.767667598922265|-0.8348580372205333|-0.7484068478008007|-0.7058462500572205|-0.02937794849276543|-0.7178206443786621|0.1007644534111023|0.04363322257995605|0.04135274887084961|XArbitraryZVertical|0.5036747676378854|-0.01903598756845613|0.5638951940310085|-0.6541955665403086|-0.543133020401001|0.680472195148468|-0.4918987154960632|0|0|0|-1|-1|3
2021-04-22 21:00:02.458 +0100|138193.2294615|-0.4774932861328125|0.74847412109375|-0.393096923828125|138193.2194815|-1.795356247300768|-0.8550306841754599|-0.7472198943322155|-0.7158968448638916|-0.1117583066225052|-0.7228066325187683|0.08852595090866089|0.1003658175468445|0.05252465605735779|XArbitraryZVertical|0.5088725862282|-0.01903766254863864|0.5680885906125109|-0.6464995522656666|-0.5535537600517273|0.6796019673347473|-0.4813725054264069|0|0|0|-1|-1|3
2021-04-22 21:00:02.478 +0100|138193.2494235|-0.46820068359375|0.772796630859375|-0.3502044677734375|138193.2394425|-1.822806849428352|-0.8769697131556606|-0.7450769096692743|-0.6705190539360046|-0.2427396029233932|-0.7572253346443176|0.08760470151901245|0.07044529914855957|0.0769469141960144|XArbitraryZVertical|0.5144386262094991|-0.01819744850948745|0.571833939383201|-0.6387705675647828|-0.5650989413261414|0.6780283451080322|-0.4700435101985931|0|0|0|-1|-1|3
2021-04-22 21:00:02.498 +0100|138193.2693855|-0.4899444580078125|0.8471221923828125|-0.32867431640625|138193.2594045|-1.847692209647632|-0.9006022296658885|-0.7424303871191643|-0.4548920691013336|-0.4944280385971069|-0.7933124303817749|0.1092510223388672|0.09671545028686523|0.1074676513671875|XArbitraryZVertical|0.5204846392387318|-0.01612034536183594|0.5742903843444238|-0.6316854664473184|-0.5774526596069336|0.6760807037353516|-0.4576717615127563|0|0|0|-1|-1|3
2021-04-22 21:00:02.518 +0100|138193.2893465|-0.53265380859375|0.7927398681640625|-0.334716796875|138193.2793655|-1.865387037837531|-0.9242112421849785|-0.7342323047027822|-0.04334627836942673|-0.7694397568702698|-0.8995272517204285|0.1025545001029968|0.1771041750907898|0.1185626685619354|XArbitraryZVertical|0.5256214887876632|-0.01018549043253911|0.5757528888144842|-0.6262004323140478|-0.592499852180481|0.6700174808502197|-0.4472366273403168|0|0|0|-1|-1|3
2021-04-22 21:00:02.538 +0100|138193.3093085|-0.5206451416015625|0.6681976318359375|-0.3304290771484375|138193.2993275|-1.87626051095703|-0.9476809153229896|-0.7207478367715348|0.249628558754921|-0.9766414761543274|-0.9885662794113159|0.07745939493179321|0.132792592048645|0.1037254631519318|XArbitraryZVertical|0.5298855964201251|-0.000561838962536104|0.5763632562204977|-0.6221145406584395|-0.6101140975952148|0.6599467396736145|-0.4384418725967407|0|0|0|-1|-1|3
2021-04-22 21:00:02.558 +0100|138193.3292695|-0.54290771484375|0.5775299072265625|-0.341522216796875|138193.3192885|-1.885349508340354|-0.9754899691640425|-0.7023770208515484|0.2912499308586121|-1.269740462303162|-1.077071070671082|0.1113559007644653|0.02216321229934692|0.09760624170303345|XArbitraryZVertical|0.5346230144700925|0.01267927229649036|0.5764190635042552|-0.6178662740008465|-0.6320019960403442|0.6460338830947876|-0.4280349314212799|0|0|0|-1|-1|3
2021-04-22 21:00:02.578 +0100|138193.3492315|-0.5927886962890625|0.5648040771484375|-0.319671630859375|138193.3392505|-1.896319852712129|-1.010302827968971|-0.6812549510221352|0.1498268395662308|-1.502667546272278|-1.153720498085022|0.1150211691856384|-0.05223900079727173|0.07141941785812378|XArbitraryZVertical|0.541032471232015|0.02851770719208629|0.5757546318178259|-0.612353956128862|-0.6579297780990601|0.6297683715820312|-0.4129412174224854|0|0|0|-1|-1|3
2021-04-22 21:00:02.598 +0100|138193.3691925|-0.6460113525390625|0.6107025146484375|-0.2593536376953125|138193.3592125|-1.909087995540167|-1.050293503230834|-0.6604653231092215|0.09753254055976868|-1.710011959075928|-1.131132006645203|0.09233593940734863|-0.04868090152740479|0.07306313514709473|XArbitraryZVertical|0.5491760501245813|0.04514991490701305|0.573975733787068|-0.6057386316749155|-0.6851255297660828|0.6134843826293945|-0.3927342891693115|0|0|0|-1|-1|3
2021-04-22 21:00:02.618 +0100|138193.3891545|-0.72607421875|0.675872802734375|-0.2336883544921875|138193.3791735|-1.918565156033808|-1.093005868942782|-0.639459383659159|0.3297514021396637|-1.998834133148193|-1.082536220550537|0.06654602289199829|0.01394015550613403|0.1096135377883911|XArbitraryZVertical|0.5581218178686622|0.06337743147173748|0.5702916869570133|-0.5993753973038516|-0.7125582098960876|0.5967617034912109|-0.368966668844223|0|0|0|-1|-1|3
2021-04-22 21:00:02.638 +0100|138193.4091165|-0.8215484619140625|0.5851287841796875|-0.2309417724609375|138193.3991355|-1.916906807587592|-1.133846037895221|-0.6150833575170145|0.8708122968673706|-2.15282130241394|-1.059712409973145|0.01391613483428955|0.09884548187255859|0.1119326651096344|XArbitraryZVertical|0.5656184089195881|0.08523843395465672|0.5644549748829745|-0.595147815262248|-0.7399911880493164|0.5770266056060791|-0.3456204533576965|0|0|0|-1|-1|3
2021-04-22 21:00:02.658 +0100|138193.4290775|-0.8844146728515625|0.49566650390625|-0.2362823486328125|138193.4190965|-1.904723182324202|-1.170532885148734|-0.5881643004690387|1.063142776489258|-2.214030265808105|-0.9770717620849609|-0.05534803867340088|0.03029346466064453|0.09324145317077637|XArbitraryZVertical|0.5708629096105764|0.1096549869176835|0.5571852656761836|-0.5929891429125461|-0.7662012577056885|0.5548347234725952|-0.3241826593875885|0|0|0|-1|-1|3
2021-04-22 21:00:02.678 +0100|138193.4490395|-0.9245147705078125|0.508697509765625|-0.2557220458984375|138193.4390585|-1.89112840375348|-1.207682272150857|-0.5641346562969694|0.8527060151100159|-2.227731466293335|-0.8273033499717712|-0.09446507692337036|-0.03901886940002441|0.0638696551322937|XArbitraryZVertical|0.576301436404673|0.1334203249498768|0.5485639010211353|-0.5908920757853252|-0.7899503707885742|0.5346847772598267|-0.3001513481140137|0|0|0|-1|-1|3
2021-04-22 21:00:02.698 +0100|138193.4690005|-0.9209747314453125|0.5615386962890625|-0.2755279541015625|138193.4590205|-1.880883629720449|-1.246124642682449|-0.5446434782676017|0.6317031383514404|-2.187394618988037|-0.7215925455093384|-0.113888680934906|-0.009416282176971436|0.01712119579315186|XArbitraryZVertical|0.5827594863996787|0.1548227898872366|0.5393395363257116|-0.5878216532809553|-0.8106268644332886|0.5181131958961487|-0.2728425562381744|0|0|0|-1|-1|3
2021-04-22 21:00:02.718 +0100|138193.4889625|-0.9263763427734375|0.5594940185546875|-0.299041748046875|138193.4789815|-1.87202605967184|-1.285035878397277|-0.5288787471912932|0.622572124004364|-2.140831708908081|-0.5686020255088806|-0.09261387586593628|0.05697250366210938|-0.03215333819389343|XArbitraryZVertical|0.589799966792376|0.1744965370474486|0.5293536116442362|-0.5843560374680118|-0.8283616900444031|0.5045655965805054|-0.243373915553093|0|0|0|-1|-1|3
2021-04-22 21:00:02.738 +0100|138193.5089245|-0.8971099853515625|0.47918701171875|-0.294189453125|138193.4989435|-1.860936536509152|-1.321250063909527|-0.5151677497094462|0.6593648791313171|-2.040121555328369|-0.5005062818527222|-0.08312195539474487|0.06681254506111145|-0.08413016796112061|XArbitraryZVertical|0.5959984908656452|0.1932106926828002|0.5189060961998748|-0.5815427863065205|-0.8432550430297852|0.4926808476448059|-0.2149108499288559|0|0|0|-1|-1|3
2021-04-22 21:00:02.757 +0100|138193.5288855|-0.881622314453125|0.4225921630859375|-0.2730712890625|138193.5189045|-1.849641783463675|-1.355968648488963|-0.5032038317971607|0.5664619207382202|-2.018479347229004|-0.4508967399597168|-0.04120588302612305|-0.003048360347747803|-0.1074348092079163|XArbitraryZVertical|0.6017988169068245|0.210858364404891|0.5083322781112524|-0.5787706008012991|-0.855904757976532|0.4822346866130829|-0.1867538690567017|0|0|0|-1|-1|3
2021-04-22 21:00:02.777 +0100|138193.5488475|-0.9584808349609375|0.4263458251953125|-0.6569061279296875|138193.5388665|-1.839990318356539|-1.392209203388687|-0.4924980905509333|0.4816861748695374|-2.047919750213623|-0.4313047528266907|-0.01448255777359009|-0.05023708939552307|-0.1165427416563034|XArbitraryZVertical|0.6080966140815024|0.2279356288338516|0.497385201439573|-0.5752146664871453|-0.8671403527259827|0.4728285670280457|-0.1565277129411697|0|0|0|-1|-1|3
2021-04-22 21:00:02.797 +0100|138193.5688085|-1.665237426757812|0.5968475341796875|-2.017486572265625|138193.5588285|-1.827938792475334|-1.419558174175269|-0.4841845532970599|1.162443041801453|-0.9048155546188354|-0.1685367673635483|-0.08352911472320557|-0.03914162516593933|-0.5235608816146851|XArbitraryZVertical|0.6120596306586272|0.2423031474915935|0.4877763062882363|-0.5733642872921283|-0.8749523162841797|0.4654867947101593|-0.1333443820476532|0|0|0|-1|-1|3
2021-04-22 21:00:02.817 +0100|138193.5887705|-1.09417724609375|0.1375732421875|-1.007781982421875|138193.5787895|-1.798812538166564|-1.39555987635365|-0.471548375758785|1.478590130805969|1.662931799888611|-0.7111536264419556|-0.7880151867866516|0.1425806879997253|-1.862171292304993|XArbitraryZVertical|0.600496510481789|0.2484888620238851|0.4899919257443792|-0.5810036232855207|-0.8772227168083191|0.454266220331192|-0.1553144454956055|0|0|0|-1|-1|3
2021-04-22 21:00:02.837 +0100|138193.6087325|-0.406524658203125|-0.077728271484375|-0.334228515625|138193.5987515|-1.788584094000155|-1.350149424397131|-0.455862298429597|-0.7284733653068542|2.044133901596069|-0.5554155707359314|-0.2180641889572144|-0.3026640117168427|-0.8112698793411255|XArbitraryZVertical|0.5851540685939566|0.2435961653106272|0.5045765442645236|-0.5862238500933755|-0.8761137723922729|0.4402367174625397|-0.1965112537145615|0|0|0|-1|-1|3
2021-04-22 21:00:02.857 +0100|138193.6286935|-0.5657958984375|0.274383544921875|-0.3649139404296875|138193.6187125|-1.833703672942674|-1.343679728444874|-0.4611864479514787|-2.991211652755737|0.5282471776008606|0.1744861900806427|0.4660025835037231|-0.5227397680282593|-0.1325831115245819|XArbitraryZVertical|0.5897579523443826|0.2266345927396198|0.5182221541732208|-0.5764271977335692|-0.8725279569625854|0.4450109004974365|-0.2016446441411972|0|0|0|-1|-1|3
2021-04-22 21:00:02.877 +0100|138193.6486555|-1.03692626953125|0.624298095703125|-0.314178466796875|138193.6386745|-1.898287649406819|-1.37001073788604|-0.4800593101661675|-2.653189420700073|0.03515955060720444|0.3345999419689178|0.3033521771430969|-0.1874489188194275|-0.1880170702934265|XArbitraryZVertical|0.6067869289979431|0.2082343682442922|0.5238936219751397|-0.5603425723646662|-0.8691487908363342|0.4618317782878876|-0.1768961399793625|0|0|0|-1|-1|3
2021-04-22 21:00:02.897 +0100|138193.6686165|-1.029586791992188|0.6913909912109375|-0.276824951171875|138193.6586365|-1.937998237076624|-1.382944720108498|-0.4921963878767132|-0.9704208970069885|0.5710898041725159|0.1436140239238739|-0.1711337566375732|0.1517347097396851|-0.1495965719223022|XArbitraryZVertical|0.6160490176048707|0.1954303947230766|0.5279003756376405|-0.5510099316769174|-0.8657931685447693|0.472562700510025|-0.1645811349153519|0|0|0|-1|-1|3
2021-04-22 21:00:02.917 +0100|138193.6885785|-0.8300018310546875|0.4737091064453125|-0.2628326416015625|138193.6785975|-1.944554666429962|-1.371561975082433|-0.4935595089740754|0.2097296565771103|0.7610946297645569|-0.08365241438150406|-0.1663559079170227|0.2176267206668854|-0.102526530623436|XArbitraryZVertical|0.6138628857565441|0.1897985946599487|0.5328628890931815|-0.5506415540911261|-0.8632314801216125|0.4737635850906372|-0.1742977052927017|0|0|0|-1|-1|3
2021-04-22 21:00:02.937 +0100|138193.7085395|-0.83941650390625|0.45452880859375|-0.17071533203125|138193.6985595|-1.935243714661336|-1.354603952263399|-0.4896715883215373|0.6260144710540771|0.4912121295928955|-0.09601613879203796|0.03194183111190796|0.003372281789779663|-0.07352761924266815|XArbitraryZVertical|0.6078649390445626|0.1893358154168576|0.5364457781686061|-0.5539658966951924|-0.861944317817688|0.4703360795974731|-0.1893043369054794|0|0|0|-1|-1|3
2021-04-22 21:00:02.957 +0100|138193.7285015|-0.8760528564453125|0.49749755859375|-0.0899658203125|138193.7185205|-1.916904190053683|-1.338160694488433|-0.4841223429951776|1.146448016166687|0.3190387189388275|-0.105964295566082|0.02182447910308838|-0.01090365648269653|0.03333522379398346|XArbitraryZVertical|0.6008397019871226|0.1922673366756686|0.5376980236385174|-0.5593798732713241|-0.8612415790557861|0.4654317498207092|-0.2040498405694962|0|0|0|-1|-1|3
2021-04-22 21:00:02.977 +0100|138193.7484635|-0.8784942626953125|0.4405364990234375|-0.0557861328125|138193.7384825|-1.886547719405627|-1.319430690429593|-0.4746844580542838|1.623146414756775|0.1377115994691849|-0.1471923291683197|-0.01456815004348755|0.04043900966644287|0.1312618404626846|XArbitraryZVertical|0.5912998448678929|0.1993765885732336|0.5370878057382658|-0.5675828346909148|-0.8614853024482727|0.4570578038692474|-0.2212269455194473|0|0|0|-1|-1|3
2021-04-22 21:00:02.997 +0100|138193.7684245|-0.940673828125|0.4223785400390625|-0.06024169921875|138193.7584435|-1.853663197541238|-1.304144127412796|-0.4645427588521416|1.365028858184814|-0.0910198986530304|-0.05536218732595444|-0.01606458425521851|-0.007478266954421997|0.1797936707735062|XArbitraryZVertical|0.5821106685954983|0.2082249462187227|0.534708276882943|-0.5760874204530766|-0.8624303340911865|0.4480140507221222|-0.2355790883302689|0|0|0|-1|-1|3
2021-04-22 21:00:03.017 +0100|138193.7883865|-0.9752197265625|0.4312744140625|-0.079376220703125|138193.7784055|-1.829550356798554|-1.2963177364395|-0.4586452710659049|0.8847353458404541|-0.1692356616258621|0.04265625029802322|-0.07758599519729614|-0.02035591006278992|0.1827924996614456|XArbitraryZVertical|0.5764153173965304|0.2150085310516893|0.5314710836086368|-0.5822845137975907|-0.8630884289741516|0.4427337944507599|-0.2430334240198135|0|0|0|-1|-1|3
2021-04-22 21:00:03.037 +0100|138193.8083475|-0.9799346923828125|0.4087982177734375|-0.128021240234375|138193.7983675|-1.815023902857008|-1.292340136642574|-0.4562448907535795|0.4821355640888214|-0.06769780069589615|0.06453802436590195|-0.1120861172676086|-0.009306460618972778|0.1673804670572281|XArbitraryZVertical|0.5733432816483971|0.2188596025557865|0.5289745849516519|-0.5861432114048643|-0.8631342053413391|0.4405802190303802|-0.246755912899971|0|0|0|-1|-1|3
2021-04-22 21:00:03.057 +0100|138193.8283095|-1.055770874023438|0.4137115478515625|-0.0603179931640625|138193.8183285|-1.808347550642776|-1.289527217723|-0.4555498948722295|0.07045964151620865|0.07651285082101822|0.0411856546998024|-0.1172046065330505|-0.0311586856842041|0.1212473213672638|XArbitraryZVertical|0.571737508005817|0.220187026795728|0.5279949438159883|-0.5880945895089067|-0.8627306222915649|0.4399561882019043|-0.2492677867412567|0|0|0|-1|-1|3
2021-04-22 21:00:03.077 +0100|138193.8482715|-1.068145751953125|0.4352874755859375|0.034942626953125|138193.8382905|-1.810397874387737|-1.285976877506558|-0.4568873502633373|-0.2538679838180542|0.3867258727550507|0.03425353392958641|-0.1944966912269592|-0.02744597196578979|0.1918464004993439|XArbitraryZVertical|0.5712743007787797|0.2180913935417764|0.5292756682447389|-0.588174366044192|-0.8612747192382812|0.4411568641662598|-0.2521636486053467|0|0|0|-1|-1|3
2021-04-22 21:00:03.097 +0100|138193.8682325|-0.976776123046875|0.458740234375|0.050506591796875|138193.8582515|-1.817889479635993|-1.27835214564148|-0.4596137142695619|-0.4132136702537537|0.673545777797699|0.03056985139846802|-0.2099741697311401|-0.008315145969390869|0.2933189570903778|XArbitraryZVertical|0.5705660010089214|0.212759656189593|0.532969562933538|-0.5874787336710016|-0.8581721782684326|0.4436019361019135|-0.2583755254745483|0|0|0|-1|-1|3
2021-04-22 21:00:03.117 +0100|138193.8881945|-0.954803466796875|0.451629638671875|0.0212249755859375|138193.8782135|-1.825484812788273|-1.267360500862501|-0.4623857431373848|-0.324908971786499|0.7707788348197937|0.03309781104326248|-0.1226731538772583|0.01265496015548706|0.3179313540458679|XArbitraryZVertical|0.5689365907731319|0.2063956236019534|0.5376382862614777|-0.5870750644041377|-0.8541036248207092|0.446084588766098|-0.2674240171909332|0|0|0|-1|-1|3
2021-04-22 21:00:03.137 +0100|138193.9081555|-0.9112396240234375|0.3622894287109375|-0.055572509765625|138193.8981755|-1.833359614237631|-1.25370318989554|-0.4654007354668652|-0.4881602227687836|0.9672073125839233|0.04101787507534027|-0.1057140231132507|0.002848058938980103|0.2998686134815216|XArbitraryZVertical|0.5666061287235978|0.1990881108201907|0.5430772773504934|-0.5868462906365299|-0.849090039730072|0.4487809538841248|-0.2786428332328796|0|0|0|-1|-1|3
2021-04-22 21:00:03.157 +0100|138193.9281175|-0.8549957275390625|0.3314666748046875|-0.1269683837890625|138193.9181365|-1.848457082787569|-1.239644171379257|-0.471006494111795|-1.009391903877258|1.108021378517151|0.07721272110939026|-0.06854379177093506|-0.09149461984634399|0.2341579794883728|XArbitraryZVertical|0.5652657580140836|0.1887054049893767|0.5500950491462836|-0.5850303355127753|-0.8426965475082397|0.4537834227085114|-0.2897297739982605|0|0|0|-1|-1|3
2021-04-22 21:00:03.177 +0100|138193.9480795|-0.817962646484375|0.409576416015625|-0.173492431640625|138193.9380985|-1.87411782135964|-1.229105470386023|-0.4817472703519337|-1.441255211830139|1.112001538276672|0.1741963475942612|-0.02004051208496094|-0.1318622529506683|0.1699764132499695|XArbitraryZVertical|0.5666306758006641|0.174521151607631|0.5579229591136016|-0.5806842380396763|-0.8349558711051941|0.4633283019065857|-0.2969440817832947|0|0|0|-1|-1|3
2021-04-22 21:00:03.197 +0100|138193.9680405|-0.78973388671875|0.4639739990234375|-0.2137603759765625|138193.9580595|-1.90261023433769|-1.219883407937904|-0.4952353322214317|-1.317606091499329|1.147120714187622|0.2242233008146286|0.008274495601654053|-0.06566300988197327|0.1289636194705963|XArbitraryZVertical|0.568796648355317|0.1588794008969029|0.5654916614198936|-0.5757142537296062|-0.8262377977371216|0.475238710641861|-0.3024554252624512|0|0|0|-1|-1|3
2021-04-22 21:00:03.217 +0100|138193.9880025|-0.7515411376953125|0.407012939453125|-0.236236572265625|138193.9780215|-1.923956569335673|-1.20755680912377|-0.5063946111188263|-0.8043011426925659|1.120292663574219|0.1598939299583435|0.02770400047302246|-0.02105417847633362|0.09695345163345337|XArbitraryZVertical|0.5688270689413143|0.1451866066774261|0.5724202946888945|-0.5724437649068814|-0.8174386620521545|0.4850274920463562|-0.3107132315635681|0|0|0|-1|-1|3
2021-04-22 21:00:03.237 +0100|138194.0079635|-0.7087860107421875|0.265045166015625|-0.3368072509765625|138193.9979835|-1.935952483403529|-1.191477207043064|-0.5128634207631131|-0.4927890300750732|1.069524526596069|0.06502174586057663|0.05786359310150146|-0.08366203308105469|0.0864119827747345|XArbitraryZVertical|0.5661317062613443|0.1347994936425874|0.5788532741358065|-0.5711855794580248|-0.8094054460525513|0.4906742870807648|-0.3226479887962341|0|0|0|-1|-1|3
2021-04-22 21:00:03.257 +0100|138194.027926|-0.738983154296875|0.13018798828125|-0.3951568603515625|138194.0179445|-1.948077862625518|-1.177011640726883|-0.5175726648367112|-0.7594206929206848|0.9964621067047119|-0.0334603562951088|0.09372407197952271|-0.2297276854515076|-0.003374606370925903|XArbitraryZVertical|0.5635008741350299|0.1255019099673452|0.5852678460690032|-0.5693661559426032|-0.8025109767913818|0.49477219581604|-0.3334320783615112|0|0|0|-1|-1|3
2021-04-22 21:00:03.277 +0100|138194.047888|-0.7524566650390625|-0.04974365234375|-0.4631805419921875|138194.037907|-1.971666002999625|-1.168130424388145|-0.5235915565288306|-1.329897522926331|1.089977860450745|-0.2431442439556122|0.05777978897094727|-0.3698064088821411|-0.05578342080116272|XArbitraryZVertical|0.5632911619203974|0.1140902553269187|0.5930208523200265|-0.5639264309014294|-0.7967638373374939|0.4999937415122986|-0.3393729627132416|0|0|0|-1|-1|3
2021-04-22 21:00:03.296 +0100|138194.067849|-0.721038818359375|-0.16070556640625|-0.447479248046875|138194.057868|-2.009933670378159|-1.164840170849064|-0.528592851546948|-2.014767408370972|1.143718600273132|-0.58101487159729|0.0408780574798584|-0.5540631413459778|-0.122179239988327|XArbitraryZVertical|0.5651562074151329|0.1004890116562364|0.6034604575973838|-0.5534762116943214|-0.7933353781700134|0.5043187141418457|-0.3410008251667023|0|0|0|-1|-1|3
2021-04-22 21:00:03.316 +0100|138194.087811|-0.7763824462890625|-0.1225738525390625|-0.6198272705078125|138194.07783|-2.068115069114323|-1.173251681082278|-0.5364691830377806|-2.869014024734497|0.9271382093429565|-0.6218706965446472|0.07144904136657715|-0.6718106865882874|-0.1147112846374512|XArbitraryZVertical|0.5715645649260725|0.08324773145507279|0.6150931750205201|-0.5366975503404464|-0.7924886345863342|0.5111044049263|-0.332767516374588|0|0|0|-1|-1|3
2021-04-22 21:00:03.337 +0100|138194.107772|-1.122085571289062|-0.1977386474609375|-1.003265380859375|138194.097792|-2.14437393938227|-1.193760317859936|-0.5497471639799433|-3.750884532928467|1.082759737968445|-0.6486392617225647|0.01638287305831909|-0.6450463533401489|-0.3059073984622955|XArbitraryZVertical|0.5824553952353415|0.06153034232401882|0.6261699455925739|-0.5146562040922794|-0.7927660942077637|0.5224716663360596|-0.3139194548130035|0|0|0|-1|-1|3
2021-04-22 21:00:03.356 +0100|138194.127734|-1.596405029296875|-0.2628021240234375|-0.996063232421875|138194.117753|-2.249440929919484|-1.219150043909854|-0.5689463752355144|-5.435017585754395|2.106153964996338|-0.7178828716278076|-0.331170380115509|-0.7364841103553772|-0.7130817174911499|XArbitraryZVertical|0.5950116545846167|0.0294865108690679|0.6406141242460432|-0.4844641679575891|-0.7909160852432251|0.5387446880340576|-0.2901833653450012|0|0|0|-1|-1|3
2021-04-22 21:00:03.376 +0100|138194.147696|-1.900115966796875|0.437042236328125|-0.6433563232421875|138194.137715|-2.39914500276682|-1.250796306609691|-0.6021846892933156|-7.207069396972656|2.844207763671875|-0.1503712683916092|-0.8141406774520874|-0.8292471766471863|-0.7368287444114685|XArbitraryZVertical|0.608219925509259|-0.02124454984765078|0.6585390303990509|-0.4426552577951169|-0.7822650671005249|0.5664442181587219|-0.2592343688011169|0|0|0|-1|-1|3
2021-04-22 21:00:03.396 +0100|138194.167657|-1.727493286132812|1.069732666015625|-0.9218292236328125|138194.157676|-2.560583798666135|-1.279804968623004|-0.6456208672427755|-6.048601627349854|3.865479230880737|0.3116284906864166|-1.134968757629395|-0.1646530628204346|-0.4142000675201416|XArbitraryZVertical|0.6154366842987938|-0.08160614931591072|0.6745881497503774|-0.3993858243004371|-0.7651479244232178|0.6016944646835327|-0.2291562408208847|0|0|0|-1|-1|3
2021-04-22 21:00:03.416 +0100|138194.187619|-1.390121459960938|1.155563354492188|-1.2762451171875|138194.177638|-2.661684555031647|-1.25050273666015|-0.6775581200239825|-2.432315111160278|5.200408458709717|0.2600719332695007|-0.9880110025405884|0.4428394436836243|-0.6765316128730774|XArbitraryZVertical|0.6002569600385245|-0.1305476306997946|0.696591480708003|-0.3706876445091553|-0.7394829988479614|0.6268923878669739|-0.2452977895736694|0|0|0|-1|-1|3
2021-04-22 21:00:03.436 +0100|138194.20758|-0.8674468994140625|1.242843627929688|-0.8367462158203125|138194.1976|-2.684979714672152|-1.154919347625792|-0.6829777087831576|0.3643427789211273|5.69578742980957|-0.4195608496665955|-0.6805437207221985|0.5244569182395935|-0.9628697633743286|XArbitraryZVertical|0.5645332276169283|-0.1568898682625101|0.7276098326894449|-0.3567517169396008|-0.7095783948898315|0.6311056017875671|-0.3133756220340729|0|0|0|-1|-1|3
2021-04-22 21:00:03.456 +0100|138194.227542|-0.195404052734375|1.12481689453125|-0.1557464599609375|138194.217561|-2.668973218531153|-1.030818861904711|-0.6580123605384528|1.486755132675171|5.700418472290039|-1.15113091468811|-0.1888111233711243|0.6312974095344543|-0.4299725890159607|XArbitraryZVertical|0.5193077886537193|-0.1641110396447924|0.7632546529189245|-0.3476054093834444|-0.678636372089386|0.6115454435348511|-0.4067739844322205|0|0|0|-1|-1|3
2021-04-22 21:00:03.476 +0100|138194.247503|0.3020172119140625|1.941864013671875|0.3768463134765625|138194.237523|-2.665671846499651|-0.9230408263154033|-0.6243690414656589|0.3206440508365631|4.653778076171875|-1.427849888801575|0.4515842795372009|0.5402306318283081|0.333809494972229|XArbitraryZVertical|0.4766681895672381|-0.1673597375785817|0.795847029435739|-0.3337751284575464|-0.6469888687133789|0.5845854878425598|-0.4895563125610352|0|0|0|-1|-1|3
2021-04-22 21:00:03.496 +0100|138194.267465|0.201751708984375|3.099685668945312|1.244949340820312|138194.257484|-2.695082215085544|-0.8574033881869393|-0.606601699199719|-0.6867892742156982|3.862184286117554|-1.434420704841614|0.9232587218284607|1.371784448623657|0.9144970178604126|XArbitraryZVertical|0.4470141237576565|-0.1770672194190264|0.8189621641801799|-0.3132518926795879|-0.6212420463562012|0.5700787305831909|-0.5376511216163635|0|0|0|-1|-1|3
2021-04-22 21:00:03.516 +0100|138194.287427|-0.0064697265625|3.800765991210938|1.946014404296875|138194.277446|-2.730235491755011|-0.8042057445984937|-0.6102082524482588|-1.858538031578064|3.37745475769043|0.06984783709049225|0.7920414209365845|2.526646614074707|1.813442468643188|XArbitraryZVertical|0.42186849421693|-0.1943711700309632|0.8352296521636996|-0.2943441087880538|-0.5902901291847229|0.5730381608009338|-0.568493664264679|0|0|0|-1|-1|3
2021-04-22 21:00:03.536 +0100|138194.307388|-1.114532470703125|5.705459594726562|2.351638793945312|138194.297407|-2.739945702540391|-0.762354418124718|-0.6826720075714671|-3.893628120422363|1.067103147506714|5.18405818939209|0.529379665851593|3.169896602630615|2.507146835327148|XArbitraryZVertical|0.4054875890062352|-0.2345492820263849|0.8322569624779238|-0.2965046496667558|-0.5358498096466064|0.6308684349060059|-0.5611329078674316|0|0|0|-1|-1|3
2021-04-22 21:00:03.556 +0100|138194.32735|0.4191131591796875|5.423477172851562|2.466812133789062|138194.317369|-2.650249172254428|-0.6764054880833187|-0.8197098819912966|-1.536087989807129|1.520611882209778|8.379181861877441|-0.6873338222503662|4.97451114654541|2.883818626403809|XArbitraryZVertical|0.3865981961894371|-0.2906054944867703|0.8070889420398843|-0.3386706336064833|-0.4271991550922394|0.7309478521347046|-0.5321805477142334|0|0|0|-1|-1|3
2021-04-22 21:00:03.576 +0100|138194.347311|-0.37628173828125|6.575668334960938|0.381927490234375|138194.337331|-2.377392229765076|-0.4768456358330829|-0.9541328383344329|-0.8986589312553406|-3.373156785964966|13.57112979888916|0.6845476031303406|4.607664108276367|2.980615139007568|XArbitraryZVertical|0.36104017047842|-0.3357800220058901|0.7605285389028907|-0.4224903477532829|-0.2654350697994232|0.8158125281333923|-0.5138035416603088|0|0|0|-1|-1|3
2021-04-22 21:00:03.596 +0100|138194.367273|-4.029403686523438|7.655059814453125|-0.285308837890625|138194.357292|-1.813599657565169|-0.1096149617962587|-1.054354245302356|1.135043025016785|-7.893685817718506|17.27850914001465|-0.3222642242908478|5.7060866355896|0.8727529644966125|XArbitraryZVertical|0.3468608166011721|-0.3664349469197095|0.6626063723808565|-0.5535033968418097|-0.05401840060949326|0.8695815205574036|-0.4908260107040405|0|0|0|-1|-1|3
2021-04-22 21:00:03.616 +0100|138194.387235|-7.46978759765625|3.069320678710938|1.986892700195312|138194.377254|-1.212635293939179|0.2104916896045038|-0.9215402788673435|10.42233276367188|-8.91152286529541|15.62293720245361|-4.155729293823242|6.858526229858398|0.305940568447113|XArbitraryZVertical|0.3097403673204275|-0.3292962877122068|0.5459760708848612|-0.7053617599509827|0.1263243556022644|0.7965338230133057|-0.5912497043609619|0|0|0|-1|-1|3
2021-04-22 21:00:03.636 +0100|138194.407196|-5.373931884765625|-0.456085205078125|0.995330810546875|138194.397215|-0.8644342005685481|0.3250252789057047|-0.6268365835077266|11.55863285064697|-5.501017093658447|15.62840843200684|-7.72841215133667|2.482735157012939|2.754376173019409|XArbitraryZVertical|0.2117975713925589|-0.2672077024706899|0.4385256798077353|-0.8315270230640414|0.2586235105991364|0.5865857005119324|-0.767483651638031|0|0|0|-1|-1|3
2021-04-22 21:00:03.656 +0100|138194.427158|-4.286895751953125|-3.129241943359375|1.601760864257812|138194.417177|-0.6308862446162177|0.3428477007366203|-0.3372426743371267|8.203366279602051|-3.114219665527344|13.22106838226318|-5.691166877746582|-0.7869710922241211|1.884080767631531|XArbitraryZVertical|0.1050329148007038|-0.2111706179824087|0.3285706398155893|-0.9145581474161498|0.3172341585159302|0.3308863341808319|-0.8887501358985901|0|0|0|-1|-1|3
2021-04-22 21:00:03.676 +0100|138194.447119|-2.627716064453125|-3.110198974609375|1.917465209960938|138194.437139|-0.4508205892987089|0.3266830514766687|-0.1437885965897096|4.65604305267334|-2.997105121612549|9.456161499023438|-4.604488372802734|-3.272534847259521|2.539098739624023|XArbitraryZVertical|0.03283141515024736|-0.1739341900918933|0.2313471867441234|-0.9566334828004389|0.3175916373729706|0.143293634057045|-0.9373379945755005|0|0|0|-1|-1|3
2021-04-22 21:00:03.696 +0100|138194.467081|-1.731613159179688|-2.097244262695312|1.4603271484375|138194.4571|-0.3378269670175223|0.2772041895739524|-0.03098159257362088|2.879041910171509|-2.966140031814575|4.755603313446045|-2.901253223419189|-3.141174793243408|2.878827810287476|XArbitraryZVertical|-0.008099982010417865|-0.1387552229109696|0.1685888741846402|-0.9758377938945404|0.2735363245010376|0.03097663633525372|-0.9613627791404724|0|0|0|-1|-1|3
2021-04-22 21:00:03.716 +0100|138194.487043|-1.058502197265625|-1.823928833007812|1.109893798828125|138194.477062|-0.2984046088124467|0.2250505494417604|0.01772762521930686|0.3828265964984894|-2.243436813354492|0.4179433286190033|-1.954734444618225|-2.079516887664795|2.434956550598145|XArbitraryZVertical|-0.02540065526985922|-0.1097268121595457|0.1467191953066054|-0.9827454317830931|0.2231205701828003|-0.01772669702768326|-0.9746296405792236|0|0|0|-1|-1|3
2021-04-22 21:00:03.736 +0100|138194.507004|-1.423797607421875|-0.645660400390625|0.5619354248046875|138194.497023|-0.3148030351154525|0.1771705510701258|-0.01193932767541441|-2.80769419670105|-2.668732643127441|-2.286159753799438|-1.234735608100891|-1.835867166519165|2.094169855117798|XArbitraryZVertical|-0.007994833202892565|-0.0883063113989382|0.1566565337753543|-0.983665130062056|0.1762325614690781|0.01193904411047697|-0.9842761754989624|0|0|0|-1|-1|3
2021-04-22 21:00:03.755 +0100|138194.526966|-1.762161254882812|0.676788330078125|-0.0876617431640625|138194.516985|-0.3629573131658764|0.1312339066141838|-0.0876255041902428|-3.776358604431152|-1.33008873462677|-3.449780464172363|-1.554153919219971|-0.733173131942749|1.549532890319824|XArbitraryZVertical|0.03116379430606346|-0.07231915298476499|0.1827476190130397|-0.9800011163161495|0.1303554773330688|0.08751340955495834|-0.9875975251197815|0|0|0|-1|-1|3
2021-04-22 21:00:03.776 +0100|138194.546927|-1.3360595703125|1.28497314453125|-0.3059539794921875|138194.536947|-0.4265751506514035|0.1128740838316221|-0.1689784537431032|-3.39231538772583|0.1746546477079391|-3.698486328125|-1.873192429542542|0.5086135268211365|0.8918225169181824|XArbitraryZVertical|0.07044787274120415|-0.07276673567369377|0.2152354909302564|-0.9712959885064866|0.1110303103923798|0.1681754440069199|-0.9794842004776001|0|0|0|-1|-1|3
2021-04-22 21:00:03.795 +0100|138194.566889|-0.821380615234375|0.947998046875|-0.2671661376953125|138194.556908|-0.4925915382750499|0.1103142438286557|-0.2393292162339938|-3.176448583602905|0.7252936363220215|-3.378446102142334|-1.443013310432434|1.047922730445862|0.6596380472183228|XArbitraryZVertical|0.10225544896224|-0.08214508736174167|0.2480841309557893|-0.9598179462570581|0.1069527491927147|0.2370510101318359|-0.9655920267105103|0|0|0|-1|-1|3
2021-04-22 21:00:03.815 +0100|138194.586851|-0.441375732421875|0.8784027099609375|-0.6045379638671875|138194.57687|-0.5455786237769936|0.1077037410969168|-0.3136575483440593|-3.650475025177002|0.5038219690322876|-2.523799180984497|-0.9236326813697815|0.6394587755203247|0.6785336136817932|XArbitraryZVertical|0.1358696316996462|-0.09321798289634625|0.2738224593407501|-0.9475606740879432|0.1022510752081871|0.3085398077964783|-0.9456996917724609|0|0|0|-1|-1|3
2021-04-22 21:00:03.835 +0100|138194.606812|0.093963623046875|1.000656127929688|-0.8769683837890625|138194.596831|-0.5851821930515775|0.1052291095142734|-0.3955040603266624|-3.953984260559082|0.6067643165588379|-2.130494356155396|-0.5383033156394958|0.4931298494338989|0.3131601810455322|XArbitraryZVertical|0.1729822836328648|-0.1059627548303382|0.2923144431551483|-0.9345595737198571|0.09692657738924026|0.3852733969688416|-0.9176980257034302|0|0|0|-1|-1|3
2021-04-22 21:00:03.855 +0100|138194.626774|0.4601287841796875|1.055984497070312|-1.182571411132812|138194.616793|-0.6225145249379932|0.09805588664345677|-0.4709211721418626|-3.026755094528198|0.1402314901351929|-1.988256454467773|0.006719991564750671|0.5469492077827454|0.009901762008666992|XArbitraryZVertical|0.207219286426142|-0.1167268987208444|0.3083311430001496|-0.9210684762095073|0.08724261820316315|0.453707367181778|-0.8868700265884399|0|0|0|-1|-1|3
2021-04-22 21:00:03.875 +0100|138194.646735|0.3702850341796875|0.6660919189453125|-1.121795654296875|138194.636754|-0.6635526395953095|0.0752264157740293|-0.5180764723509306|-1.537144660949707|-0.458871454000473|-2.023964881896973|0.3948346674442291|0.5607749819755554|-0.3162549734115601|XArbitraryZVertical|0.2301706179211217|-0.1177426587719542|0.3237402056356029|-0.9101376277459267|0.0652930811047554|0.4952099323272705|-0.8663163185119629|0|0|0|-1|-1|3
2021-04-22 21:00:03.895 +0100|138194.666697|0.2011260986328125|0.4575958251953125|-0.985626220703125|138194.656716|-0.7051567153858257|0.038350115173734|-0.5479021610300288|-1.343206405639648|-1.146837949752808|-1.70810341835022|0.3375556170940399|0.1451946496963501|-0.2688039541244507|XArbitraryZVertical|0.2474744344650953|-0.1107277924956579|0.3372486343547484|-0.9015315628037598|0.03272837027907372|0.5208976268768311|-0.85299152135849|0|0|0|-1|-1|3
2021-04-22 21:00:03.915 +0100|138194.686658|-0.11041259765625|0.3914794921875|-1.108062744140625|138194.676678|-0.740781742518915|-0.01175588666413776|-0.5768927728381634|-1.503097534179688|-1.928249359130859|-1.358587622642517|0.2109781503677368|-0.08782601356506348|-0.1475224494934082|XArbitraryZVertical|0.2672077123358785|-0.09771516370634657|0.3454606553463931|-0.8942644708921589|-0.009853104129433632|0.5454221963882446|-0.8381035923957825|0|0|0|-1|-1|3
2021-04-22 21:00:03.935 +0100|138194.70662|-0.382781982421875|0.374114990234375|-1.258621215820312|138194.696639|-0.7717780781544626|-0.06960483176806509|-0.6057197659994674|-1.418042898178101|-2.026335000991821|-1.130630612373352|-0.05323823913931847|-0.1778741478919983|-0.2879605293273926|XArbitraryZVertical|0.2886520139424423|-0.08141915186450448|0.3494206156389499|-0.8876689800065414|-0.0571754164993763|0.5693539381027222|-0.8201018571853638|0|0|0|-1|-1|3
2021-04-22 21:00:03.955 +0100|138194.726582|-0.38671875|0.472900390625|-1.333465576171875|138194.716601|-0.8010618687525864|-0.1229947573731606|-0.6327879025805747|-1.470690369606018|-1.564304709434509|-0.9835696816444397|-0.2838521599769592|-0.2172799110412598|-0.4583306312561035|XArbitraryZVertical|0.3087480410674778|-0.06730172398372382|0.3522443355956845|-0.8809478814628943|-0.09893087297677994|0.5913951396942139|-0.8002902269363403|0|0|0|-1|-1|3
2021-04-22 21:00:03.975 +0100|138194.746543|-0.2699127197265625|0.55340576171875|-1.266143798828125|138194.736562|-0.82980906278331|-0.1670806478260835|-0.658627253902678|-1.371281385421753|-1.185808897018433|-0.9440408945083618|-0.2552008032798767|-0.1391311883926392|-0.5536448359489441|XArbitraryZVertical|0.3267517923799367|-0.05764615416895302|0.3554159471717626|-0.8738362026173954|-0.1315190047025681|0.6120318174362183|-0.7798203825950623|0|0|0|-1|-1|3
2021-04-22 21:00:03.995 +0100|138194.766505|-0.2547760009765625|0.456878662109375|-1.064239501953125|138194.756524|-0.8595587748679782|-0.2075824363487743|-0.6799202036057845|-1.211712837219238|-1.020915985107422|-0.9500088691711426|-0.1096497029066086|-0.07532495260238647|-0.5052144527435303|XArbitraryZVertical|0.3421919747316444|-0.04939813762099252|0.3593041538854926|-0.8668132309353511|-0.1602640748023987|0.6287309527397156|-0.7609289288520813|0|0|0|-1|-1|3
2021-04-22 21:00:04.015 +0100|138194.786466|-0.307830810546875|0.4041595458984375|-1.023910522460938|138194.776486|-0.8907321685031255|-0.2479962312494051|-0.6979623218493723|-1.01512598991394|-1.082707762718201|-0.9874575138092041|-0.0667155385017395|-0.1857789754867554|-0.3215252161026001|XArbitraryZVertical|0.3562844686565139|-0.04128505458129028|0.3635468296777546|-0.859762073775489|-0.188061535358429|0.6426578760147095|-0.7427138686180115|0|0|0|-1|-1|3
2021-04-22 21:00:04.035 +0100|138194.806428|-0.4206085205078125|0.438568115234375|-1.058395385742188|138194.796447|-0.9215691163398874|-0.2891863299255785|-0.7087838031159779|-0.6852738261222839|-0.9836221933364868|-1.018762826919556|-0.09134203195571899|-0.2467512488365173|-0.2962788939476013|XArbitraryZVertical|0.3676718958102588|-0.03165094634052231|0.3678805048637319|-0.8535102175839948|-0.2164898365736008|0.6509109735488892|-0.7276312112808228|0|0|0|-1|-1|3
2021-04-22 21:00:04.055 +0100|138194.82639|-0.4309234619140625|0.3723907470703125|-1.073333740234375|138194.816409|-0.9530743860590303|-0.3262123042027173|-0.7130208048799573|-0.4771157503128052|-0.6558526754379272|-1.137895703315735|-0.1782189905643463|-0.2155534029006958|-0.3418952226638794|XArbitraryZVertical|0.3758094529051929|-0.02274656699588832|0.3737974798570573|-0.8476588773330249|-0.2423905879259109|0.6541216373443604|-0.7164996862411499|0|0|0|-1|-1|3
2021-04-22 21:00:04.075 +0100|138194.846351|-0.410552978515625|0.3546600341796875|-0.959259033203125|138194.83637|-0.9874145469673999|-0.3588981308178806|-0.7152132315019402|-0.6566416621208191|-0.3903968334197998|-1.233878970146179|-0.1657525599002838|-0.2833874821662903|-0.3664820790290833|XArbitraryZVertical|0.3825165091102556|-0.01598515615446467|0.381769843421313|-0.8412357310143402|-0.2651719748973846|0.6557784080505371|-0.7068511843681335|0|0|0|-1|-1|3
2021-04-22 21:00:04.095 +0100|138194.866313|-0.431182861328125|0.47222900390625|-0.822235107421875|138194.856332|-1.026771765123371|-0.3913815957583893|-0.7207945331612795|-0.9348388314247131|-0.2803550362586975|-1.298616528511047|-0.1239656507968903|-0.3053218722343445|-0.2647868394851685|XArbitraryZVertical|0.3906843669690462|-0.01139280834362757|0.391075654293885|-0.8332441139873613|-0.2865883111953735|0.6599817872047424|-0.6944718360900879|0|0|0|-1|-1|3
2021-04-22 21:00:04.115 +0100|138194.886274|-0.5254669189453125|0.6461334228515625|-0.8589324951171875|138194.876294|-1.069683723664886|-0.4264267103253763|-0.7281360700801232|-0.9535506963729858|-0.3888137340545654|-1.385909914970398|-0.1224511563777924|-0.1932504177093506|-0.1426603198051453|XArbitraryZVertical|0.4002000135284479|-0.007266298576619455|0.4006870799062197|-0.824158518612506|-0.3087327778339386|0.6654795408248901|-0.6795743107795715|0|0|0|-1|-1|3
2021-04-22 21:00:04.135 +0100|138194.906236|-0.6179046630859375|0.6220550537109375|-0.74462890625|138194.896255|-1.115419943244674|-0.4641941184863162|-0.7287454276726978|-0.6747050881385803|-0.366184264421463|-1.627668738365173|-0.1914772987365723|-0.01980078220367432|-0.1918622851371765|XArbitraryZVertical|0.4079996936594523|-0.001195179458342691|0.4116896801338588|-0.81489050052046|-0.3339906334877014|0.6659342646598816|-0.6670696139335632|0|0|0|-1|-1|3
2021-04-22 21:00:04.155 +0100|138194.926198|-0.71783447265625|0.7116546630859375|-0.76275634765625|138194.916217|-1.160486322343083|-0.5024489185172555|-0.7251071581729132|-0.5047096014022827|-0.4013807475566864|-1.533312201499939|-0.2574826180934906|-0.04116064310073853|-0.08870130777359009|XArbitraryZVertical|0.4147285833501128|0.006056035478087039|0.4227629681252663|-0.8057512896207815|-0.3604230880737305|0.6632156372070312|-0.6559270620346069|0|0|0|-1|-1|3
2021-04-22 21:00:04.175 +0100|138194.946159|-0.6821746826171875|0.7653656005859375|-0.7469329833984375|138194.936178|-1.202111148670184|-0.5357906432097848|-0.7164908033135192|-0.2944789528846741|-0.1770905405282974|-1.605918765068054|-0.3328438997268677|0.05491220951080322|-0.1143184900283813|XArbitraryZVertical|0.4190538277643741|0.01323673878821467|0.4341732167855298|-0.797315778878711|-0.3849916160106659|0.6567423939704895|-0.6484373807907104|0|0|0|-1|-1|3
2021-04-22 21:00:04.195 +0100|138194.966121|-0.5959930419921875|0.7703399658203125|-0.691925048828125|138194.95614|-1.241640060431104|-0.5632549784663565|-0.7038876295436971|-0.2308958768844604|-0.007481649983674288|-1.626372694969177|-0.2751352787017822|0.1181792616844177|-0.1023642420768738|XArbitraryZVertical|0.4211088365755523|0.0195772285131719|0.4466066027690102|-0.7891936904408586|-0.4070404171943665|0.6471862196922302|-0.644568145275116|0|0|0|-1|-1|3
2021-04-22 21:00:04.215 +0100|138194.986082|-0.5451507568359375|0.7209014892578125|-0.5752105712890625|138194.976102|-1.28277994906371|-0.5887937045166628|-0.6919037499606738|-0.5272761583328247|0.07430525124073029|-1.651756644248962|-0.168349951505661|0.1323356032371521|-0.05155652761459351|XArbitraryZVertical|0.4233348169236372|0.02456881258166018|0.4598079519542547|-0.7802313107714195|-0.4276441335678101|0.6380043029785156|-0.6403679847717285|0|0|0|-1|-1|3
2021-04-22 21:00:04.235 +0100|138195.006044|-0.55267333984375|0.75213623046875|-0.4070281982421875|138194.996063|-1.326818742742814|-0.6152535910547027|-0.6831224600316093|-0.5615465641021729|0.08029933273792267|-1.690343499183655|-0.09749886393547058|0.0896834135055542|0.05817055702209473|XArbitraryZVertical|0.427216759135049|0.02820548421316946|0.4730819253943371|-0.7699895779026105|-0.4476529061794281|0.631217896938324|-0.6333805918693542|0|0|0|-1|-1|3
2021-04-22 21:00:04.255 +0100|138195.026006|-0.5867156982421875|0.6159210205078125|-0.2367706298828125|138195.016025|-1.36941955311192|-0.6399092124651409|-0.6681303116321414|-0.1037220731377602|0.1552650332450867|-1.911836743354797|-0.083944171667099|0.1326166391372681|0.2226451635360718|XArbitraryZVertical|0.429014745184063|0.03331533070176201|0.4872791116814498|-0.7598656422148956|-0.4687302112579346|0.6195194125175476|-0.6296728849411011|0|0|0|-1|-1|3
2021-04-22 21:00:04.275 +0100|138195.0459665|-0.646392822265625|0.373779296875|-0.017913818359375|138195.0359855|-1.409803684345274|-0.6605090047558747|-0.6420241780184123|0.1395173668861389|0.2019029855728149|-2.230633735656738|-0.09535843133926392|0.01710295677185059|0.3956730961799622|XArbitraryZVertical|0.42673050803031|0.04098120211314979|0.5036971895014837|-0.7500073489244512|-0.4913583099842072|0.5988178253173828|-0.6324432492256165|0|0|0|-1|-1|3
2021-04-22 21:00:04.294 +0100|138195.0659285|-0.8320770263671875|0.0420379638671875|0.227081298828125|138195.0559475|-1.457109442516455|-0.6851299899828325|-0.6118658438345191|-0.2971969246864319|0.1242537423968315|-2.6553635597229|-0.1284193396568298|-0.2006168365478516|0.61594158411026|XArbitraryZVertical|0.4249242698316996|0.05011912053955964|0.5225023944750169|-0.7375084958801168|-0.5179744362831116|0.5743957757949829|-0.633854866027832|0|0|0|-1|-1|3
2021-04-22 21:00:04.314 +0100|138195.0858895|-1.033706665039062|0.0091400146484375|0.4438323974609375|138195.0759085|-1.522614973983903|-0.7192555053049817|-0.5898222451977757|-1.600605010986328|0.1658010184764862|-2.854562997817993|-0.2845685482025146|-0.5141757130622864|0.8522699475288391|XArbitraryZVertical|0.4292554904977182|0.05608601071376542|0.5438080156930086|-0.7189347235850237|-0.547509491443634|0.5562133193016052|-0.6251881718635559|0|0|0|-1|-1|3
2021-04-22 21:00:04.334 +0100|138195.1058515|-1.2381591796875|0.236297607421875|0.5863037109375|138195.0958705|-1.608821619374873|-0.762945103083672|-0.5826365558603899|-2.53984808921814|0.2179981768131256|-2.963197231292725|-0.456667959690094|-0.5410878658294678|1.047384977340698|XArbitraryZVertical|0.4417791397481966|0.05527351678527857|0.5663066408280351|-0.6935942352886124|-0.5770397186279297|0.5502274036407471|-0.6035520434379578|0|0|0|-1|-1|3
2021-04-22 21:00:04.355 +0100|138195.1258125|-1.656341552734375|0.29656982421875|0.6107635498046875|138195.1158325|-1.703800278743122|-0.8117824044241039|-0.5756946255634623|-2.479352712631226|0.04107358306646347|-3.201594352722168|-0.629587709903717|-0.3081205487251282|1.163581609725952|XArbitraryZVertical|0.4566699236369861|0.05304611286077021|0.5891273835269545|-0.664505573718941|-0.6085723638534546|0.5444175601005554|-0.5772773623466492|0|0|0|-1|-1|3
2021-04-22 21:00:04.374 +0100|138195.1457745|-2.216812133789062|0.2351837158203125|0.510833740234375|138195.1357935|-1.800602461284132|-0.8650259183486877|-0.5567226326875808|-2.481079339981079|-0.08510266989469528|-3.710540533065796|-1.010164737701416|-0.2318373918533325|1.161437273025513|XArbitraryZVertical|0.4707899381492364|0.05495664942617146|0.6124150600324959|-0.6326804113246746|-0.6461777091026306|0.52840656042099|-0.5506731867790222|0|0|0|-1|-1|3
2021-04-22 21:00:04.394 +0100|138195.1657365|-2.477828979492188|0.4225921630859375|0.301025390625|138195.1557555|-1.908987415919043|-0.9200374764176902|-0.5307620820028972|-3.289601564407349|0.2200925052165985|-4.089943885803223|-1.530649423599243|-0.2710077166557312|1.033280849456787|XArbitraryZVertical|0.4854440856732257|0.05586325611261653|0.6382880860198197|-0.5948207453465993|-0.686163604259491|0.5061907172203064|-0.5224466919898987|0|0|0|-1|-1|3
2021-04-22 21:00:04.414 +0100|138195.1856975|-2.75030517578125|0.8899078369140625|-0.07110595703125|138195.1757165|-2.034921708341804|-0.9756310034146165|-0.5062465296455615|-4.008888721466064|0.4724314212799072|-4.290804862976074|-1.753636360168457|-0.06230658292770386|0.7913500070571899|XArbitraryZVertical|0.5023067367186875|0.05025719839022507|0.6659089911031195|-0.5492972672896961|-0.7241934537887573|0.4848980009555817|-0.4903243184089661|0|0|0|-1|-1|3
2021-04-22 21:00:04.434 +0100|138195.2056595|-2.841476440429688|1.107757568359375|-0.340301513671875|138195.1956785|-2.167167029170525|-1.021614085993178|-0.4755663490673097|-4.074345111846924|1.314134240150452|-4.654507637023926|-1.992003202438354|0.4320649802684784|0.3929609060287476|XArbitraryZVertical|0.5160394389286549|0.04086563312303586|0.695243331244276|-0.4986684184350041|-0.7583027482032776|0.4578420221805573|-0.4640665948390961|0|0|0|-1|-1|3
2021-04-22 21:00:04.454 +0100|138195.2256205|-2.537933349609375|1.280593872070312|-0.5744171142578125|138195.2156405|-2.297649813841828|-1.042038473606629|-0.4341520353762371|-3.948274612426758|2.354215860366821|-4.837547779083252|-2.058145999908447|0.6871154308319092|0.1173595786094666|XArbitraryZVertical|0.5199497039645485|0.02866761432976939|0.7287581664071754|-0.4446822152419895|-0.7833311557769775|0.4206412434577942|-0.4576609432697296|0|0|0|-1|-1|3
2021-04-22 21:00:04.474 +0100|138195.2455825|-2.046783447265625|1.687637329101562|-0.6502838134765625|138195.2356015|-2.423398837919205|-1.036425184719786|-0.3904060963661611|-3.73346471786499|3.245160818099976|-4.736503124237061|-1.742100119590759|0.9000289440155029|-0.1034395694732666|XArbitraryZVertical|0.5141418541280379|0.01301534152490392|0.7640852445016908|-0.3894388713729995|-0.7958337664604187|0.3805639743804932|-0.4709775149822235|0|0|0|-1|-1|3
2021-04-22 21:00:04.494 +0100|138195.2655445|-1.418655395507812|2.140960693359375|-0.83514404296875|138195.2555635|-2.537987939796881|-1.004689886294002|-0.3472946380829899|-3.060149192810059|4.07711935043335|-4.527396678924561|-1.253177285194397|1.347281098365784|-0.1459555625915527|XArbitraryZVertical|0.4978179759103689|-0.003621981185391552|0.7995300039173848|-0.3360298979630723|-0.7936066389083862|0.3403552174568176|-0.5043283104896545|0|0|0|-1|-1|3
2021-04-22 21:00:04.514 +0100|138195.2855055|-0.7645111083984375|2.102737426757812|-0.99029541015625|138195.2755245|-2.634123922716959|-0.9458627129805405|-0.3014470334042714|-1.967180967330933|4.886219024658203|-4.378387928009033|-0.6442235112190247|1.844057321548462|-0.276481568813324|XArbitraryZVertical|0.4694692633738597|-0.01634920520914136|0.8347950225236773|-0.2871389581462374|-0.7744322419166565|0.2969022989273071|-0.5586626529693604|0|0|0|-1|-1|3
2021-04-22 21:00:04.534 +0100|138195.3054675|-0.0647735595703125|2.103652954101562|-0.658355712890625|138195.2954865|-2.715857337444198|-0.8632206613384489|-0.2559530968924878|-1.625209808349609|5.581275463104248|-3.994848012924194|-0.02932834625244141|1.849568843841553|-0.3614774346351624|XArbitraryZVertical|0.4300383138324551|-0.02565065080143817|0.869252609273361|-0.2425060440191654|-0.7351830005645752|0.2531675696372986|-0.6288182139396667|0|0|0|-1|-1|3
2021-04-22 21:00:04.554 +0100|138195.3254285|0.421844482421875|2.5821533203125|-0.2228851318359375|138195.3154485|-2.793060080588333|-0.7706496700411698|-0.2283863805125915|-1.757949233055115|5.43870210647583|-3.075130462646484|0.6137391924858093|1.877245783805847|0.04047209024429321|XArbitraryZVertical|0.3860643541120591|-0.03924673727097769|0.8992713031476116|-0.2018046596998388|-0.6785128116607666|0.2264060974121094|-0.6988280415534973|0|0|0|-1|-1|3
2021-04-22 21:00:04.574 +0100|138195.3453905|0.679046630859375|2.665817260742188|0.0389556884765625|138195.3354095|-2.847876776398993|-0.6769098164466532|-0.2139156660776137|-0.684040904045105|5.245984554290771|-1.936540007591248|1.033954620361328|2.369864463806152|0.5388594269752502|XArbitraryZVertical|0.3413141704297463|-0.05130527539276569|0.9225961779068731|-0.1723043498636648|-0.6121100783348083|0.2122879326343536|-0.7617447972297668|0|0|0|-1|-1|3
2021-04-22 21:00:04.594 +0100|138195.3653525|1.147857666015625|2.65899658203125|0.2564849853515625|138195.3553715|-2.877154810176948|-0.5775951490507003|-0.2050100257546846|-0.6272158026695251|5.270111560821533|-0.8839237689971924|1.213623523712158|2.462239265441895|0.8591896295547485|XArbitraryZVertical|0.2937634616819929|-0.0598826345246841|0.9413906309380423|-0.1545989977869969|-0.5345767736434937|0.2035769820213318|-0.8202341794967651|0|0|0|-1|-1|3
2021-04-22 21:00:04.614 +0100|138195.3853135|1.460601806640625|3.176605224609375|0.4470062255859375|138195.3753325|-2.894068021361023|-0.4820142816865944|-0.2260158519541347|-2.006457567214966|4.510635375976562|0.5679106712341309|1.599632740020752|2.434899091720581|1.120012283325195|XArbitraryZVertical|0.2488627838971445|-0.07939434498467954|0.954200908943626|-0.1458236943000852|-0.4517750442028046|0.224096491932869|-0.8635277152061462|0|0|0|-1|-1|3
2021-04-22 21:00:04.634 +0100|138195.4052755|1.021774291992188|3.512298583984375|0.795196533203125|138195.3952945|-2.888522277754373|-0.4027858623414493|-0.2835175625789897|-2.962620496749878|3.346220731735229|2.312185287475586|1.836935758590698|2.896869659423828|1.33025074005127|XArbitraryZVertical|0.2139139660605359|-0.1123315464237199|0.9586394648272807|-0.1504427191545978|-0.3763338029384613|0.2797344923019409|-0.8832448720932007|0|0|0|-1|-1|3
2021-04-22 21:00:04.654 +0100|138195.4252365|1.00958251953125|3.8223876953125|1.470855712890625|138195.4152555|-2.856195977472046|-0.3333250809055489|-0.3698387725511382|-4.158307552337646|2.429456233978271|3.662828683853149|1.326838731765747|3.150832414627075|1.676262855529785|XArbitraryZVertical|0.1871926585171343|-0.1562866055446292|0.9551410015858784|-0.1680451068323859|-0.3050643801689148|0.3614650964736938|-0.8810667991638184|0|0|0|-1|-1|3
2021-04-22 21:00:04.674 +0100|138195.4451985|0.8002777099609375|5.218963623046875|1.389801025390625|138195.4352175|-2.791953685840448|-0.2809031478690355|-0.4852022266509852|-4.916457176208496|-0.2586040496826172|5.569523334503174|1.254809141159058|3.35599946975708|2.320765018463135|XArbitraryZVertical|0.1751911376110215|-0.2106017204045137|0.9406585586325268|-0.2002916192028509|-0.2452265620231628|0.4663872420787811|-0.8499099612236023|0|0|0|-1|-1|3
2021-04-22 21:00:04.694 +0100|138195.4651595|-1.11688232421875|7.084579467773438|0.3560943603515625|138195.4551795|-2.658414908116666|-0.2542959269343646|-0.6123912712001282|-4.281055450439453|-4.000673294067383|8.927119255065918|1.006126403808594|4.644136905670166|2.181761026382446|XArbitraryZVertical|0.1889307746718878|-0.2613902463727823|0.9091789027603591|-0.2633896633502665|-0.2058487683534622|0.5748258233070374|-0.791960597038269|0|0|0|-1|-1|3
2021-04-22 21:00:04.714 +0100|138195.4851215|-3.628829956054688|8.786453247070312|1.404449462890625|138195.4751405|-2.404943465275549|-0.1977201662946868|-0.7546490663129263|-4.862224578857422|-5.810092449188232|12.95164394378662|-0.9737778902053833|6.399545669555664|1.070412158966064|XArbitraryZVertical|0.2176103128454775|-0.309008919445651|0.8499759282532946|-0.3670156139874233|-0.1431048661470413|0.6850330233573914|-0.7143184542655945|0|0|0|-1|-1|3
