loggingTime(txt)|accelerometerTimestamp_sinceReboot(s)|accelerometerAccelerationX(G)|accelerometerAccelerationY(G)|accelerometerAccelerationZ(G)|motionTimestamp_sinceReboot(s)|motionYaw(rad)|motionRoll(rad)|motionPitch(rad)|motionRotationRateX(rad/s)|motionRotationRateY(rad/s)|motionRotationRateZ(rad/s)|motionUserAccelerationX(G)|motionUserAccelerationY(G)|motionUserAccelerationZ(G)|motionAttitudeReferenceFrame(txt)|motionQuaternionX(R)|motionQuaternionY(R)|motionQuaternionZ(R)|motionQuaternionW(R)|motionGravityX(G)|motionGravityY(G)|motionGravityZ(G)|motionMagneticFieldX(µT)|motionMagneticFieldY(µT)|motionMagneticFieldZ(µT)|motionHeading(°)|motionMagneticFieldCalibrationAccuracy(Z)|label
2021-04-08 19:51:01.470 +0100|18717.41773725|0.0599212646484375|-0.4603118896484375|-0.87152099609375|18717.39777625|-0.6324851704860831|0.05907997074607604|0.5363646827134236|-0.4532084465026855|-0.07479459047317505|-0.02360347285866737|-0.01048701256513596|-0.008241713047027588|0.01857930421829224|XArbitraryZVertical|0.2605863335651901|-0.05530431992488583|-0.2923116937561646|0.9184717261080733|0.05075395852327347|-0.5110145807266235|-0.8580724000930786|0|0|0|-1|-1|3
2021-04-08 19:51:01.481 +0100|18717.43769825|0.0523681640625|-0.3809967041015625|-0.8884429931640625|18717.41773725|-0.6332043177118831|0.05900316473456395|0.5266208178076757|-0.4111798107624054|-0.01866107061505318|-0.05362750589847565|0.007735565304756165|0.02425217628479004|-0.02208024263381958|XArbitraryZVertical|0.2561016232784686|-0.0539344799761554|-0.293181903001974|0.9195366377903731|0.05097926035523415|-0.5026148557662964|-0.863006055355072|0|0|0|-1|-1|3
2021-04-08 19:51:01.482 +0100|18717.45765925|0.0957794189453125|-0.515106201171875|-0.8547210693359375|18717.43769825|-0.6362307971871858|0.06282696504339925|0.5270186810771659|0.4903108775615692|0.1745977103710175|-0.1932269483804703|-0.004615187644958496|0.07823067903518677|-0.03345221281051636|XArbitraryZVertical|0.2567642829630229|-0.05262624976681871|-0.2940611093389748|0.9191467814253359|0.05426628515124321|-0.5029587745666504|-0.8626051545143127|0|0|0|-1|-1|3
2021-04-08 19:51:01.484 +0100|18717.47762025|0.078369140625|-0.53436279296875|-0.8675994873046875|18717.45765925|-0.6426606715667871|0.06875895103452635|0.5343496188048953|0.4063109457492828|0.05367245897650719|-0.2637348473072052|0.04276985675096512|0.04016554355621338|-0.004715025424957275|XArbitraryZVertical|0.2608172965074775|-0.0518756935526495|-0.2958334551899182|0.9174780664073283|0.05912734195590019|-0.5092814564704895|-0.8585665225982666|0|0|0|-1|-1|3
2021-04-08 19:51:01.504 +0100|18717.49758125|0.055145263671875|-0.5007476806640625|-0.88201904296875|18717.47762025|-0.6485428567304753|0.07208142544466152|0.5393750213806501|0.1087117791175842|-0.02415810152888298|-0.1768522411584854|0.02717853337526321|-0.02103734016418457|-0.005023062229156494|XArbitraryZVertical|0.2634464893352285|-0.05191398035239347|-0.2978021930304488|0.9160866947068191|0.0617944709956646|-0.5135998129844666|-0.8558017611503601|0|0|0|-1|-1|3
2021-04-08 19:51:01.524 +0100|18717.51754225|0.079986572265625|-0.4781951904296875|-0.902069091796875|18717.49758125|-0.6519000912611335|0.07339619392345163|0.5393145715909154|-0.01290945895016193|-0.004778917413204908|-0.1426613330841064|-0.0100664347410202|-0.00453341007232666|-0.02230125665664673|XArbitraryZVertical|0.2635282046453697|-0.0517446201426966|-0.2991699200344917|0.9156270501242494|0.06292187422513962|-0.513547956943512|-0.8557507395744324|0|0|0|-1|-1|3
2021-04-08 19:51:01.544 +0100|18717.53750325|0.0760498046875|-0.49371337890625|-0.897735595703125|18717.51754225|-0.6553333158837091|0.07501148628989422|0.5372861521803574|-0.003108776640146971|-0.0004022247157990932|-0.1585087329149246|0.01107168942689896|0.03733468055725098|-0.04279035329818726|XArbitraryZVertical|0.26276003847296|-0.0511338183380471|-0.3006498488050567|0.9153973025540705|0.06438200920820236|-0.5118064284324646|-0.8566849827766418|0|0|0|-1|-1|3
2021-04-08 19:51:01.564 +0100|18717.55746425|0.0629119873046875|-0.4936981201171875|-0.892822265625|18717.53750325|-0.6592189336452942|0.07709237552867652|0.5347805745583195|-0.05341454222798347|-0.0202043205499649|-0.1536957025527954|0.01486688852310181|0.01928085088729858|-0.04070425033569336|XArbitraryZVertical|0.2618366573417876|-0.05028953702448994|-0.3023056115260037|0.9151633860414684|0.06626309454441071|-0.5096522569656372|-0.8578250408172607|0|0|0|-1|-1|3
2021-04-08 19:51:01.584 +0100|18717.57742525|0.0707244873046875|-0.4959716796875|-0.8909454345703125|18717.55746425|-0.6626058818995026|0.07903064586467888|0.5334966495069726|-0.07885812968015671|0.003596778027713299|-0.1241313219070435|-0.005508787930011749|0.01303356885910034|-0.03598654270172119|XArbitraryZVertical|0.2614625665467638|-0.04963884458312835|-0.3036793561166727|0.9148510245792982|0.06797727197408676|-0.5085471868515015|-0.8583466410636902|0|0|0|-1|-1|3
2021-04-08 19:51:01.604 +0100|18717.59738625|0.0872802734375|-0.50390625|-0.88299560546875|18717.57742525|-0.6651830726924561|0.08052901818140451|0.5325441184702275|-0.0155221363529563|0.03242544084787369|-0.1219787746667862|-0.001920439302921295|0.01492923498153687|-0.03238731622695923|XArbitraryZVertical|0.2611944555425725|-0.04913596948720676|-0.3047204755166238|0.9146084537539706|0.06930225342512131|-0.507726788520813|-0.8587262034416199|0|0|0|-1|-1|3
2021-04-08 19:51:01.624 +0100|18717.61734725|0.091583251953125|-0.491119384765625|-0.87835693359375|18717.59738625|-0.6679022067310911|0.08250751147216551|0.5313617762167973|-0.01624608412384987|0.03370823711156845|-0.1210209280252457|0.01339060813188553|0.003442764282226562|-0.0248788595199585|XArbitraryZVertical|0.2608936467697651|-0.04839379726952012|-0.3057783138569422|0.9143807844648062|0.07105052471160889|-0.5067078471183777|-0.8591850996017456|0|0|0|-1|-1|3
2021-04-08 19:51:01.644 +0100|18717.63730825|0.1007843017578125|-0.4811859130859375|-0.8779296875|18717.61734725|-0.6703757640011613|0.08453223568373079|0.5294849382623243|-0.08083806186914444|0.03370402753353119|-0.09046328067779541|0.02007012814283371|0.007133841514587402|-0.0203857421875|XArbitraryZVertical|0.2602931127016686|-0.04748363512758737|-0.3067617038934182|0.9142703559876586|0.0728701576590538|-0.5050888657569885|-0.8599855899810791|0|0|0|-1|-1|3
2021-04-08 19:51:01.664 +0100|18717.65726925|0.1108245849609375|-0.4819793701171875|-0.8657989501953125|18717.63730825|-0.6720446397675571|0.08604395223043114|0.526996727467416|-0.1023380905389786|0.04958733171224594|-0.0739642009139061|0.02232448756694794|0.02035039663314819|-0.01705014705657959|XArbitraryZVertical|0.2593576306825293|-0.04660112102787445|-0.307483455946206|0.9143391534748483|0.07427790015935898|-0.5029398202896118|-0.8611239194869995|0|0|0|-1|-1|3
2021-04-08 19:51:01.683 +0100|18717.67723025|0.100189208984375|-0.4558563232421875|-0.8543701171875|18717.65726925|-0.6734794467555274|0.08745251232074637|0.5243312333437439|-0.1082795038819313|0.03620366752147675|-0.08209528028964996|0.03391899913549423|0.01773959398269653|-0.006530702114105225|XArbitraryZVertical|0.2583325625521008|-0.0457042662630482|-0.3081240255159277|0.914458911332019|0.07560759037733078|-0.5006341934204102|-0.8623508214950562|0|0|0|-1|-1|3
2021-04-08 19:51:01.704 +0100|18717.69719125|0.0906829833984375|-0.44696044921875|-0.846710205078125|18717.67723025|-0.6750409369556579|0.08887821340869846|0.5218823354783475|-0.08946675062179565|0.02840955555438995|-0.08089108765125275|0.02559249848127365|0.03548511862754822|0.0083121657371521|XArbitraryZVertical|0.2574065880005835|-0.04484966929042247|-0.3088080179327952|0.9145315823897239|0.07694555819034576|-0.4985127747058868|-0.8634607195854187|0|0|0|-1|-1|3
2021-04-08 19:51:01.723 +0100|18717.71715225|0.10186767578125|-0.4423675537109375|-0.8538818359375|18717.69719125|-0.6771632112524776|0.09068926414835904|0.5204630723351086|-0.02899039164185524|0.02600019611418247|-0.09230095893144608|0.01398561894893646|0.0500318706035614|0.01331543922424316|XArbitraryZVertical|0.2569959268222366|-0.044059603049093|-0.3096350949620197|0.9144058325597031|0.07857319712638855|-0.497281938791275|-0.8640236854553223|0|0|0|-1|-1|3
2021-04-08 19:51:01.743 +0100|18717.737113|0.109619140625|-0.438201904296875|-0.868927001953125|18717.71715225|-0.6789914177371449|0.09239184076318725|0.5198686520425206|0.01954791694879532|0.02155644260346889|-0.04733783006668091|0.01465414464473724|0.05084356665611267|0.01100265979766846|XArbitraryZVertical|0.2569503767512226|-0.04341741997743488|-0.3102898855954263|0.9142274486345234|0.08007141202688217|-0.4967661499977112|-0.8641828894615173|0|0|0|-1|-1|3
2021-04-08 19:51:01.763 +0100|18717.757073|0.08050537109375|-0.452850341796875|-0.8955841064453125|18717.737113|-0.6802417523739295|0.09342568227247712|0.5203760659512842|0.07314597815275192|-0.02486138790845871|-0.02686584554612637|0.03113353997468948|0.06407076120376587|0.000826418399810791|XArbitraryZVertical|0.2573137225312963|-0.04319015174762555|-0.3106960063052518|0.9139979788077324|0.08094126731157303|-0.497206449508667|-0.8638485074043274|0|0|0|-1|-1|3
2021-04-08 19:51:01.783 +0100|18717.777034|0.061676025390625|-0.4925689697265625|-0.9046630859375|18717.757073|-0.6807961030358332|0.09342182144733174|0.5216596392080957|0.1050257608294487|-0.03244884312152863|0.005800311453640461|0.008094668388366699|0.05296170711517334|-0.0206681489944458|XArbitraryZVertical|0.2578824757913065|-0.04347732344272014|-0.310867403656223|0.9137657625933863|0.08087833225727081|-0.4983197152614594|-0.8632127046585083|0|0|0|-1|-1|3
2021-04-08 19:51:01.803 +0100|18717.796995|0.076568603515625|-0.4969329833984375|-0.895721435546875|18717.777034|-0.6814636165351103|0.09381623588835794|0.5224896213882946|0.05393240600824356|0.01540123950690031|-0.03073292970657349|-0.01974913477897644|0.0157935619354248|-0.04140639305114746|XArbitraryZVertical|0.2583050737570882|-0.04352175432466311|-0.3110680066214592|0.9135761046598542|0.08118002116680145|-0.4990391433238983|-0.8627687096595764|0|0|0|-1|-1|3
2021-04-08 19:51:01.824 +0100|18717.816956|0.0685272216796875|-0.4785919189453125|-0.8805999755859375|18717.796995|-0.6828900811102303|0.09525810233720371|0.5219909843620154|-0.008542290888726711|0.0283710453659296|-0.08393294364213943|-0.008550286293029785|0.001170724630355835|-0.03535628318786621|XArbitraryZVertical|0.2582729660990455|-0.04296406052079457|-0.3115655890957122|0.9134419443343932|0.0824475884437561|-0.4986069798469543|-0.8628983497619629|0|0|0|-1|-1|3
2021-04-08 19:51:01.843 +0100|18717.836917|0.075897216796875|-0.460845947265625|-0.8686065673828125|18717.816956|-0.6853541680558061|0.09759517790496826|0.5201475965181961|-0.03318274021148682|0.04058872163295746|-0.09622699022293091|-0.01286864280700684|0.01197734475135803|-0.01687687635421753|XArbitraryZVertical|0.2577511371029695|-0.04190546636006372|-0.3125094019920819|0.9133160775689663|0.08455343544483185|-0.4970082342624664|-0.8636165857315063|0|0|0|-1|-1|3
2021-04-08 19:51:01.863 +0100|18717.856878|0.091827392578125|-0.482879638671875|-0.8646697998046875|18717.836917|-0.6874855020265893|0.09961366052903385|0.5185833716281807|0.00404843594878912|0.03329581767320633|-0.0781833603978157|-0.0155586302280426|0.0341331958770752|-0.008220136165618896|XArbitraryZVertical|0.2573151714173652|-0.04099484275119117|-0.313325303013231|0.9132007583585944|0.08637366443872452|-0.4956502616405487|-0.8642166256904602|0|0|0|-1|-1|3
2021-04-08 19:51:01.883 +0100|18717.876839|0.08929443359375|-0.4773101806640625|-0.872283935546875|18717.856878|-0.6888477585970921|0.1003557559606708|0.5176171371411785|-0.0221882127225399|0.008604373782873154|-0.06171481683850288|0.000948779284954071|0.02102571725845337|-0.0002399682998657227|XArbitraryZVertical|0.2569667165422768|-0.04066798528585206|-0.3139155102358241|0.9131108858579547|0.08706291764974594|-0.4948108494281769|-0.8646284341812134|0|0|0|-1|-1|3
2021-04-08 19:51:01.903 +0100|18717.8968|0.0938720703125|-0.47650146484375|-0.88629150390625|18717.876839|-0.6895776475644212|0.1001851904544608|0.5161426278626257|-0.07146641612052917|-0.02048299089074135|-0.03635025024414062|0.005280576646327972|0.01345717906951904|-0.002185702323913574|XArbitraryZVertical|0.2562582840889714|-0.04059014805944839|-0.3143678492492001|0.9131577435204632|0.08698831498622894|-0.4935289621353149|-0.8653682470321655|0|0|0|-1|-1|3
2021-04-08 19:51:01.923 +0100|18717.916761|0.1014404296875|-0.492919921875|-0.8874969482421875|18717.8968|-0.6900094380561084|0.09976223966226891|0.51513914106183|-0.003459498286247253|-0.01978758722543716|-0.02597297728061676|0.002927027642726898|0.01882502436637878|-0.02013504505157471|XArbitraryZVertical|0.2557291454042096|-0.04066869127913414|-0.3146851540235707|0.9131932737368289|0.08667158335447311|-0.4926559329032898|-0.8658972978591919|0|0|0|-1|-1|3
2021-04-08 19:51:01.943 +0100|18717.936722|0.0998077392578125|-0.49908447265625|-0.8782196044921875|18717.916761|-0.6902969223385595|0.09914173077358991|0.5147902506887722|0.02362591400742531|-0.02137722820043564|-0.01818376034498215|0.01577642560005188|0.004742681980133057|-0.02375566959381104|XArbitraryZVertical|0.25546778412689|-0.04092966048207435|-0.3149185959441536|0.913174383368006|0.08615127950906754|-0.492352306842804|-0.8661219477653503|0|0|0|-1|-1|3
2021-04-08 19:51:01.963 +0100|18717.956683|0.098541259765625|-0.47467041015625|-0.871002197265625|18717.936722|-0.6905605258625204|0.09866905793505375|0.5146319506984101|0.01216225512325764|-0.03314850479364395|-0.003424345515668392|0.01536943763494492|-0.008014112710952759|-0.01522982120513916|XArbitraryZVertical|0.2553163330788537|-0.04115233527866652|-0.3151096890331606|0.9131407698973112|0.085749551653862|-0.4922145009040833|-0.8662400841712952|0|0|0|-1|-1|3
2021-04-08 19:51:01.983 +0100|18717.976644|0.0992431640625|-0.490142822265625|-0.8685760498046875|18717.956683|-0.6908100088373648|0.09828172837281914|0.5154392641026447|0.08633860200643539|-0.03901582583785057|-0.007470753043889999|0.01321101933717728|0.009900391101837158|-0.01159465312957764|XArbitraryZVertical|0.2556152869566098|-0.04149777572017031|-0.3152202282569908|0.9130033237553964|0.08537500351667404|-0.4929170906543732|-0.8658775091171265|0|0|0|-1|-1|3
2021-04-08 19:51:02.003 +0100|18717.996605|0.1074066162109375|-0.5034332275390625|-0.859466552734375|18717.996605|-0.6930038730246836|0.09814343809148701|0.5194404606195617|0.08499252051115036|-0.04838492721319199|-0.04314477369189262|0.02014701068401337|-0.01123467087745667|0.002957463264465332|XArbitraryZVertical|0.2573560908640253|-0.04252087470485279|-0.3159763574443906|0.9122055306613165|0.08506132662296295|-0.4963944852352142|-0.8639196157455444|0|0|0|-1|-1|3
2021-04-08 19:51:02.023 +0100|18718.016566|0.099273681640625|-0.4756927490234375|-0.86785888671875||||||||||||||||||||||||3
2021-04-08 19:51:02.043 +0100|18718.036527|0.092071533203125|-0.4723968505859375|-0.8626556396484375|18718.016566|-0.6945640431197583|0.09808395144031481|0.5208012170462446|0.09276861697435379|-0.05861887335777283|-0.06645134091377258|0.016480453312397|0.0179155170917511|-0.003035843372344971|XArbitraryZVertical|0.2579280067029223|-0.0429803151224687|-0.3166057302957913|0.9118041652408534|0.08494371175765991|-0.4975752830505371|-0.8632516860961914|0|0|0|-1|-1|3
2021-04-08 19:51:02.063 +0100|18718.056488|0.089111328125|-0.4789581298828125|-0.85552978515625|18718.036527|-0.6965078241975029|0.09803969723347243|0.522199768196268|0.09226750582456589|-0.0573752298951149|-0.07094915211200714|0.01022394001483917|0.02791723608970642|-0.00224536657333374|XArbitraryZVertical|0.2585104140036844|-0.04348975625055206|-0.3174049180347219|0.9113369995546928|0.08483730256557465|-0.4987879395484924|-0.8625620007514954|0|0|0|-1|-1|3
2021-04-08 19:51:02.083 +0100|18718.076449|0.0893096923828125|-0.4648284912109375|-0.852996826171875|18718.056488|-0.6987209388985207|0.09829398590011887|0.5230459707063153|0.06328825652599335|-0.05672360956668854|-0.08509000390768051|0.001485876739025116|0.02004450559616089|0.004850506782531738|XArbitraryZVertical|0.2588843503147248|-0.04380473757192441|-0.318324059793817|0.910895108508338|0.0850151926279068|-0.4995211660861969|-0.8621200919151306|0|0|0|-1|-1|3
2021-04-08 19:51:02.103 +0100|18718.09641|0.0794830322265625|-0.492584228515625|-0.8517608642578125|18718.076449|-0.7012416407965899|0.09870736755215889|0.5242582054904408|0.07535420358181|-0.06026667356491089|-0.1143518388271332|0.006575584411621094|0.03671932220458984|0.009552657604217529|XArbitraryZVertical|0.2594414821851402|-0.04415092213881994|-0.3193374083361104|0.9103650044777115|0.08531183004379272|-0.5005709528923035|-0.8614816069602966|0|0|0|-1|-1|3
2021-04-08 19:51:02.123 +0100|18718.116371|0.0930938720703125|-0.4809417724609375|-0.8539886474609375|18718.09641|-0.7047357807195049|0.09967903209163484|0.5251335638201486|0.04546623304486275|-0.04741335660219193|-0.1469752937555313|-0.007035195827484131|0.01490914821624756|0.007461369037628174|XArbitraryZVertical|0.2599141210769374|-0.04431310521646669|-0.3207424510004802|0.9097281560877426|0.08610522747039795|-0.5013285875320435|-0.8609619736671448|0|0|0|-1|-1|3
2021-04-08 19:51:02.143 +0100|18718.136332|0.09912109375|-0.474456787109375|-0.86529541015625|18718.116371|-0.7083767896041104|0.1007562469237561|0.5245197392078162|-0.01416986715048552|-0.04867111518979073|-0.1627694368362427|0.002885989844799042|0.01416438817977905|0.007857263088226318|XArbitraryZVertical|0.2597303582429506|-0.044190092824293|-0.322299661860261|0.9092361496958564|0.08706355094909668|-0.5007973909378052|-0.8611747622489929|0|0|0|-1|-1|3
2021-04-08 19:51:02.176 +0100|18718.156293|0.094482421875|-0.4710235595703125|-0.88232421875|18718.136332|-0.7121956561924374|0.1014812646311603|0.523164788353111|-0.04460958018898964|-0.07051697373390198|-0.1700367629528046|0.01134826242923737|0.0249234139919281|-0.0007328987121582031|XArbitraryZVertical|0.2591535336079109|-0.04412039701918358|-0.3240332421182568|0.908787836710777|0.08775655925273895|-0.499624103307724|-0.8617856502532959|0|0|0|-1|-1|3
2021-04-08 19:51:02.183 +0100|18718.176253|0.108001708984375|-0.45849609375|-0.8944091796875|18718.156293|-0.7159803710529022|0.1020802580555343|0.5214048692032963|-0.04566294699907303|-0.06272919476032257|-0.159028947353363|0.005630902945995331|0.02580901980400085|-0.01453012228012085|XArbitraryZVertical|0.2583759899119644|-0.04403037992656646|-0.325794925182229|0.9083836912223091|0.08836221694946289|-0.4980988204479218|-0.8626063466072083|0|0|0|-1|-1|3
2021-04-08 19:51:02.203 +0100|18718.196214|0.1059417724609375|-0.461669921875|-0.8920745849609375|18718.176253|-0.7192654331089937|0.1024477487311049|0.5203715812115649|0.008452288806438446|-0.05906905233860016|-0.1383779048919678|0.01611031591892242|0.03800484538078308|-0.02718895673751831|XArbitraryZVertical|0.2578991846042074|-0.04410606528676966|-0.3273097555965668|0.9079708387907731|0.0887317955493927|-0.4972025752067566|-0.8630853295326233|0|0|0|-1|-1|3
2021-04-08 19:51:02.223 +0100|18718.216175|0.1026611328125|-0.4832916259765625|-0.88494873046875|18718.196214|-0.7224463050532389|0.102745328892113|0.5208916127350487|0.06383637338876724|-0.05970767885446548|-0.1419452130794525|0.01911488920450211|0.04182812571525574|-0.02957844734191895|XArbitraryZVertical|0.258111116671064|-0.04447303634213081|-0.3286793322371517|0.9073978857181654|0.08896210044622421|-0.4976536929607391|-0.8628016114234924|0|0|0|-1|-1|3
2021-04-08 19:51:02.243 +0100|18718.236136|0.1077728271484375|-0.4890289306640625|-0.877685546875|18718.216175|-0.7257877037660067|0.103623310489931|0.5215525268058773|0.05962530896067619|-0.03646280989050865|-0.1262854635715485|0.01297456026077271|0.01472184062004089|-0.02548283338546753|XArbitraryZVertical|0.2584779272517738|-0.04462341972662898|-0.3300359157316857|0.9067934612750872|0.08968555182218552|-0.4982268512248993|-0.8623958230018616|0|0|0|-1|-1|3
2021-04-08 19:51:02.263 +0100|18718.256097|0.11358642578125|-0.48687744140625|-0.86083984375|18718.236136|-0.7288646204468611|0.1046612226609811|0.5216449862727909|0.03004436567425728|-0.0222289077937603|-0.1299692392349243|0.01626525074243546|0.01364234089851379|-0.01761132478713989|XArbitraryZVertical|0.2586223786224591|-0.04456716923956865|-0.3312900070985701|0.9062976344768177|0.09057577699422836|-0.4983070194721222|-0.8622564673423767|0|0|0|-1|-1|3
2021-04-08 19:51:02.283 +0100|18718.276058|0.11651611328125|-0.466033935546875|-0.8669586181640625|18718.256097|-0.7318345971194121|0.1058256406853954|0.5204155381952008|-0.03091800399124622|-0.02448263391852379|-0.1210159584879875|0.02006419003009796|0.007418543100357056|0.0005455613136291504|XArbitraryZVertical|0.2581986724818521|-0.04420376838872896|-0.3325708282707279|0.9059669724905933|0.09164438396692276|-0.4972406923770905|-0.8627589344978333|0|0|0|-1|-1|3
2021-04-08 19:51:02.302 +0100|18718.296019|0.11376953125|-0.4580230712890625|-0.8737335205078125|18718.276058|-0.734545776978596|0.1069144348993315|0.5183579041562784|-0.03116985596716404|-0.02691745385527611|-0.109248161315918|0.02312049269676208|0.02301204204559326|0.001323461532592773|XArbitraryZVertical|0.2573985600260912|-0.04369105771547272|-0.333802354060508|0.9057666647824264|0.09269268065690994|-0.4954544305801392|-0.8636741638183594|0|0|0|-1|-1|3
2021-04-08 19:51:02.322 +0100|18718.31598|0.1139373779296875|-0.4692230224609375|-0.8709259033203125|18718.296019|-0.7368211895677241|0.107694996891217|0.5174177941263306|0.01586787775158882|-0.01336526777595282|-0.08591868728399277|0.02082470804452896|0.03695043921470642|-0.00867772102355957|XArbitraryZVertical|0.2570583922609108|-0.04346106524219587|-0.3347982635582732|0.9055067480211374|0.09341683238744736|-0.4946376085281372|-0.8640642166137695|0|0|0|-1|-1|3
2021-04-08 19:51:02.343 +0100|18718.335941|0.116668701171875|-0.4730682373046875|-0.857818603515625|18718.31598|-0.7388982001855199|0.1087571697655804|0.5172554365802599|0.01239974237978458|-0.002300472930073738|-0.0816502645611763|0.01974567025899887|0.03111779689788818|-0.01258862018585205|XArbitraryZVertical|0.2571187376536566|-0.04321794074426938|-0.3356133929649007|0.9051993826673775|0.09434327483177185|-0.4944964945316315|-0.8640443086624146|0|0|0|-1|-1|3
2021-04-08 19:51:02.363 +0100|18718.355902|0.1165618896484375|-0.470733642578125|-0.8518218994140625|18718.335941|-0.7406224789394535|0.1099723024155619|0.5165677765393821|-0.04421971365809441|0.01175142917782068|-0.06225135922431946|0.02035223692655563|0.01991510391235352|0.001900911331176758|XArbitraryZVertical|0.2569780324237289|-0.04276515328638982|-0.3362861843268295|0.9050112238283595|0.09543043375015259|-0.4938986599445343|-0.8642668724060059|0|0|0|-1|-1|3
2021-04-08 19:51:02.382 +0100|18718.375863|0.115753173828125|-0.4778289794921875|-0.8496856689453125|18718.355902|-0.7421580830179006|0.1113894340823807|0.5152154116248048|-0.03759859129786491|0.02472315542399883|-0.06481500715017319|0.01946538686752319|0.02107334136962891|0.01231545209884644|XArbitraryZVertical|0.2565789662082643|-0.04207571427820023|-0.3368951968338505|0.9049301732558915|0.09672927856445312|-0.4927223026752472|-0.8647937178611755|0|0|0|-1|-1|3
2021-04-08 19:51:02.402 +0100|18718.395824|0.11663818359375|-0.464447021484375|-0.851531982421875|18718.375863|-0.7438551333343949|0.1131715408949288|0.5136713731213698|-0.04005236178636551|0.03733034431934357|-0.07559441775083542|0.01558028161525726|0.01621964573860168|0.01552110910415649|XArbitraryZVertical|0.2561535214708489|-0.04120606486711322|-0.3375448002097476|0.9048486466671097|0.09835607558488846|-0.491378128528595|-0.8653748631477356|0|0|0|-1|-1|3
2021-04-08 19:51:02.422 +0100|18718.415785|0.1146392822265625|-0.46075439453125|-0.8540802001953125|18718.395824|-0.7455511814442909|0.114964512044063|0.5119442412870304|-0.04821062460541725|0.04146240279078484|-0.07027465850114822|0.01670873910188675|0.02058929204940796|0.01655137538909912|XArbitraryZVertical|0.2556495766429288|-0.04029688419771166|-0.3382065924323545|0.9047850016816459|0.1000047102570534|-0.4898731410503387|-0.8660389184951782|0|0|0|-1|-1|3
2021-04-08 19:51:02.442 +0100|18718.435746|0.111358642578125|-0.4726104736328125|-0.8388824462890625|18718.415785|-0.7473024484263344|0.1169743071773832|0.5104823054508516|-0.05356760695576668|0.0482274666428566|-0.08300004154443741|0.01216884702444077|0.03135344386100769|0.01200830936431885|XArbitraryZVertical|0.2553013779317948|-0.03934402892253442|-0.3388475236984183|0.9046854147772274|0.1018285378813744|-0.488598108291626|-0.8665465116500854|0|0|0|-1|-1|3
2021-04-08 19:51:02.462 +0100|18718.455707|0.10040283203125|-0.4627685546875|-0.82940673828125|18718.435746|-0.7489784769886323|0.1190445521953132|0.5082536794028997|-0.1398752778768539|0.05087529122829437|-0.06935825943946838|0.008582830429077148|0.01572063565254211|0.02293020486831665|XArbitraryZVertical|0.2546239494535331|-0.03821244804090972|-0.3395033247039628|0.9046790497231351|0.1037513539195061|-0.4866524040699005|-0.8674129247665405|0|0|0|-1|-1|3
2021-04-08 19:51:02.482 +0100|18718.475668|0.08978271484375|-0.457183837890625|-0.83038330078125|18718.455707|-0.749883512892174|0.1207241972259134|0.5046823112114456|-0.188453271985054|0.05216995999217033|-0.03262563794851303|-0.003962121903896332|0.01853325963020325|0.03767341375350952|XArbitraryZVertical|0.2532962009932865|-0.03691097290459901|-0.3399593261396647|0.9049344641694892|0.1054167896509171|-0.4835293889045715|-0.8689572215080261|0|0|0|-1|-1|3
2021-04-08 19:51:02.502 +0100|18718.495629|0.057373046875|-0.457916259765625|-0.80426025390625|18718.475668|-0.7500354844385279|0.1220604689122228|0.5008628650866651|-0.1897042244672775|0.04749898612499237|-0.02034713514149189|-0.01212218403816223|0.02257171273231506|0.04149472713470459|XArbitraryZVertical|0.2518131825242879|-0.03562237527472999|-0.3401374181748599|0.905333043543826|0.1068019419908524|-0.4801825881004333|-0.870642364025116|0|0|0|-1|-1|3
2021-04-08 19:51:02.522 +0100|18718.51559|0.046142578125|-0.44781494140625|-0.7901763916015625|18718.495629|-0.7501504540217478|0.1232538369275132|0.4965447327345649|-0.2288831770420074|0.05877630412578583|-0.03173578903079033|-0.04280343651771545|0.01671960949897766|0.06393939256668091|XArbitraryZVertical|0.2500829531292151|-0.03430108184566447|-0.3403538649104358|0.9057822278958347|0.1080947816371918|-0.4763903915882111|-0.872563898563385|0|0|0|-1|-1|3
2021-04-08 19:51:02.542 +0100|18718.535551|0.041534423828125|-0.4321136474609375|-0.77825927734375|18718.51559|-0.7504265600464237|0.12497611752247|0.4913794396784848|-0.2981590628623962|0.08458942174911499|-0.05904846265912056|-0.06287611275911331|0.02257829904556274|0.08066236972808838|XArbitraryZVertical|0.248060296047653|-0.0326030144953754|-0.340639899141474|0.9062933427860789|0.1099026799201965|-0.4718425571918488|-0.87480628490448|0|0|0|-1|-1|3
2021-04-08 19:51:02.562 +0100|18718.555512|0.05889892578125|-0.4084930419921875|-0.7670440673828125|18718.535551|-0.751205487588121|0.1271270367751968|0.4847639917315094|-0.4066230952739716|0.09689663350582123|-0.1021329015493393|-0.07307012379169464|0.02851501107215881|0.09593695402145386|XArbitraryZVertical|0.2454528202447402|-0.03050275199425669|-0.3412081010152114|0.9068626370895366|0.1121773719787598|-0.4659995436668396|-0.8776450157165527|0|0|0|-1|-1|3
2021-04-08 19:51:02.582 +0100|18718.575473|0.0573577880859375|-0.3631134033203125|-0.7447662353515625|18718.555512|-0.7526407451218966|0.1294114159525256|0.4752808243608022|-0.544260561466217|0.06987380236387253|-0.1512326151132584|-0.06295979022979736|0.04322069883346558|0.1109768748283386|XArbitraryZVertical|0.2415735799578187|-0.02788654293615227|-0.3422686050715171|0.9075884622335815|0.1147470921278|-0.4575881659984589|-0.8817290663719177|0|0|0|-1|-1|3
2021-04-08 19:51:02.602 +0100|18718.595433|0.027313232421875|-0.3117828369140625|-0.7321929931640625|18718.575473|-0.754542749419068|0.1309919236657599|0.4621727058830756|-0.736400306224823|0.002841505222022533|-0.1873640865087509|-0.0552084669470787|0.06784239411354065|0.139278769493103|XArbitraryZVertical|0.2359408693286067|-0.02496329233386529|-0.3438879287446419|0.9085428216281579|0.1169139966368675|-0.4458939135074615|-0.8874174952507019|0|0|0|-1|-1|3
2021-04-08 19:51:02.622 +0100|18718.615394|-0.0101318359375|-0.29107666015625|-0.704437255859375|18718.595433|-0.7566801826398931|0.1314611841062454|0.4457763048795163|-0.8670040965080261|-0.04921109601855278|-0.2201545238494873|-0.08230900764465332|0.1071230471134186|0.1577504873275757|XArbitraryZVertical|0.228632804337155|-0.02194557301987578|-0.3459709434349245|0.9096975204170448|0.1182729452848434|-0.4311584532260895|-0.8944908380508423|0|0|0|-1|-1|3
2021-04-08 19:51:02.642 +0100|18718.635355|-0.0233612060546875|-0.26904296875|-0.6985015869140625|18718.615394|-0.7592856900674211|0.1310709191470363|0.4262998259554257|-1.045709490776062|-0.1011222377419472|-0.2734382450580597|-0.1190915107727051|0.1181404888629913|0.1881686449050903|XArbitraryZVertical|0.2197756265928769|-0.01877681774106308|-0.3485575561701559|0.9109632120774822|0.1189989298582077|-0.4135046303272247|-0.9026921987533569|0|0|0|-1|-1|3
2021-04-08 19:51:02.677 +0100|18718.655316|0.0207061767578125|-0.2445220947265625|-0.71746826171875|18718.655316|-0.7674663252498204|0.128351921444917|0.3743959927984114|-1.482904434204102|-0.2351940721273422|-0.4612887501716614|-0.1063167303800583|0.1187929213047028|0.2128673791885376|XArbitraryZVertical|0.1958069598665712|-0.01110311323457094|-0.3560194502250708|0.913666655944008|0.1191330850124359|-0.365710437297821|-0.9230726957321167|0|0|0|-1|-1|3
2021-04-08 19:51:02.682 +0100|18718.675277|0.0313568115234375|-0.239471435546875|-0.7592315673828125||||||||||||||||||||||||3
2021-04-08 19:51:02.702 +0100|18718.695238|0.0558013916015625|-0.2099609375|-0.80743408203125|18718.675277|-0.7735726626506794|0.1246475793478188|0.3410335266100805|-1.762271285057068|-0.3383224606513977|-0.5192759037017822|-0.08635865151882172|0.092762291431427|0.1892480254173279|XArbitraryZVertical|0.1800041997783635|-0.007040030903738216|-0.3612334983104846|0.9149094474232132|0.1171651110053062|-0.3344612717628479|-0.935097873210907|0|0|0|-1|-1|3
2021-04-08 19:51:02.722 +0100|18718.715199|0.079193115234375|-0.179534912109375|-0.857757568359375|18718.695238|-0.7800152368752559|0.1189092099611264|0.3021220988872271|-2.009759426116943|-0.4462930262088776|-0.5772621631622314|-0.06354404985904694|0.08026191592216492|0.1539438962936401|XArbitraryZVertical|0.1612743709532351|-0.00278176232658878|-0.3669312389362271|0.9161574324903509|0.1132561415433884|-0.2975468635559082|-0.947965681552887|0|0|0|-1|-1|3
2021-04-08 19:51:02.742 +0100|18718.73516129167|0.13043212890625|-0.1091156005859375|-0.927032470703125|18718.715199|-0.7880844785048137|0.1112739808977364|0.2591055073875205|-2.184698104858398|-0.5461199879646301|-0.690747082233429|-0.03804865479469299|0.06722089648246765|0.1158841848373413|XArbitraryZVertical|0.1402759465270015|0.001393794161819505|-0.3734840172841918|0.9169681136319561|0.1073377802968025|-0.2562160193920135|-0.9606414437294006|0|0|0|-1|-1|3
2021-04-08 19:51:02.762 +0100|18718.75512229167|0.115081787109375|0.0115203857421875|-1.0018310546875|18718.73516129167|-0.7978944551283425|0.1014225152945434|0.2128214383655411|-2.31122899055481|-0.6826187372207642|-0.731090784072876|0.02015987038612366|0.07501879334449768|0.07068240642547607|XArbitraryZVertical|0.1173224666542928|0.005240624070743606|-0.3807937867745725|0.9171717946021|0.09896443784236908|-0.2112185209989548|-0.9724159240722656|0|0|0|-1|-1|3
2021-04-08 19:51:02.782 +0100|18718.77508329167|0.0653533935546875|0.0792694091796875|-1.04412841796875|18718.75512229167|-0.807985458739827|0.08821669852243331|0.1659517325071984|-2.244592428207397|-0.8164911270141602|-0.6895949840545654|0.041021429002285|0.151076927781105|-0.005305588245391846|XArbitraryZVertical|0.09340798262071309|0.007856822562956447|-0.3879989593314949|0.9168806349531639|0.08689193427562714|-0.1651910692453384|-0.9824264645576477|0|0|0|-1|-1|3
2021-04-08 19:51:02.802 +0100|18718.79504429167|0.085968017578125|0.108551025390625|-1.13726806640625|18718.77508329167|-0.817429370521992|0.07280564352010448|0.1221009823475348|-2.016558647155762|-0.8435457348823547|-0.6067965626716614|0.001666955649852753|0.1899285316467285|-0.03792190551757812|XArbitraryZVertical|0.07038746060651352|0.009102638046036397|-0.3943893429700453|0.9161985723423524|0.07219977676868439|-0.1217978149652481|-0.9899255037307739|0|0|0|-1|-1|3
2021-04-08 19:51:02.822 +0100|18718.81500529167|0.126190185546875|0.090545654296875|-1.219680786132812|18718.79504429167|-0.826696052872548|0.05730642998166546|0.08646324169056738|-1.45922315120697|-0.7980784773826599|-0.5588257908821106|0.01927753165364265|0.1873231828212738|-0.1246337890625|XArbitraryZVertical|0.05105914750752159|0.008859331971827067|-0.4000036813796961|0.9150474075244618|0.05706110969185829|-0.0863555520772934|-0.9946289658546448|0|0|0|-1|-1|3
2021-04-08 19:51:02.841 +0100|18718.83496629167|0.1607208251953125|-0.05816650390625|-1.234146118164062|18718.81500529167|-0.8368388513539998|0.04276057050004417|0.06268202286188762|-0.8995281457901001|-0.7327958345413208|-0.5882056951522827|0.07568249851465225|0.1735115647315979|-0.2017592787742615|XArbitraryZVertical|0.0373083002622946|0.006795393787942582|-0.405412242897029|0.9133471032666726|0.04266358911991119|-0.06264098733663559|-0.9971238374710083|0|0|0|-1|-1|3
2021-04-08 19:51:02.861 +0100|18718.85492729167|0.1798095703125|-0.1453704833984375|-1.212783813476562|18718.83496629167|-0.8476223349839919|0.02955327887302695|0.04704460977561085|-0.7163945436477661|-0.6569538116455078|-0.5221717953681946|0.1187675446271896|0.02455126866698265|-0.2403274178504944|XArbitraryZVertical|0.02751172934352627|0.003793806519697423|-0.4107619495765403|0.9113196891908176|0.02951628342270851|-0.04702726006507874|-0.9984574317932129|0|0|0|-1|-1|3
2021-04-08 19:51:02.881 +0100|18718.87488829167|0.121551513671875|-0.1625518798828125|-1.190765380859375|18718.85492729167|-0.8563225848635925|0.01686153708206912|0.03044058879098658|-0.9664397835731506|-0.6644580960273743|-0.3873658180236816|0.1667702496051788|-0.1002401784062386|-0.2233531475067139|XArbitraryZVertical|0.01734533946189137|0.00134977154157838|-0.4150191859863201|0.9096463652396302|0.01685292646288872|-0.03043588809669018|-0.9993946552276611|0|0|0|-1|-1|3
2021-04-08 19:51:02.902 +0100|18718.89484929167|0.04736328125|-0.124786376953125|-1.180252075195312|18718.87488829167|-0.862988528377408|0.003944148522636757|0.007803305576962883|-1.29521918296814|-0.6388392448425293|-0.3157262206077576|0.1347725391387939|-0.1569914966821671|-0.198219358921051|XArbitraryZVertical|0.004368789238768264|0.0001595275533275445|-0.4182175699862747|0.9083364294131504|0.003944018390029669|-0.007803226355463266|-0.999961793422699|0|0|0|-1|-1|3
2021-04-08 19:51:02.921 +0100|18718.91481029167|-0.0005035400390625|-0.02728271484375|-1.170257568359375|18718.89484929167|-0.8692130557559753|-0.008007372679438849|-0.02058053288540929|-1.539395928382874|-0.5402238965034485|-0.3046271502971649|0.07222874462604523|-0.1617379486560822|-0.1842952966690063|XArbitraryZVertical|-0.01101907263942186|0.0007013568605970261|-0.4209904980587006|0.9069978744782805|-0.008005591109395027|0.02057907916605473|-0.9997561573982239|0|0|0|-1|-1|3
2021-04-08 19:51:02.941 +0100|18718.93477129167|-0.0037078857421875|0.0608367919921875|-1.177886962890625|18718.91481029167|-0.8754688226252175|-0.01767562259571944|-0.05243029318989671|-1.622069597244263|-0.3968836963176727|-0.2736088633537292|0.02555336989462376|-0.1077649742364883|-0.1741070151329041|XArbitraryZVertical|-0.02748469704545579|0.00310891469745144|-0.4235165485981528|0.9054660765154107|-0.01765041425824165|0.05240627378225327|-0.9984698295593262|0|0|0|-1|-1|3
2021-04-08 19:51:02.961 +0100|18718.95473229167|0.0012359619140625|0.1194915771484375|-1.1480712890625|18718.93477129167|-0.8810805064025276|-0.02417650377978085|-0.08324617225203787|-1.449045896530151|-0.2296855896711349|-0.2179454416036606|0.01656675338745117|-0.04231734573841095|-0.1806950569152832|XArbitraryZVertical|-0.04278553027368371|0.006818485924278402|-0.4255727369065136|0.9038865866921026|-0.02409043535590172|0.08315005898475647|-0.996245801448822|0|0|0|-1|-1|3
2021-04-08 19:51:02.981 +0100|18718.97469329167|-0.007476806640625|0.1501312255859375|-1.109481811523438|18718.95473229167|-0.8856486802243525|-0.02851533842334034|-0.1094321587821973|-1.166937351226807|-0.1664388179779053|-0.1720160245895386|0.03459592908620834|0.002801075577735901|-0.161064088344574|XArbitraryZVertical|-0.05550871301725074|0.01056864477150802|-0.427103805078747|0.902435416794244|-0.02834092639386654|0.1092138737440109|-0.9936141967773438|0|0|0|-1|-1|3
2021-04-08 19:51:03.001 +0100|18718.99465429167|-0.005889892578125|0.1414947509765625|-1.081695556640625|18718.97469329167|-0.8890725034126505|-0.03153758074649446|-0.1294593384763583|-0.8485740423202515|-0.1057076081633568|-0.1108805909752846|0.02472136169672012|0.0140753835439682|-0.1267200708389282|XArbitraryZVertical|-0.06515725470888856|0.01360757565948003|-0.428164437301976|0.9012462611318852|-0.03126848489046097|0.1290980279445648|-0.991138756275177|0|0|0|-1|-1|3
2021-04-08 19:51:03.021 +0100|18719.01461529167|-0.0106201171875|0.1151885986328125|-1.0621337890625|18718.99465429167|-0.8911467629665984|-0.03376306220048104|-0.1432967116332419|-0.5549745559692383|-0.09431583434343338|-0.03923853486776352|0.02625318989157677|0.00396767258644104|-0.09777325391769409|XArbitraryZVertical|-0.07184487566911542|0.01565438295002405|-0.4287178848514658|0.9004412487888226|-0.03341066092252731|0.142806813120842|-0.9891865253448486|0|0|0|-1|-1|3
2021-04-08 19:51:03.041 +0100|18719.03457629167|-0.02777099609375|0.0904541015625|-1.061904907226562|18719.01461529167|-0.891830976098373|-0.03589771504239635|-0.1523938680794927|-0.3966705799102783|-0.110174149274826|0.004788576625287533|0.02610405534505844|-0.02920013666152954|-0.07617580890655518|XArbitraryZVertical|-0.07638671735276274|0.01667954010784775|-0.428730679498729|0.9000427900687906|-0.03547405824065208|0.1518046855926514|-0.9877737164497375|0|0|0|-1|-1|3
2021-04-08 19:51:03.061 +0100|18719.05453629167|-0.042755126953125|0.0837249755859375|-1.064453125|18719.03457629167|-0.8917255468690053|-0.03817936478414676|-0.1597406718193579|-0.3468380868434906|-0.1146793141961098|0.02478811889886856|0.01319267600774765|-0.06700572371482849|-0.07616442441940308|XArbitraryZVertical|-0.08017783702049951|0.01723261136303748|-0.428409266365327|0.8998556832144662|-0.0376841314136982|0.1590621918439865|-0.9865490794181824|0|0|0|-1|-1|3
2021-04-08 19:51:03.081 +0100|18719.07449729167|-0.0555877685546875|0.0929412841796875|-1.05889892578125|18719.05453629167|-0.8914464822419595|-0.04031639282583255|-0.1665217070659218|-0.3308243453502655|-0.1061608716845512|0.02533353306353092|0.001950815320014954|-0.08253155648708344|-0.08261191844940186|XArbitraryZVertical|-0.08368389625551816|0.01772140452445494|-0.4280172803521841|0.899713397813345|-0.0397479385137558|0.165753185749054|-0.9853659272193909|0|0|0|-1|-1|3
2021-04-08 19:51:03.101 +0100|18719.09445829167|-0.0666046142578125|0.1226959228515625|-1.04217529296875|18719.07449729167|-0.8915068772232283|-0.04216795835443703|-0.1735490977662252|-0.3723337948322296|-0.07763474434614182|0.002818547422066331|-0.012922253459692|-0.08050069212913513|-0.07179033756256104|XArbitraryZVertical|-0.08723508734766861|0.01840574472324816|-0.427771566025865|0.8994792645028968|-0.04152220860123634|0.172679215669632|-0.9841025471687317|0|0|0|-1|-1|3
2021-04-08 19:51:03.121 +0100|18719.11441929167|-0.068603515625|0.16534423828125|-1.021224975585938|18719.09445829167|-0.8918926507915534|-0.04376560644659094|-0.1814221798581942|-0.4061527848243713|-0.07391233742237091|-0.01127037405967712|-0.02084080502390862|-0.06722345948219299|-0.06212294101715088|XArbitraryZVertical|-0.09110680091467924|0.01940178122418007|-0.4276473879715583|0.8991334939631298|-0.04303358867764473|0.1804285943508148|-0.9826462268829346|0|0|0|-1|-1|3
2021-04-08 19:51:03.141 +0100|18719.13438029167|-0.0668487548828125|0.1676483154296875|-1.004104614257812|18719.11441929167|-0.892554960309448|-0.04541037248357403|-0.1889747769071937|-0.322754442691803|-0.07948378473520279|-0.02684587053954601|-0.02616949006915092|-0.03303617238998413|-0.04429727792739868|XArbitraryZVertical|-0.09483983529650213|0.02032227332957137|-0.4276423904635693|0.8987293728162691|-0.04458662122488022|0.1878520250320435|-0.9811848402023315|0|0|0|-1|-1|3
2021-04-08 19:51:03.162 +0100|18719.15434129167|-0.064849853515625|0.161102294921875|-0.980926513671875|18719.13438029167|-0.893669884013389|-0.04733704706117794|-0.1940157618381234|-0.2009933441877365|-0.09379801154136658|-0.05455357581377029|-0.02038777992129326|-0.02026954293251038|-0.03272432088851929|XArbitraryZVertical|-0.09750041307794886|0.02059856964218154|-0.4278941395032411|0.8983184620253495|-0.04643156006932259|0.1928008496761322|-0.9801387190818787|0|0|0|-1|-1|3
2021-04-08 19:51:03.181 +0100|18719.17430229167|-0.0444488525390625|0.153228759765625|-0.9758148193359375|18719.15434129167|-0.8950327870161061|-0.04950505087467627|-0.1954957529944715|-0.1818608641624451|-0.09422789514064789|-0.06067307665944099|-0.0184297040104866|-0.03363865613937378|-0.007264971733093262|XArbitraryZVertical|-0.09861378651423583|0.02001173840419046|-0.4283527142068452|0.8979915982785338|-0.04854222014546394|0.1942528635263443|-0.9797496795654297|0|0|0|-1|-1|3
2021-04-08 19:51:03.201 +0100|18719.19426329167|-0.0347900390625|0.1622467041015625|-0.97705078125|18719.17430229167|-0.8964700978943226|-0.05197161072938775|-0.196888754885742|-0.1599550545215607|-0.1184671372175217|-0.06243982166051865|0.002298455685377121|-0.04152046144008636|0.000672459602355957|XArbitraryZVertical|-0.09975207928814414|0.01927738517308002|-0.4288302433332775|0.8976539464026151|-0.05094457417726517|0.1956191509962082|-0.9793558120727539|0|0|0|-1|-1|3
2021-04-08 19:51:03.222 +0100|18719.21422429167|-0.0367584228515625|0.1815032958984375|-0.9900970458984375|18719.19426329167|-0.8980732912766766|-0.0551530968065463|-0.1985790410231322|-0.1333760172128677|-0.1405609846115112|-0.07562921196222305|0.01496295630931854|-0.04171295464038849|0.003027260303497314|XArbitraryZVertical|-0.1011761268763082|0.01829694304758398|-0.4293333734246791|0.8972745119557681|-0.05404181405901909|0.1972765028476715|-0.9788572192192078|0|0|0|-1|-1|3
2021-04-08 19:51:03.241 +0100|18719.23418529167|-0.0328826904296875|0.1885223388671875|-0.996856689453125|18719.21422429167|-0.8999243868534392|-0.05858325226856204|-0.1998407122008757|-0.06087345629930496|-0.1426169872283936|-0.09388162940740585|0.02384458482265472|-0.02003099024295807|-0.008368909358978271|XArbitraryZVertical|-0.102460949199596|0.01712688441337367|-0.4299456998080737|0.8968585419790718|-0.05738450214266777|0.1985132098197937|-0.9784168601036072|0|0|0|-1|-1|3
2021-04-08 19:51:03.261 +0100|18719.25414629167|-0.0314483642578125|0.1867828369140625|-0.9963531494140625|18719.25414629167|-0.9052553218346657|-0.06445560111396155|-0.1987611274540476|-0.001004230231046677|-0.1016448512673378|-0.1624420434236526|0.02981656044721603|-0.008169561624526978|-0.01801568269729614|XArbitraryZVertical|-0.1032018732637001|0.01453356145876753|-0.4320711614238418|0.8957973807274948|-0.06314285099506378|0.1974550038576126|-0.9782763123512268|0|0|0|-1|-1|3
2021-04-08 19:51:03.281 +0100|18719.27410729167|-0.0454254150390625|0.209716796875|-0.988006591796875||||||||||||||||||||||||3
2021-04-08 19:51:03.301 +0100|18719.29406829167|-0.051513671875|0.2159576416015625|-0.9742279052734375|18719.27410729167|-0.9086661029167132|-0.06650556103634526|-0.1973539287481959|0.05476169660687447|-0.07553697377443314|-0.1886267811059952|0.0253705307841301|0.006881996989250183|-0.007998466491699219|XArbitraryZVertical|-0.1029935563659156|0.01348294082001437|-0.4335436768651823|0.895126022171796|-0.06516654789447784|0.1960753053426743|-0.9784210920333862|0|0|0|-1|-1|3
2021-04-08 19:51:03.321 +0100|18719.31402929167|-0.0538330078125|0.1918792724609375|-0.9687957763671875|18719.29406829167|-0.9125688823214312|-0.0677217384787952|-0.1943167377877513|0.1742860078811646|-0.03542769327759743|-0.2239657789468765|0.01370672136545181|0.02460113167762756|0.003177046775817871|XArbitraryZVertical|-0.1018780126164384|0.01247005238572899|-0.4353382072973848|0.8943970921820573|-0.06639642268419266|0.1930961757898331|-0.9789307117462158|0|0|0|-1|-1|3
2021-04-08 19:51:03.341 +0100|18719.33399029167|-0.062286376953125|0.1904754638671875|-0.96795654296875|18719.31402929167|-0.9169578719636147|-0.06842151104082682|-0.1901575880039619|0.1676220297813416|-0.01448736432939768|-0.2477113157510757|0.01795558631420135|0.009228691458702087|0.008607566356658936|XArbitraryZVertical|-0.100151305071964|0.01145926458360582|-0.4374160101324205|0.893591516371441|-0.0671357661485672|0.1890136450529099|-0.9796767830848694|0|0|0|-1|-1|3
2021-04-08 19:51:03.361 +0100|18719.35395129167|-0.057281494140625|0.21331787109375|-0.9766693115234375|18719.33399029167|-0.9216945306870369|-0.06854870771839032|-0.1870682843193826|0.1153290346264839|0.01979753188788891|-0.2493374347686768|0.003059439361095428|-0.0015154629945755|0.01326626539230347|XArbitraryZVertical|-0.09877751136133206|0.01095173806917326|-0.43963659866442|0.8926604755010034|-0.06730005145072937|0.1859791278839111|-0.9802461266517639|0|0|0|-1|-1|3
2021-04-08 19:51:03.380 +0100|18719.37391229167|-0.07135009765625|0.205810546875|-0.9792022705078125|18719.35395129167|-0.9264202298218603|-0.06827091246660448|-0.1843190262450511|0.1419626623392105|0.02984648942947388|-0.2456806600093842|0.01032908260822296|0.02563108503818512|0.006543397903442383|XArbitraryZVertical|-0.09746816998396186|0.01069383365555855|-0.4418569790765009|0.8917108380151246|-0.0670623704791069|0.1832771301269531|-0.9807711839675903|0|0|0|-1|-1|3
2021-04-08 19:51:03.400 +0100|18719.39387329167|-0.0464935302734375|0.2095947265625|-0.97467041015625|18719.37391229167|-0.9311727164496442|-0.06798918394754282|-0.1821678340048355|0.08999449759721756|0.05643282830715179|-0.2497207671403885|-0.002722717821598053|0.02730375528335571|0.0009261369705200195|XArbitraryZVertical|-0.09642492863368528|0.01056731046544728|-0.4440650817042123|0.8907282388308494|-0.06681268662214279|0.18116195499897|-0.9811811447143555|0|0|0|-1|-1|3
2021-04-08 19:51:03.420 +0100|18719.41383429167|-0.0466461181640625|0.2208251953125|-0.976470947265625|18719.39387329167|-0.9359832767465597|-0.06738988744150837|-0.181014893626923|0.04940646141767502|0.04803966358304024|-0.234006330370903|0.01443397253751755|0.02500450611114502|0.005934476852416992|XArbitraryZVertical|-0.09575423824811698|0.0108053929162857|-0.4462759274550162|0.8896922338576831|-0.06623867154121399|0.1800279766321182|-0.9814287424087524|0|0|0|-1|-1|3
2021-04-08 19:51:03.440 +0100|18719.43379529167|-0.0501556396484375|0.19329833984375|-0.97015380859375|18719.41383429167|-0.9404547104075676|-0.06740102732692183|-0.1797791389265916|0.06730426847934723|0.02977985702455044|-0.2204801440238953|0.02196716517210007|0.04219615459442139|0.003866136074066162|XArbitraryZVertical|-0.09518492204012792|0.01073416632597293|-0.4483070635975654|0.8887325192333675|-0.06626453995704651|0.1788122802972794|-0.9816492199897766|0|0|0|-1|-1|3
2021-04-08 19:51:03.460 +0100|18719.45375629167|-0.04315185546875|0.15472412109375|-0.9386138916015625|18719.43379529167|-0.9449324986512879|-0.06720037592540509|-0.178246966663469|0.09949003905057907|0.04721962288022041|-0.2365899533033371|0.01338092237710953|0.0244167298078537|0.008805513381958008|XArbitraryZVertical|-0.09443747780195445|0.01068722274248752|-0.450359240106141|0.8877747124558183|-0.06608588993549347|0.177304595708847|-0.981934666633606|0|0|0|-1|-1|3
2021-04-08 19:51:03.480 +0100|18719.47371729167|-0.03857421875|0.1573486328125|-0.933258056640625|18719.45375629167|-0.9499237167393364|-0.06725756799680802|-0.1770440184882407|0.05042272806167603|0.03136268258094788|-0.2637919187545776|0.02050092816352844|-0.01198165118694305|0.0364033579826355|XArbitraryZVertical|-0.09389178738059452|0.01062210044571022|-0.4526129722977954|0.8866865540972279|-0.06615633517503738|0.1761205643415451|-0.9821429848670959|0|0|0|-1|-1|3
2021-04-08 19:51:03.500 +0100|18719.49367829167|-0.077972412109375|0.1842498779296875|-0.9520111083984375|18719.47371729167|-0.95526051103808|-0.06795829583428008|-0.1766632199084466|0.01346710324287415|-0.02415943332016468|-0.2653495967388153|0.03012006729841232|-0.02524815499782562|0.05119413137435913|XArbitraryZVertical|-0.09385443354493345|0.01047471950140139|-0.4549579017682246|0.8854914664910025|-0.06684908270835876|0.1757457107305527|-0.9821632504463196|0|0|0|-1|-1|3
2021-04-08 19:51:03.520 +0100|18719.51363929167|-0.0836944580078125|0.1990814208984375|-0.96502685546875|18719.49367829167|-0.9606366717255695|-0.06923525408876252|-0.1766894195623649|0.04043202474713326|-0.03866098448634148|-0.2801447212696075|1.803040504455566e-06|0.005213111639022827|0.03642439842224121|XArbitraryZVertical|-0.09412946460523654|0.01016844332061758|-0.4572755924118516|0.8842711653986485|-0.0681028887629509|0.1757715046405792|-0.9820724725723267|0|0|0|-1|-1|3
2021-04-08 19:51:03.540 +0100|18719.53360029167|-0.0843658447265625|0.2010498046875|-0.9575653076171875|18719.51363929167|-0.9661614098552305|-0.07072348919075017|-0.176016205111472|0.05020219832658768|-0.05983908101916313|-0.2824060916900635|-0.0126122385263443|0.01973085105419159|0.01701533794403076|XArbitraryZVertical|-0.0941468199653433|0.009614786708019666|-0.4596706500476049|0.883032805644188|-0.06957271695137024|0.1751087307929993|-0.9820878505706787|0|0|0|-1|-1|3
2021-04-08 19:51:03.560 +0100|18719.55356029167|-0.0874786376953125|0.20660400390625|-0.9508209228515625|18719.53360029167|-0.9717527940525931|-0.0729737461119377|-0.1747675037842507|0.04952370747923851|-0.1152304336428642|-0.2847201228141785|-0.01261435449123383|0.02277617156505585|0.01745510101318359|XArbitraryZVertical|-0.09409080788578009|0.008593865516407929|-0.4620769429532908|0.8817924790572607|-0.07179837673902512|0.1738791912794113|-0.982146143913269|0|0|0|-1|-1|3
2021-04-08 19:51:03.580 +0100|18719.57352129167|-0.0986175537109375|0.1879425048828125|-0.9568328857421875|18719.55356029167|-0.97721303031495|-0.07593880664231102|-0.1727368773160504|0.0797119140625|-0.1534426361322403|-0.2746112644672394|-0.01420778781175613|0.03457236289978027|0.03266358375549316|XArbitraryZVertical|-0.09386457757859987|0.007067888564145377|-0.4644178483530304|0.8805996560542678|-0.0747368112206459|0.1718791425228119|-0.9822789430618286|0|0|0|-1|-1|3
2021-04-08 19:51:03.600 +0100|18719.59348229167|-0.123291015625|0.1983489990234375|-0.96185302734375|18719.57352129167|-0.9823215896343008|-0.08002610180976784|-0.1709589415716061|0.07010964304208755|-0.1972972303628922|-0.2377355694770813|-0.01451800763607025|0.02089749276638031|0.03272926807403564|XArbitraryZVertical|-0.09402079933443566|0.005090312490635967|-0.4665400628882918|0.8794741221716632|-0.07877534627914429|0.1701273918151855|-0.9822683334350586|0|0|0|-1|-1|3
2021-04-08 19:51:03.620 +0100|18719.61344329167|-0.1315155029296875|0.1882171630859375|-0.968109130859375|18719.59348229167|-0.986704707017126|-0.08499174485010634|-0.169877659445324|0.06130160763859749|-0.2064826935529709|-0.2132128179073334|-0.03355161845684052|0.02754782140254974|0.0222700834274292|XArbitraryZVertical|-0.09469916054253309|0.002858708473957288|-0.468273443799929|0.8784896050666106|-0.08366750925779343|0.1690617650747299|-0.9820477962493896|0|0|0|-1|-1|3
2021-04-08 19:51:03.640 +0100|18719.63340429167|-0.138580322265625|0.1911163330078125|-0.9703216552734375|18719.61344329167|-0.9908515603500377|-0.08960199099969218|-0.1688918373299555|0.04755260422825813|-0.1918482035398483|-0.209221363067627|-0.04292619228363037|0.02420127391815186|0.01144981384277344|XArbitraryZVertical|-0.0953456291437012|0.0007973608957595349|-0.4699135426863602|0.8775477035491351|-0.08820895850658417|0.1680900603532791|-0.9818171262741089|0|0|0|-1|-1|3
2021-04-08 19:51:03.664 +0100|18719.65336529167|-0.1336669921875|0.19921875|-0.9619140625|18719.63340429167|-0.9948522787727395|-0.09407408789426733|-0.1692050509386787|-0.02254019863903522|-0.1864273399114609|-0.188798114657402|-0.04281371831893921|0.02108490467071533|0.01331239938735962|XArbitraryZVertical|-0.09653496909188737|-0.0008971214614938895|-0.4714408998610791|0.8765978126766265|-0.09259389340877533|0.1683988124132156|-0.9813603758811951|0|0|0|-1|-1|3
2021-04-08 19:51:03.680 +0100|18719.67332629167|-0.1174163818359375|0.200836181640625|-0.960235595703125|18719.65336529167|-0.9985056119633933|-0.09830015453675692|-0.170340622281304|-0.0431346595287323|-0.17681023478508|-0.1667830795049667|-0.04048662632703781|0.02814437448978424|0.01813828945159912|XArbitraryZVertical|-0.09803072736769099|-0.002298636627491801|-0.4727888760095012|0.8757029333701477|-0.09672152251005173|0.1695180535316467|-0.9807693958282471|0|0|0|-1|-1|3
2021-04-08 19:51:03.700 +0100|18719.69328729167|-0.109375|0.208648681640625|-0.962188720703125|18719.67332629167|-1.00189006044545|-0.1027217061584632|-0.1713899661696187|-0.03915160149335861|-0.1837023347616196|-0.1563533544540405|-0.02072746306657791|0.03358002007007599|0.02049905061721802|XArbitraryZVertical|-0.09953955927847251|-0.003814205321800078|-0.4740071810282857|0.8748684310334962|-0.101038783788681|0.1705521196126938|-0.9801546335220337|0|0|0|-1|-1|3
2021-04-08 19:51:03.720 +0100|18719.71324829167|-0.109100341796875|0.2072601318359375|-0.9649505615234375|18719.69328729167|-1.00478458610638|-0.1077169338089398|-0.1722333267234978|-0.0246160663664341|-0.2134000360965729|-0.1157744973897934|-0.002862922847270966|0.03442755341529846|0.01619189977645874|XArbitraryZVertical|-0.1010984604942594|-0.005649774099083495|-0.4749855451787201|0.8741487225086543|-0.1059181019663811|0.1713830530643463|-0.9794943332672119|0|0|0|-1|-1|3
2021-04-08 19:51:03.740 +0100|18719.733208875|-0.118988037109375|0.2118682861328125|-0.964447021484375|18719.71324829167|-1.006974354013621|-0.1130588320951282|-0.1727970708177702|-0.0191977322101593|-0.2388796210289001|-0.08542396128177643|0.0009836927056312561|0.03710703551769257|0.01455467939376831|XArbitraryZVertical|-0.1026203649091892|-0.007735992877439919|-0.4756450210932808|0.8735966160528595|-0.1111380085349083|0.1719384342432022|-0.978818416595459|0|0|0|-1|-1|3
2021-04-08 19:51:03.760 +0100|18719.753169875|-0.1349334716796875|0.2088623046875|-0.968017578125|18719.733208875|-1.008505843871176|-0.1188281086988182|-0.1733743209251638|0.009253666736185551|-0.2545158863067627|-0.05819731205701828|0.002710849046707153|0.03847627341747284|0.01747584342956543|XArbitraryZVertical|-0.10425040308711|-0.01003636382291635|-0.4759887980467734|0.8731930381806607|-0.1167714148759842|0.1725070625543594|-0.9780622720718384|0|0|0|-1|-1|3
2021-04-08 19:51:03.780 +0100|18719.773130875|-0.1386566162109375|0.1954193115234375|-0.9651947021484375|18719.753169875|-1.009404166005618|-0.1240920463480257|-0.173228157387774|0.05487195029854774|-0.2408100962638855|-0.04160431027412415|-0.01118218898773193|0.0371554046869278|0.007854700088500977|XArbitraryZVertical|-0.1054449552103746|-0.01232262468601912|-0.4761119451216221|0.8729530114218684|-0.1219213530421257|0.1723630875349045|-0.9774590134620667|0|0|0|-1|-1|3
2021-04-08 19:51:03.800 +0100|18719.793091875|-0.141845703125|0.197479248046875|-0.96453857421875|18719.773130875|-1.009956774088896|-0.1286129553631912|-0.1726174789082382|0.05458003655076027|-0.2272031009197235|-0.03066457621753216|-0.009146586060523987|0.02553467452526093|0.01017487049102783|XArbitraryZVertical|-0.1062599859956424|-0.01441478498348681|-0.4761433588506661|0.8728051319170511|-0.1263525635004044|0.1717615127563477|-0.9770020842552185|0|0|0|-1|-1|3
2021-04-08 19:51:03.819 +0100|18719.813052875|-0.1521759033203125|0.207122802734375|-0.972564697265625|18719.793091875|-1.010389616308748|-0.1326622842637971|-0.1725454773929659|0.03385457023978233|-0.2064511030912399|-0.02487300150096416|-0.01179684698581696|0.02378980815410614|0.01590830087661743|XArbitraryZVertical|-0.1071960802264519|-0.01617618556431125|-0.4761196977785605|0.872672688988603|-0.1303093582391739|0.1716905832290649|-0.9764946699142456|0|0|0|-1|-1|3
2021-04-08 19:51:03.840 +0100|18719.833013875|-0.1724700927734375|0.1867218017578125|-0.9672088623046875|18719.813052875|-1.010598724973448|-0.1364203806998181|-0.1725382324134032|0.03246108442544937|-0.2048316299915314|-0.01883650384843349|-0.0139261931180954|0.03380671143531799|-0.0002883672714233398|XArbitraryZVertical|-0.1080892691397862|-0.01780640663339902|-0.4760090427912449|0.8725910872049253|-0.1339783668518066|0.1716834455728531|-0.9759992957115173|0|0|0|-1|-1|3
2021-04-08 19:51:03.860 +0100|18719.852974875|-0.1721649169921875|0.1905364990234375|-0.971343994140625|18719.833013875|-1.011299719285953|-0.1402366159984094|-0.1731416194514434|-0.02996725589036942|-0.1722499877214432|-0.05276446416974068|-0.03006872534751892|0.0197845846414566|0.006765604019165039|XArbitraryZVertical|-0.1092655978223462|-0.01928634754050538|-0.4760767276371946|0.872376153168129|-0.1376875191926956|0.1722778379917145|-0.975378155708313|0|0|0|-1|-1|3
2021-04-08 19:51:03.880 +0100|18719.872935875|-0.18084716796875|0.1939849853515625|-0.981658935546875|18719.852974875|-1.012795658464364|-0.1436311188557278|-0.1751693825122874|-0.1196599900722504|-0.1514281183481216|-0.06937611103057861|-0.03112713992595673|0.01119570434093475|0.004220664501190186|XArbitraryZVertical|-0.1109668904723505|-0.02019045627678965|-0.4764368971040152|0.8719442637609487|-0.1409473419189453|0.1742749363183975|-0.9745573997497559|0|0|0|-1|-1|3
2021-04-08 19:51:03.900 +0100|18719.892896875|-0.177337646484375|0.1789703369140625|-0.9722137451171875|18719.872935875|-1.014761171850948|-0.1467217974575774|-0.1779224350313819|-0.1384459733963013|-0.1194370090961456|-0.08699531853199005|-0.03515972197055817|0.02003633975982666|-0.01230770349502563|XArbitraryZVertical|-0.1129150198480773|-0.0207558701317343|-0.4769748698986018|0.8713864927416082|-0.1438880264759064|0.1769851893186569|-0.9736387729644775|0|0|0|-1|-1|3
2021-04-08 19:51:03.919 +0100|18719.912857875|-0.1586151123046875|0.1763763427734375|-0.95263671875|18719.892896875|-1.017035812964464|-0.1491501592636916|-0.1812462361449943|-0.1818133592605591|-0.08783907443284988|-0.0903780609369278|-0.03453198075294495|0.001797124743461609|-0.003267824649810791|XArbitraryZVertical|-0.1149551352490973|-0.02087144020382819|-0.4776480278329047|0.8707481389265529|-0.1461637169122696|0.1802555322647095|-0.9726994037628174|0|0|0|-1|-1|3
2021-04-08 19:51:03.939 +0100|18719.932818875|-0.1457061767578125|0.1660003662109375|-0.94085693359375|18719.912857875|-1.019266560048393|-0.1517183132829501|-0.1852501725999512|-0.2051934599876404|-0.102576419711113|-0.06686589866876602|-0.0144597589969635|-0.008762076497077942|0.0157892107963562|XArbitraryZVertical|-0.1173212976361386|-0.02087871115655866|-0.4782499287089151|0.8701016773788276|-0.1485510021448135|0.1841924339532852|-0.9715995788574219|0|0|0|-1|-1|3
2021-04-08 19:51:03.959 +0100|18719.952779875|-0.1361541748046875|0.1668548583984375|-0.9435882568359375|18719.932818875|-1.02123032765457|-0.1548264944899509|-0.1891246859263701|-0.2142353653907776|-0.1293127536773682|-0.05777289718389511|0.004195317625999451|-0.02021357417106628|0.0293809175491333|XArbitraryZVertical|-0.1197570282766027|-0.02116295874979336|-0.4787027273108538|0.8695138638185633|-0.1514590084552765|0.1879992634057999|-0.970420777797699|0|0|0|-1|-1|3
2021-04-08 19:51:03.979 +0100|18719.972740875|-0.127777099609375|0.1842803955078125|-0.953643798828125|18719.952779875|-1.023152341704853|-0.1584065651012081|-0.1934749199566638|-0.2302362322807312|-0.1503037363290787|-0.05026029422879219|0.01586933434009552|-0.02922992408275604|0.02600151300430298|XArbitraryZVertical|-0.1225095261985877|-0.0215324843123793|-0.479072198824662|0.8689175846151043|-0.1548017263412476|0.1922701299190521|-0.9690555334091187|0|0|0|-1|-1|3
2021-04-08 19:51:03.999 +0100|18719.992701875|-0.1233062744140625|0.1894378662109375|-0.96026611328125|18719.972740875|-1.025015761883369|-0.1624369883113155|-0.197418600147592|-0.2070516496896744|-0.1712257415056229|-0.06192165613174438|0.03147546947002411|-0.01465064287185669|0.01416170597076416|XArbitraryZVertical|-0.1251933390170591|-0.02219570858030877|-0.4794008704939137|0.8683369805978957|-0.1585822999477386|0.1961387246847153|-0.9676679372787476|0|0|0|-1|-1|3
2021-04-08 19:51:04.019 +0100|18720.012662875|-0.1389007568359375|0.20404052734375|-0.9722747802734375|18719.992701875|-1.027167096770605|-0.1666558650910173|-0.2006738427318516|-0.1917212903499603|-0.1985068470239639|-0.08116921037435532|0.03880667686462402|-0.01431682705879211|0.006806790828704834|XArbitraryZVertical|-0.1276292292822543|-0.0230869270764134|-0.4798728624875586|0.8676980860535186|-0.1625565737485886|0.1993296891450882|-0.966355562210083|0|0|0|-1|-1|3
2021-04-08 19:51:04.039 +0100|18720.032623875|-0.1571502685546875|0.211212158203125|-0.9771881103515625|18720.012662875|-1.029699632047752|-0.1710373396240849|-0.2035300654024597|-0.1673687398433685|-0.2067921459674835|-0.1117657348513603|0.03154326975345612|-0.001413628458976746|-0.004748821258544922|XArbitraryZVertical|-0.1299377863476598|-0.02411703690631706|-0.4805140736528125|0.8669723508218986|-0.1666914820671082|0.2021277844905853|-0.965069055557251|0|0|0|-1|-1|3
2021-04-08 19:51:04.059 +0100|18720.052583875|-0.18060302734375|0.2072296142578125|-0.97406005859375|18720.032623875|-1.032435786836346|-0.1752895294540568|-0.2050903882746489|-0.1019074097275734|-0.2146395742893219|-0.1251692473888397|0.02013304829597473|0.008288964629173279|-0.01088976860046387|XArbitraryZVertical|-0.1316634349402976|-0.02539339962471891|-0.4813240853017776|0.8662259362435002|-0.1707384139299393|0.2036556601524353|-0.9640398025512695|0|0|0|-1|-1|3
2021-04-08 19:51:04.079 +0100|18720.072544875|-0.1927642822265625|0.2059173583984375|-0.97711181640625|18720.052583875|-1.035098453276337|-0.1792319302662504|-0.2056809331479246|-0.05693785473704338|-0.2076382786035538|-0.1315485686063766|-0.0009457021951675415|0.002812758088111877|-0.01167362928390503|XArbitraryZVertical|-0.1329008299849562|-0.02677718102366944|-0.4821786206614802|0.8655196366565371|-0.1745162308216095|0.204233780503273|-0.9632406830787659|0|0|0|-1|-1|3
2021-04-08 19:51:04.099 +0100|18720.092505875|-0.2043609619140625|0.2052154541015625|-0.986297607421875|18720.072544875|-1.037635176890947|-0.1828154089470219|-0.2057058921688615|-0.02454201318323612|-0.193729355931282|-0.1201678290963173|-0.01086270809173584|0.002742543816566467|-0.0105859637260437|XArbitraryZVertical|-0.13381105530447|-0.02815200611430088|-0.4830354498561822|0.864857742736559|-0.1779659241437912|0.2042582184076309|-0.9626041054725647|0|0|0|-1|-1|3
2021-04-08 19:51:04.119 +0100|18720.112466875|-0.2046966552734375|0.2186431884765625|-0.99688720703125|18720.092505875|-1.039656203067932|-0.1859890587315539|-0.2055950545675046|-0.01904874481260777|-0.1774270683526993|-0.09248382598161697|-0.02039295434951782|-0.0002922713756561279|-0.01992243528366089|XArbitraryZVertical|-0.1345597691782878|-0.02941606397095357|-0.4837034192171143|0.8643260218352531|-0.1810241788625717|0.2041497230529785|-0.9620567560195923|0|0|0|-1|-1|3
2021-04-08 19:51:04.139 +0100|18720.132427875|-0.2134857177734375|0.206787109375|-1.0008544921875|18720.112466875|-1.041001008911372|-0.1888190542647162|-0.2057933882855819|-0.01206806674599648|-0.1565903276205063|-0.05782473459839821|-0.02221052348613739|0.009645402431488037|-0.03051865100860596|XArbitraryZVertical|-0.1353493606029662|-0.0304984401007534|-0.4840804553020649|0.8639540954170735|-0.1837384700775146|0.2043438702821732|-0.9615007638931274|0|0|0|-1|-1|3
2021-04-08 19:51:04.162 +0100|18720.152388875|-0.2200164794921875|0.222930908203125|-0.99847412109375|18720.132427875|-1.042141224307656|-0.1915255756318716|-0.2060864176408437|-0.04994379356503487|-0.12547667324543|-0.04149529710412025|-0.02381645143032074|0.006200015544891357|-0.0389060378074646|XArbitraryZVertical|-0.1361474618783745|-0.03151655510382848|-0.4843697524558393|0.8636299106441681|-0.1863287091255188|0.2046307027339935|-0.9609411358833313|0|0|0|-1|-1|3
2021-04-08 19:51:04.179 +0100|18720.172349875|-0.2308197021484375|0.225372314453125|-0.98095703125|18720.152388875|-1.043080103174129|-0.1939169023824085|-0.2075621452907037|-0.09906119108200073|-0.09948363900184631|-0.02996141463518143|-0.02931365370750427|0.01258349418640137|-0.03730189800262451|XArbitraryZVertical|-0.1373714614296728|-0.03211462567226066|-0.484512600764798|0.8633338563542389|-0.1885676980018616|0.206074982881546|-0.9601954817771912|0|0|0|-1|-1|3
2021-04-08 19:51:04.199 +0100|18720.192310875|-0.21630859375|0.2155609130859375|-0.9604949951171875|18720.172349875|-1.044177380728004|-0.1958071677067678|-0.2093858957156702|-0.1122580543160439|-0.0531807504594326|-0.04417514801025391|-0.03886392712593079|0.01914578676223755|-0.02644884586334229|XArbitraryZVertical|-0.1386250905454819|-0.0323968033743105|-0.4847321909559795|0.8629995970389898|-0.1903089433908463|0.2078592479228973|-0.9594670534133911|0|0|0|-1|-1|3
2021-04-08 19:51:04.219 +0100|18720.212271875|-0.20843505859375|0.208526611328125|-0.9606781005859375|18720.192310875|-1.045602403256955|-0.1969952738728503|-0.2111183248095105|-0.09998953342437744|-0.02503758296370506|-0.05009499937295914|-0.02850227057933807|0.004542559385299683|-0.003745317459106445|XArbitraryZVertical|-0.1396747136321559|-0.03237470293255031|-0.4851459446665153|0.8625986440499535|-0.1913779973983765|0.209553524851799|-0.9588857293128967|0|0|0|-1|-1|3
2021-04-08 19:51:04.239 +0100|18720.232232875|-0.20098876953125|0.19854736328125|-0.95501708984375|18720.212271875|-1.047209684527674|-0.1978434361347564|-0.2126580144258217|-0.1039247959852219|-0.009006578475236893|-0.07322792708873749|-0.01739199459552765|0.001557216048240662|-0.003462493419647217|XArbitraryZVertical|-0.1405624228086929|-0.03224022229692038|-0.4856737525643733|0.8621622882085933|-0.1921275705099106|0.2110587805509567|-0.9584055542945862|0|0|0|-1|-1|3
2021-04-08 19:51:04.259 +0100|18720.252193875|-0.19427490234375|0.195587158203125|-0.9512481689453125|18720.232232875|-1.049507202696791|-0.1987530347427525|-0.2146004733966516|-0.1497906297445297|-0.003889847313985229|-0.1007311046123505|-0.009048506617546082|-0.01222768425941467|-0.0005318522453308105|XArbitraryZVertical|-0.1416471723151109|-0.03198026657667505|-0.4864653145827285|0.8615479579139631|-0.1929179430007935|0.2129570841789246|-0.9578266739845276|0|0|0|-1|-1|3
2021-04-08 19:51:04.279 +0100|18720.272154875|-0.1884918212890625|0.1985931396484375|-0.953216552734375|18720.252193875|-1.05234471988287|-0.1997333878559154|-0.2173837965475821|-0.1691146343946457|0.003654141910374165|-0.1087123304605484|-0.001788720488548279|-0.0223010927438736|0.004415988922119141|XArbitraryZVertical|-0.1431143643407811|-0.03149691632121345|-0.4874233853365509|0.8607815196464658|-0.1937385052442551|0.2156757265329361|-0.95705246925354|0|0|0|-1|-1|3
2021-04-08 19:51:04.299 +0100|18720.292115875|-0.19439697265625|0.204864501953125|-0.95074462890625|18720.272154875|-1.055689500973913|-0.2009575668983838|-0.2201881515255187|-0.1701272428035736|-0.00441560847684741|-0.1427670568227768|0.006051391363143921|-0.01995740830898285|0.005519509315490723|XArbitraryZVertical|-0.144656329151184|-0.03107215521000749|-0.4885770512547669|0.8598846701277912|-0.194788470864296|0.218413233757019|-0.9562181234359741|0|0|0|-1|-1|3
2021-04-08 19:51:04.319 +0100|18720.312076875|-0.1936492919921875|0.217742919921875|-0.9536590576171875|18720.292115875|-1.059692919367536|-0.2022693976907977|-0.2228664364006167|-0.1860469430685043|-0.008484385907649994|-0.1757402718067169|0.002640292048454285|-0.01671087741851807|0.005724310874938965|XArbitraryZVertical|-0.1461748241583737|-0.0306637794257714|-0.4900119052234874|0.8588254033714188|-0.1959244757890701|0.2210260778665543|-0.9553853273391724|0|0|0|-1|-1|3
2021-04-08 19:51:04.339 +0100|18720.332037875|-0.2007293701171875|0.229949951171875|-0.9521331787109375|18720.312076875|-1.064151069960301|-0.2035454320409253|-0.225288858880678|-0.1633966714143753|-0.00636174064129591|-0.1866578161716461|0.003475755453109741|-0.011946901679039|0.003206849098205566|XArbitraryZVertical|-0.1475815154335156|-0.03026579139085029|-0.4916579405245959|0.8576574218596482|-0.1970346122980118|0.2233879268169403|-0.954607367515564|0|0|0|-1|-1|3
2021-04-08 19:51:04.358 +0100|18720.351998875|-0.2137603759765625|0.218170166015625|-0.9433746337890625|18720.332037875|-1.068845692290848|-0.2046388310197174|-0.2266680850584909|-0.1215182766318321|0.003715448081493378|-0.2159623503684998|0.0001078695058822632|0.005736649036407471|0.001238703727722168|XArbitraryZVertical|-0.1485045564194719|-0.03003351551821403|-0.4934893467602774|0.8564536217149248|-0.1980154663324356|0.2247320860624313|-0.9540887475013733|0|0|0|-1|-1|3
2021-04-08 19:51:04.379 +0100|18720.371959875|-0.2336883544921875|0.1892242431640625|-0.9018402099609375|18720.351998875|-1.073719744009616|-0.2054377036646127|-0.2273402029649323|-0.1087761670351028|0.005700568202883005|-0.2284788489341736|-0.01097118854522705|-0.004760146141052246|0.003999114036560059|XArbitraryZVertical|-0.1490586587285523|-0.02983991228255259|-0.4954669040195934|0.8552215123471081|-0.1987467408180237|0.2253869622945786|-0.9537822008132935|0|0|0|-1|-1|3
2021-04-08 19:51:04.398 +0100|18720.391920875|-0.2490234375|0.1828155517578125|-0.8568115234375|18720.371959875|-1.079132315310889|-0.2065085853498121|-0.2289897982591991|-0.2208888828754425|-0.006699162535369396|-0.2513081133365631|-0.02896256744861603|-0.02911782264709473|0.03746289014816284|XArbitraryZVertical|-0.1500996896679499|-0.02946654338636293|-0.4975792009851443|0.8538248369596675|-0.199691504240036|0.2269938141107559|-0.9532036185264587|0|0|0|-1|-1|3
2021-04-08 19:51:04.419 +0100|18720.411881875|-0.27362060546875|0.2308502197265625|-0.8382110595703125|18720.391920875|-1.085535746124255|-0.2086204779955315|-0.2333728287894204|-0.3808050155639648|-0.07438116520643234|-0.2649458646774292|-0.04415623843669891|-0.05344957113265991|0.08587646484375|XArbitraryZVertical|-0.1525617913694473|-0.02874490024679185|-0.4998275524946676|0.8520980730674125|-0.2014961242675781|0.2312602251768112|-0.9517972469329834|0|0|0|-1|-1|3
2021-04-08 19:51:04.438 +0100|18720.431842875|-0.268798828125|0.2989044189453125|-0.8972320556640625|18720.411881875|-1.092723011933729|-0.2117094151507666|-0.2403508519244784|-0.4184997379779816|-0.07094254344701767|-0.2654998898506165|-0.06579218804836273|-0.02184166014194489|0.121826171875|XArbitraryZVertical|-0.1563616215379007|-0.02768241504560904|-0.502124308910996|0.8500917041550997|-0.2040911316871643|0.238043412566185|-0.9495694637298584|0|0|0|-1|-1|3
2021-04-08 19:51:04.458 +0100|18720.451803875|-0.25238037109375|0.3258056640625|-0.959075927734375|18720.431842875|-1.099436392008159|-0.2144557370199|-0.2463328330897821|-0.3258286416530609|-0.03797921538352966|-0.2366247624158859|-0.06423956155776978|0.04190215468406677|0.07001852989196777|XArbitraryZVertical|-0.1596435594585683|-0.02674707331448739|-0.5043001544611948|0.848221648955109|-0.2063914388418198|0.2438491433858871|-0.9475970268249512|0|0|0|-1|-1|3
2021-04-08 19:51:04.478 +0100|18720.471764875|-0.2225341796875|0.3475189208984375|-1.018890380859375|18720.451803875|-1.105216194651681|-0.2164432785609341|-0.2499390306835674|-0.2214733362197876|0.02721837908029556|-0.2042496800422668|-0.04991249740123749|0.07472231984138489|0.0005652308464050293|XArbitraryZVertical|-0.1617250529690074|-0.02617288466257135|-0.5063093988107903|0.8466469320510086|-0.2080842107534409|0.2473448812961578|-0.9463199973106384|0|0|0|-1|-1|3
2021-04-08 19:51:04.498 +0100|18720.491725875|-0.192047119140625|0.3064422607421875|-1.04718017578125|18720.471764875|-1.109864607200978|-0.2173357823251099|-0.2513214624623846|-0.103779673576355|0.1046317890286446|-0.1692581474781036|-0.02123358845710754|0.09961295127868652|-0.06097561120986938|XArbitraryZVertical|-0.1625867782517379|-0.02580703914886536|-0.5080951185310787|0.8454223290692471|-0.2088547945022583|0.2486841231584549|-0.9457990527153015|0|0|0|-1|-1|3
2021-04-08 19:51:04.518 +0100|18720.511686875|-0.16851806640625|0.2741241455078125|-1.069381713867188|18720.491725875|-1.113824236871976|-0.2171330649865764|-0.2515300076294084|-0.07942025363445282|0.1890853643417358|-0.1446366757154465|0.01021021604537964|0.06953427195549011|-0.09011298418045044|XArbitraryZVertical|-0.1626724381132056|-0.02534394486146391|-0.5097680023429146|0.8444121818369831|-0.2086518853902817|0.2488861083984375|-0.945790708065033|0|0|0|-1|-1|3
2021-04-08 19:51:04.538 +0100|18720.531647875|-0.1458892822265625|0.281494140625|-1.07635498046875|18720.511686875|-1.117564399954958|-0.2151145622598161|-0.254432497369365|-0.1961197555065155|0.281438797712326|-0.1153846085071564|0.03188830614089966|0.02427420020103455|-0.1158856153488159|XArbitraryZVertical|-0.1634065802176093|-0.02341293834012633|-0.511282636543449|0.8434099590710242|-0.2065872997045517|0.2516962289810181|-0.9455002546310425|0|0|0|-1|-1|3
2021-04-08 19:51:04.558 +0100|18720.551608875|-0.13916015625|0.2203216552734375|-1.074203491210938|18720.531647875|-1.120604801959472|-0.2104610586437377|-0.259380288758547|-0.2299381345510483|0.3775460720062256|-0.07625176757574081|0.04918095469474792|0.02342557907104492|-0.134627103805542|XArbitraryZVertical|-0.164298094753358|-0.01987896646492676|-0.5125573004287626|0.8425534058119053|-0.2019225507974625|0.2564816176891327|-0.9452219009399414|0|0|0|-1|-1|3
2021-04-08 19:51:04.578 +0100|18720.571569875|-0.1311492919921875|0.201446533203125|-1.046707153320312|18720.551608875|-1.123785320816444|-0.2032667641612881|-0.2655607338967084|-0.3559494912624359|0.4775077104568481|-0.09695979952812195|0.05523546040058136|-0.0184166431427002|-0.1326637864112854|XArbitraryZVertical|-0.1650372720974683|-0.01493110052246847|-0.5140069655387324|0.8416273573769981|-0.1947934627532959|0.2624503970146179|-0.945079505443573|0|0|0|-1|-1|3
2021-04-08 19:51:04.598 +0100|18720.591529875|-0.120697021484375|0.2108917236328125|-1.079986572265625|18720.571569875|-1.127531379912922|-0.1939444262501077|-0.2755627042373053|-0.6624155640602112|0.5679764151573181|-0.07407907396554947|0.05217291414737701|-0.07520434260368347|-0.09928661584854126|XArbitraryZVertical|-0.16679381943151|-0.008012613659935922|-0.5155819860517001|0.8404111559936495|-0.1854595541954041|0.2720884680747986|-0.9442312121391296|0|0|0|-1|-1|3
2021-04-08 19:51:04.618 +0100|18720.611490875|-0.096099853515625|0.2187652587890625|-1.10174560546875|18720.591529875|-1.132059994634146|-0.1823217196149995|-0.2915224640307165|-0.9878581166267395|0.7194024920463562|-0.05694837868213654|0.05021850764751434|-0.07947933673858643|-0.1374896764755249|XArbitraryZVertical|-0.1703864343825899|0.001547892996809262|-0.5172350997941209|0.8387097741345165|-0.1736632287502289|0.2874107956886292|-0.9419321417808533|0|0|0|-1|-1|3
2021-04-08 19:51:04.638 +0100|18720.631451875|-0.0597991943359375|0.28057861328125|-1.075759887695312|18720.611490875|-1.137290648017276|-0.1681751494493046|-0.3138937208671483|-1.300419092178345|0.8557248711585999|-0.02700814604759216|0.05544403195381165|-0.09369185566902161|-0.1511167287826538|XArbitraryZVertical|-0.1759118743666415|0.01396903013836783|-0.518931440493844|0.8364031673787683|-0.1592049300670624|0.3087644279003143|-0.9377197623252869|0|0|0|-1|-1|3
2021-04-08 19:51:04.673 +0100|18720.651412875|-0.0491943359375|0.308013916015625|-1.079559326171875|18720.651412875|-1.145762071839669|-0.133161734613454|-0.3660031448285266|-1.267087817192078|1.061951994895935|0.02128215506672859|0.0713154524564743|-0.05153554677963257|-0.1484147906303406|XArbitraryZVertical|-0.1880499430370178|0.04344982091365718|-0.521648579740416|0.8310427973390268|-0.1239746510982513|0.3578861653804779|-0.9254986643791199|0|0|0|-1|-1|3
2021-04-08 19:51:04.678 +0100|18720.671373875|-0.022613525390625|0.304931640625|-1.07244873046875||||||||||||||||||||||||3
2021-04-08 19:51:04.698 +0100|18720.691334875|-0.00213623046875|0.326812744140625|-1.047073364257812|18720.671373875|-1.148629211115248|-0.1119647616026065|-0.3902762469601533|-1.162019968032837|1.154707670211792|0.008841730654239655|0.07233753800392151|-0.06869164109230042|-0.1531453728675842|XArbitraryZVertical|-0.1923584670391613|0.05908936826921005|-0.5230051848202921|0.828234433578635|-0.103329248726368|0.3804439008235931|-0.9190133213996887|0|0|0|-1|-1|3
2021-04-08 19:51:04.718 +0100|18720.711295875|0.01214599609375|0.2906646728515625|-0.9647979736328125|18720.691334875|-1.15046571837399|-0.08990567951354907|-0.411414244747297|-0.9207246899604797|1.140547156333923|0.01033478789031506|0.08023159950971603|-0.08194339275360107|-0.1321436762809753|XArbitraryZVertical|-0.1951459577444227|0.07410029844625389|-0.5243205405700126|0.8255393780126959|-0.08229263871908188|0.3999059498310089|-0.9128543734550476|0|0|0|-1|-1|3
2021-04-08 19:51:04.738 +0100|18720.73125716667|-0.032806396484375|0.204559326171875|-0.934539794921875|18720.711295875|-1.152258252454717|-0.06829601482038158|-0.4260480417223407|-0.6204293370246887|1.071986198425293|-0.04987511411309242|0.07245625555515289|-0.1082522571086884|-0.08352106809616089|XArbitraryZVertical|-0.195365001097912|0.08712571291064009|-0.5261044423050003|0.8230770883135634|-0.06214243546128273|0.4132753610610962|-0.9084832668304443|0|0|0|-1|-1|3
2021-04-08 19:51:04.758 +0100|18720.75121816667|0.01910400390625|0.2247772216796875|-0.8935699462890625|18720.73125716667|-1.154256117187963|-0.04880005391093098|-0.438370193212191|-0.6385086178779602|0.9969176650047302|-0.03712744638323784|0.02904564142227173|-0.2022658884525299|-0.01860684156417847|XArbitraryZVertical|-0.1951562030024549|0.09864420340054196|-0.5279612393104339|0.8206341713142464|-0.04416821151971817|0.4244643151760101|-0.9043667316436768|0|0|0|-1|-1|3
2021-04-08 19:51:04.778 +0100|18720.77117916667|0.07061767578125|0.3528594970703125|-0.8694000244140625|18720.75121816667|-1.156231970414966|-0.02856213022705334|-0.4495220971257458|-0.5733635425567627|1.044604420661926|-0.07208640873432159|0.0113920271396637|-0.2256423830986023|-0.04436886310577393|XArbitraryZVertical|-0.1942433389130407|0.1101170130092596|-0.5299826065907821|0.8180845654922192|-0.02572112530469894|0.4345351457595825|-0.9002875089645386|0|0|0|-1|-1|3
2021-04-08 19:51:04.798 +0100|18720.79114016667|0.1047210693359375|0.6719818115234375|-0.9035186767578125|18720.77117916667|-1.156239292962253|-0.009227649199313613|-0.4627715673909437|-0.536690354347229|0.8798704743385315|0.09604108333587646|0.06498803198337555|-0.1520878672599792|0.03307092189788818|XArbitraryZVertical|-0.194511078682043|0.1215531285084043|-0.5309951615100253|0.8157417677660815|-0.008256955072283745|0.4464298784732819|-0.8947805762290955|0|0|0|-1|-1|3
2021-04-08 19:51:04.818 +0100|18720.81110116667|0.104522705078125|0.6772003173828125|-0.8746490478515625|18720.79114016667|-1.152765242591359|0.007678059030721222|-0.4630186839065227|0.6656152606010437|0.6877888441085815|0.1819502264261246|0.09600409865379333|0.1797222495079041|0.006147325038909912|XArbitraryZVertical|-0.1903394769881629|0.1281792491484412|-0.5311893584839908|0.8155850747444695|0.006869555450975895|0.4466509819030762|-0.8946819305419922|0|0|0|-1|-1|3
2021-04-08 19:51:04.838 +0100|18720.83106216667|0.080047607421875|0.5738983154296875|-0.880401611328125|18720.81110116667|-1.149246844363282|0.02115081280340424|-0.4336351915299498|2.285412788391113|0.5008121728897095|0.2025337815284729|0.08775600790977478|0.2560361623764038|0.0133357048034668|XArbitraryZVertical|-0.1749501035849891|0.125585669384238|-0.5326732147727244|0.8184621072123669|0.01919175498187542|0.4201723039150238|-0.9072414040565491|0|0|0|-1|-1|3
2021-04-08 19:51:04.857 +0100|18720.85102316667|0.010528564453125|0.11004638671875|-0.8023223876953125|18720.83106216667|-1.147410195623164|0.03059879999254725|-0.3722831661636827|3.81159782409668|0.4103060662746429|0.08789562433958054|0.07039280235767365|0.2917285859584808|0.04335266351699829|XArbitraryZVertical|-0.1472601216307259|0.1130611553359991|-0.5356876040572616|0.8237539950647873|0.02849831245839596|0.3637431561946869|-0.9310632348060608|0|0|0|-1|-1|3
2021-04-08 19:51:04.878 +0100|18720.87098416667|0.0279388427734375|-0.2186431884765625|-0.84381103515625|18720.85102316667|-1.150158177401315|0.03962440033258104|-0.2901860375803804|4.158609390258789|0.6001694798469543|-0.06514168530702591|-0.01499441266059875|-0.06149068474769592|0.139002799987793|XArbitraryZVertical|-0.1106421884858013|0.09507382317966243|-0.5404840564055003|0.8286112233341506|0.03795779496431351|0.2861304879188538|-0.9574385285377502|0|0|0|-1|-1|3
2021-04-08 19:51:04.898 +0100|18720.89094516667|0.1161041259765625|-0.3184661865234375|-0.8768768310546875|18720.87098416667|-1.156550036780727|0.05266735896525366|-0.2143084889885084|3.269525051116943|0.8501947522163391|-0.2535538673400879|-0.03596740961074829|-0.3795267343521118|0.1515499949455261|XArbitraryZVertical|-0.07521975537936371|0.08035909161314914|-0.5456150638865066|0.8307759375908567|0.05143873766064644|0.2126717865467072|-0.9757688045501709|0|0|0|-1|-1|3
2021-04-08 19:51:04.917 +0100|18720.91090616667|0.0733642578125|-0.0096435546875|-0.9604339599609375|18720.89094516667|-1.165890845399622|0.06752501905880533|-0.1659504919565339|1.7327641248703|0.8144602179527283|-0.2985036373138428|0.05750610679388046|-0.4618818759918213|0.1260886788368225|XArbitraryZVertical|-0.05063426423534374|0.07368239016000135|-0.5506143499018383|0.8299585065680123|0.06654674559831619|0.1651898324489594|-0.9840141534805298|0|0|0|-1|-1|3
2021-04-08 19:51:04.937 +0100|18720.93086716667|0.0223846435546875|0.0421295166015625|-1.011749267578125|18720.91090616667|-1.172123193605675|0.08245154695566623|-0.1439665590736836|0.7314135432243347|0.8208194971084595|-0.1835982799530029|0.01122044026851654|-0.2054663300514221|0.06778973340988159|XArbitraryZVertical|-0.03713258264374748|0.07399221372911381|-0.5536525998128587|0.8286225931274371|0.08150614053010941|0.1434697508811951|-0.9862926602363586|0|0|0|-1|-1|3
2021-04-08 19:51:04.958 +0100|18720.95082816667|0.1129150390625|0.2207183837890625|-0.9900054931640625|18720.93086716667|-1.174368445988213|0.1012281465215557|-0.1346985555550751|0.1553570479154587|1.067235589027405|0.110662005841732|-0.09118414670228958|-0.1176443994045258|-0.03738546371459961|XArbitraryZVertical|-0.02798877522324478|0.07925976438712659|-0.5548896530986356|0.8276667430896101|0.1001399755477905|0.1342916041612625|-0.9858690500259399|0|0|0|-1|-1|3
2021-04-08 19:51:04.977 +0100|18720.97078916667|0.1260223388671875|0.052490234375|-0.9419097900390625|18720.95082816667|-1.168719519937517|0.1231627521066976|-0.1331530779021732|0.04511749371886253|1.051398038864136|0.4229616522789001|-0.02085885405540466|0.04944510757923126|0.0002264976501464844|XArbitraryZVertical|-0.02150736836993982|0.08784799626393827|-0.552814803771838|0.8283816663403772|0.1217641532421112|0.1327599585056305|-0.9836403131484985|0|0|0|-1|-1|3
2021-04-08 19:51:04.997 +0100|18720.99075016667|0.20513916015625|-0.0006866455078125|-0.8331451416015625|18720.97078916667|-1.159490150594575|0.1463288648394467|-0.1304117735476806|-0.06295992434024811|1.120000839233398|0.5549368262290955|-0.03568343818187714|-0.02356670796871185|0.01458817720413208|XArbitraryZVertical|-0.01440750258924796|0.09662465087119602|-0.5491688779476065|0.829981748276033|0.1445690840482712|0.1300424337387085|-0.9809122085571289|0|0|0|-1|-1|3
2021-04-08 19:51:05.017 +0100|18721.01071116667|0.2255706787109375|0.0619964599609375|-0.787689208984375|18720.99075016667|-1.14505388294694|0.1694539311212003|-0.1347986998294491|-0.5343867540359497|0.9789490103721619|0.7981964945793152|0.02088822424411774|-0.1585455983877182|0.1071367859840393|XArbitraryZVertical|-0.01066305349466969|0.1073248623498593|-0.5433792544839966|0.8325303957798718|0.1671142578125|0.1343908458948135|-0.9767353534698486|0|0|0|-1|-1|3
2021-04-08 19:51:05.038 +0100|18721.03067216667|0.2180328369140625|-0.0363006591796875|-0.6755218505859375|18721.01071116667|-1.125250215024284|0.1900969865461888|-0.1430288455363853|-0.5583227872848511|0.8597431778907776|0.9428070187568665|0.0568554699420929|-0.04871547222137451|0.205494225025177|XArbitraryZVertical|-0.009672712674490281|0.1180131600998275|-0.5353795876268911|0.836270436657908|0.1870246827602386|0.1425416767597198|-0.9719586372375488|0|0|0|-1|-1|3
2021-04-08 19:51:05.057 +0100|18721.05063316667|0.2343902587890625|0.3553924560546875|-0.68621826171875|18721.03067216667|-1.10321880457761|0.2101989017830485|-0.1502248232074136|-0.537971019744873|0.7386643290519714|1.094810962677002|-0.02863216400146484|-0.2420676946640015|0.2480109333992004|XArbitraryZVertical|-0.008737199029011104|0.1282040116322914|-0.5264021570379246|0.8404690566783829|0.2063044458627701|0.1496604233980179|-0.9669747948646545|0|0|0|-1|-1|3
2021-04-08 19:51:05.077 +0100|18721.07059416667|0.0218353271484375|0.29241943359375|-0.8094329833984375|18721.05063316667|-1.081305445092509|0.2220357522981511|-0.1443503618767848|0.7971612811088562|0.1353628486394882|1.097722053527832|0.05552619695663452|0.1321818977594376|0.2973828315734863|XArbitraryZVertical|-0.004572055463716995|0.1316285310764768|-0.5170452579524781|0.8457643349672412|0.2179255187511444|0.1438495814800262|-0.9653060436248779|0|0|0|-1|-1|3
2021-04-08 19:51:05.097 +0100|18721.09055516667|-0.0413818359375|0.2754669189453125|-1.05181884765625|18721.07059416667|-1.070941260621063|0.2238043350866096|-0.1140402417542409|1.762099742889404|-0.03702644258737564|0.5438472628593445|-0.1680098623037338|0.2388678938150406|0.2410347461700439|XArbitraryZVertical|0.008180103162032692|0.124778892964069|-0.511703579298757|0.8500134515413899|0.2204990535974503|0.1137932166457176|-0.968726634979248|0|0|0|-1|-1|3
2021-04-08 19:51:05.117 +0100|18721.11051616667|-0.06103515625|0.57012939453125|-1.0341796875|18721.09055516667|-1.071448770529835|0.2230505763313251|-0.07873461726084742|1.671910762786865|-0.007518777158111334|0.2529641389846802|-0.2410750091075897|0.1578579246997833|-0.02999156713485718|XArbitraryZVertical|0.02313476720913588|0.1155932557010134|-0.5106662988632097|0.8516590012709779|0.2205203622579575|0.07865329831838608|-0.9722059369087219|0|0|0|-1|-1|3
2021-04-08 19:51:05.137 +0100|18721.13047716667|-0.0342864990234375|0.5523834228515625|-1.025039672851562|18721.11051616667|-1.074486996521633|0.224035753548147|-0.04555126280427817|1.652038335800171|0.1180566698312759|0.192611038684845|-0.2877328395843506|0.471615344285965|-0.09028810262680054|XArbitraryZVertical|0.03774996257776112|0.1075928725193582|-0.5106174640241333|0.8522139243697093|0.2219358682632446|0.04553551226854324|-0.9739974141120911|0|0|0|-1|-1|3
2021-04-08 19:51:05.172 +0100|18721.15043816667|0.017547607421875|0.3726348876953125|-0.9912872314453125|18721.15043816667|-1.08297510125947|0.2304114786953473|0.007251147157731346|0.7118241190910339|0.1725556552410126|-0.04117704927921295|-0.2261454164981842|0.4320099353790283|-0.01668769121170044|XArbitraryZVertical|0.06233298677591721|0.09664958272022373|-0.5116342023162025|0.8514716959964983|0.2283721417188644|-0.007251083385199308|-0.9735469222068787|0|0|0|-1|-1|3
2021-04-08 19:51:05.178 +0100|18721.17039916667|0.0208892822265625|0.2873992919921875|-0.9920806884765625|18721.17039916667|-1.087177271045682|0.2334725181400203|0.01355823566458717|0.04324692115187645|0.1645815521478653|-0.2532627582550049|-0.2034134268760681|0.31539186835289|-0.01537996530532837|XArbitraryZVertical|0.06600123038233162|0.09619827456453374|-0.5130029824778791|0.8504222053712651|0.2313359528779984|-0.01355782058089972|-0.9727794528007507|0|0|0|-1|-1|3
2021-04-08 19:51:05.197 +0100|18721.19035916667|0.085906982421875|0.2360687255859375|-1.036727905273438||||||||||||||||||||||||3
2021-04-08 19:51:05.217 +0100|18721.21032016667|0.1845703125|0.2540283203125|-1.115676879882812|18721.19035916667|-1.09385730187512|0.2377127030190904|0.009020988395183836|-0.2413241565227509|0.2273646295070648|-0.4876441955566406|-0.1786174923181534|0.2454099655151367|-0.04789024591445923|XArbitraryZVertical|0.0654924534407474|0.09894919728755359|-0.5159351550349039|0.8483695379534876|0.2354706823825836|-0.009020865894854069|-0.9718396067619324|0|0|0|-1|-1|3
2021-04-08 19:51:05.237 +0100|18721.23028116667|0.271026611328125|0.140716552734375|-1.08624267578125|18721.21032016667|-1.104643669505279|0.2419087375624744|0.003190223948146507|-0.004127535503357649|0.2011701464653015|-0.6948232054710388|-0.07218238711357117|0.2644206285476685|-0.1245511770248413|XArbitraryZVertical|0.06465384414944673|0.1018876889322976|-0.5206674695378745|0.8451889467776896|0.2395550012588501|-0.003190218470990658|-0.9708775877952576|0|0|0|-1|-1|3
2021-04-08 19:51:05.257 +0100|18721.25024216667|0.3511199951171875|0.053497314453125|-1.031402587890625|18721.23028116667|-1.120409185117952|0.2457487780306972|0.001478424890826548|0.1174820959568024|0.1633639186620712|-0.8754352331161499|0.0006893277168273926|0.1841107904911041|-0.1325696706771851|XArbitraryZVertical|0.06574777951207197|0.1034410052510548|-0.5272763987751193|0.840807299057602|0.2432824075222015|-0.001478424295783043|-0.9699543714523315|0|0|0|-1|-1|3
2021-04-08 19:51:05.277 +0100|18721.27020316667|0.3898468017578125|0.1085662841796875|-0.9894256591796875|18721.25024216667|-1.137440244244712|0.2476734569911888|-0.003593504043859922|-0.2197593003511429|0.03194143623113632|-0.9004939794540405|0.09327614307403564|0.04647048562765121|-0.07944077253341675|XArbitraryZVertical|0.06501999520594702|0.1050372834959548|-0.5346159702025235|0.8360176111442431|0.2451474964618683|0.003593496279790998|-0.9694791436195374|0|0|0|-1|-1|3
2021-04-08 19:51:05.297 +0100|18721.29016416667|0.4205780029296875|0.16033935546875|-0.967987060546875|18721.27020316667|-1.152774806015539|0.2468034681813623|-0.01600286612797638|-0.5411410331726074|-0.1196367964148521|-0.8571767807006836|0.133868008852005|0.07411610335111618|-0.02139294147491455|XArbitraryZVertical|0.06042343823486132|0.1075264393231269|-0.5416626406877249|0.8314979250380271|0.2442742586135864|0.01600218378007412|-0.9695741534233093|0|0|0|-1|-1|3
2021-04-08 19:51:05.317 +0100|18721.31012516667|0.4952392578125|0.110382080078125|-1.047164916992188|18721.29016416667|-1.165757365177774|0.2422001050359987|-0.03110725351409079|-0.5929626822471619|-0.2923302054405212|-0.7765955924987793|0.1773138493299484|0.1400249451398849|0.004446148872375488|XArbitraryZVertical|0.05359637224382035|0.1093431969840702|-0.5479009405965223|0.8276329195461981|0.2397230714559555|0.03110223636031151|-0.9703429937362671|0|0|0|-1|-1|3
2021-04-08 19:51:05.337 +0100|18721.33008616667|0.4869232177734375|0.092254638671875|-1.133285522460938|18721.31012516667|-1.176916225736921|0.2350147909056307|-0.04496109438618793|-0.4517691433429718|-0.3931218087673187|-0.6397790312767029|0.2403993606567383|0.07224141061306|-0.04307478666305542|XArbitraryZVertical|0.04649069722071077|0.1098843205999316|-0.553304047629973|0.8243899911741548|0.2326220571994781|0.04494594782590866|-0.9715281128883362|0|0|0|-1|-1|3
2021-04-08 19:51:05.357 +0100|18721.35004716667|0.3809356689453125|0.0769805908203125|-1.170501708984375|18721.33008616667|-1.186914447977039|0.2252491089909333|-0.05326458753574456|-0.1246946454048157|-0.5196025967597961|-0.5443778038024902|0.2864269614219666|0.04568316414952278|-0.1449607610702515|XArbitraryZVertical|0.04089169645017405|0.1079343194967564|-0.5579714403785287|0.8217943551219221|0.2230324298143387|0.05323940515518188|-0.9733561277389526|0|0|0|-1|-1|3
2021-04-08 19:51:05.377 +0100|18721.37000816667|0.3186187744140625|0.05718994140625|-1.165512084960938|18721.35004716667|-1.197512235943236|0.2146880014018702|-0.05487256764622666|0.1787758320569992|-0.4598580598831177|-0.5324175953865051|0.1866605579853058|0.02128089591860771|-0.1913437843322754|XArbitraryZVertical|0.037831749751099|0.1038392258479193|-0.5625882247531532|0.8193173319600445|0.2127219438552856|0.05484503507614136|-0.9755723476409912|0|0|0|-1|-1|3
2021-04-08 19:51:05.397 +0100|18721.38996916667|0.30029296875|0.01812744140625|-1.154251098632812|18721.37000816667|-1.208974176067969|0.2059512979715463|-0.05166943992134287|0.3350536823272705|-0.3428447842597961|-0.5176795721054077|0.1319245547056198|0.01451548188924789|-0.192819356918335|XArbitraryZVertical|0.03726061414340877|0.09915332676901065|-0.5673255919650962|0.8166530343434828|0.2042255252599716|0.05164645239710808|-0.9775605201721191|0|0|0|-1|-1|3
2021-04-08 19:51:05.416 +0100|18721.40993016667|0.280548095703125|-0.0260772705078125|-1.144561767578125|18721.38996916667|-1.219587743349061|0.2000368997587771|-0.04837103629396405|0.1818159371614456|-0.2000448107719421|-0.442976325750351|0.1005828827619553|-0.01858246698975563|-0.1674190759658813|XArbitraryZVertical|0.03744276967663823|0.09561159834479263|-0.5716491829010694|0.8140477976335171|0.1984730809926987|0.04835217446088791|-0.9789129495620728|0|0|0|-1|-1|3
2021-04-08 19:51:05.436 +0100|18721.42989116667|0.1902618408203125|-0.049041748046875|-1.14251708984375|18721.40993016667|-1.227132812770392|0.1963630603513205|-0.04804736183639016|-0.001014866284094751|-0.1298342943191528|-0.2989685535430908|0.1017208695411682|-0.06395924836397171|-0.1692447066307068|XArbitraryZVertical|0.03687929498873385|0.09388574137000884|-0.574773874868112|0.8120717246230119|0.1948784291744232|0.04802887886762619|-0.9796507954597473|0|0|0|-1|-1|3
2021-04-08 19:51:05.456 +0100|18721.44985216667|0.138763427734375|-0.0915374755859375|-1.069808959960938|18721.42989116667|-1.231471799444097|0.1949258929862886|-0.04877156720755427|0.07962644845247269|0.04190123826265335|-0.1493396610021591|0.02037212252616882|-0.09945739805698395|-0.1615995168685913|XArbitraryZVertical|0.03637398037306374|0.09343022491529311|-0.5765845085383384|0.8108626788758172|0.1934635192155838|0.04875223338603973|-0.9798954725265503|0|0|0|-1|-1|3
2021-04-08 19:51:05.476 +0100|18721.46981316667|0.148773193359375|-0.193115234375|-0.9744873046875|18721.44985216667|-1.234149324690558|0.1983729418286275|-0.04441726453150235|0.4191987216472626|0.3234839141368866|-0.01806045696139336|-0.05129700899124146|-0.1193998157978058|-0.1202032566070557|XArbitraryZVertical|0.03926394402982011|0.09352833755901316|-0.5774592208357419|0.8100936183746387|0.1968800723552704|0.04440266266465187|-0.9794215559959412|0|0|0|-1|-1|3
2021-04-08 19:51:05.496 +0100|18721.48977416667|0.1978607177734375|-0.2515716552734375|-0.9105072021484375|18721.46981316667|-1.235822058570306|0.2076994785954498|-0.03295374142101099|0.7108745574951172|0.5998831391334534|0.09890388697385788|-0.06643474102020264|-0.1986889541149139|-0.01564538478851318|XArbitraryZVertical|0.04669023158752381|0.0939771400166803|-0.5775264625423888|0.8095996796277736|0.2060974091291428|0.03294777870178223|-0.9779766201972961|0|0|0|-1|-1|3
2021-04-08 19:51:05.516 +0100|18721.50973516667|0.2442169189453125|-0.260772705078125|-0.89251708984375|18721.48977416667|-1.23608750124244|0.2211467350588531|-0.01779182321197395|0.7627539038658142|0.7272615432739258|0.2020147293806076|-0.03755219280719757|-0.2640069127082825|0.05633300542831421|XArbitraryZVertical|0.05673191017080299|0.09505482231892733|-0.5766804946291888|0.8094354576118953|0.2193138599395752|0.01779088377952576|-0.9754921197891235|0|0|0|-1|-1|3
2021-04-08 19:51:05.536 +0100|18721.52969616667|0.1975250244140625|-0.281982421875|-0.91552734375|18721.50973516667|-1.234893236266768|0.2353978018353194|-0.002861830057065621|0.6779091358184814|0.6890490055084229|0.2517532706260681|0.006821364164352417|-0.2585383057594299|0.08748394250869751|XArbitraryZVertical|0.06682643439700232|0.09656808922582108|-0.5750860049919632|0.8096203853380253|0.2332288771867752|0.002861826214939356|-0.9724176526069641|0|0|0|-1|-1|3
2021-04-08 19:51:05.556 +0100|18721.54965716667|0.1458892822265625|-0.2722625732421875|-0.911529541015625|18721.52969616667|-1.233067526817191|0.2490357993874841|0.01008068566454919|0.5154679417610168|0.6768642663955688|0.2281039506196976|-0.03202635049819946|-0.2609157860279083|0.05876165628433228|XArbitraryZVertical|0.07589123661009228|0.09843719102393561|-0.573215842052644|0.8099224304881393|0.2464570999145508|-0.01008051447570324|-0.9691012501716614|0|0|0|-1|-1|3
2021-04-08 19:51:05.576 +0100|18721.56961816667|0.138092041015625|-0.2104949951171875|-0.8698883056640625|18721.54965716667|-1.231196400469989|0.2629319662149771|0.01916830855569377|0.3178777098655701|0.7093738317489624|0.1747934222221375|-0.1063016951084137|-0.2612743675708771|0.04542571306228638|XArbitraryZVertical|0.08344979833495854|0.1015322047476808|-0.5714120826542071|0.8100714118025736|0.2598651051521301|-0.01916713453829288|-0.9654546976089478|0|0|0|-1|-1|3
2021-04-08 19:51:05.596 +0100|18721.58957916667|0.16790771484375|-0.148193359375|-0.8258056640625|18721.56961816667|-1.229390099149213|0.2760791582517283|0.02740429485248278|0.2305160164833069|0.6991802453994751|0.1595246195793152|-0.1323778629302979|-0.2060588300228119|0.08382511138916016|XArbitraryZVertical|0.0904358062557442|0.1045762454499985|-0.5696296624471309|0.8101897564505446|0.2724830508232117|-0.02740086428821087|-0.9617703557014465|0|0|0|-1|-1|3
2021-04-08 19:51:05.616 +0100|18721.60954016667|0.1463623046875|-0.09991455078125|-0.8291015625|18721.58957916667|-1.227554131806453|0.288981946266043|0.03769978392950823|0.2570572197437286|0.6390816569328308|0.1752147376537323|-0.120956689119339|-0.1207108497619629|0.1174142956733704|XArbitraryZVertical|0.09816478418310981|0.1069437654468676|-0.5676374319693275|0.810379324773048|0.2847740352153778|-0.03769085556268692|-0.9578534364700317|0|0|0|-1|-1|3
2021-04-08 19:51:05.636 +0100|18721.62950116667|0.1228179931640625|-0.055267333984375|-0.86810302734375|18721.60954016667|-1.225568765884665|0.2998464451143847|0.04943261372197112|0.3807714581489563|0.5500380396842957|0.2013625204563141|-0.1436159908771515|-0.06444880366325378|0.1286529898643494|XArbitraryZVertical|0.1058693773666064|0.1080937780782844|-0.5655023846946019|0.8107493728650013|0.2950126826763153|-0.04941248521208763|-0.9542148113250732|0|0|0|-1|-1|3
2021-04-08 19:51:05.663 +0100|18721.64946216667|0.1338348388671875|-0.0130462646484375|-0.9381561279296875|18721.62950116667|-1.224946115673283|0.3096058626981023|0.05948903304562981|0.5474843978881836|0.4349747598171234|0.1504682004451752|-0.1756662726402283|-0.00651000440120697|0.09375870227813721|XArbitraryZVertical|0.1126440794401045|0.1092101853528049|-0.5640148902185432|0.8107230024730909|0.3041442930698395|-0.05945394933223724|-0.9507688879966736|0|0|0|-1|-1|3
2021-04-08 19:51:05.678 +0100|18721.66942316667|0.135528564453125|-0.0504608154296875|-0.9311981201171875|18721.66942316667|-1.229348369148736|0.3228855957420225|0.08235787472641443|0.4821628928184509|0.2736704349517822|-0.02922851219773293|-0.1927709877490997|0.04970232397317886|0.005076169967651367|XArbitraryZVertical|0.1258150883482946|0.1077768663540227|-0.5633046610036877|0.8094705817935187|0.3162288665771484|-0.08226480334997177|-0.9451094269752502|0|0|0|-1|-1|3
2021-04-08 19:51:05.696 +0100|18721.68938416667|0.2117462158203125|-0.100555419921875|-0.8780364990234375||||||||||||||||||||||||3
2021-04-08 19:51:05.716 +0100|18721.70934516667|0.2524871826171875|-0.0420989990234375|-0.8928985595703125|18721.68938416667|-1.232409147798428|0.3275650754289637|0.08675606347696252|0.001340782968327403|0.1646390855312347|-0.1067155748605728|-0.1259188652038574|-0.008735641837120056|0.05412238836288452|XArbitraryZVertical|0.1290606878695865|0.1082106421822773|-0.5639011430206196|0.8084858665693078|0.3205284774303436|-0.08664727210998535|-0.9432675838470459|0|0|0|-1|-1|3
2021-04-08 19:51:05.736 +0100|18721.729305|0.28741455078125|0.04364013671875|-0.923614501953125|18721.70934516667|-1.23365363445882|0.3296603907722295|0.08215457904771539|-0.3342944383621216|0.04530001431703568|-0.1531404256820679|-0.07461452484130859|0.02001973986625671|0.05570805072784424|XArbitraryZVertical|0.1278787772456935|0.1103015577408508|-0.5646316109939157|0.807881072306464|0.3226298689842224|-0.08206219226121902|-0.9429611563682556|0|0|0|-1|-1|3
2021-04-08 19:51:05.756 +0100|18721.749266|0.30419921875|0.03778076171875|-0.9436492919921875|18721.729305|-1.235015411990524|0.3301211595780992|0.07467048470406891|-0.2625508308410645|-0.004661311861127615|-0.2103180438280106|-0.04748329520225525|0.1033942326903343|0.03333252668380737|XArbitraryZVertical|0.1250908014290003|0.112555714185024|-0.5657367551481012|0.8072333095958896|0.3232543766498566|-0.07460111379623413|-0.9433670043945312|0|0|0|-1|-1|3
2021-04-08 19:51:05.776 +0100|18721.769227|0.322662353515625|-0.0131683349609375|-0.9722137451171875|18721.749266|-1.238625592156715|0.3297202212120647|0.07055662907204867|-0.01176819484680891|-0.0498814657330513|-0.2612707912921906|-0.01648572087287903|0.1233848407864571|0.006675362586975098|XArbitraryZVertical|0.123536081742542|0.1133551161044156|-0.5675355269785851|0.8060973387685922|0.3229727447032928|-0.07049810141324997|-0.943778932094574|0|0|0|-1|-1|3
2021-04-08 19:51:05.796 +0100|18721.789188|0.363311767578125|-0.0447235107421875|-0.975738525390625|18721.769227|-1.244111140767039|0.3290617054372051|0.06982563936720818|0.08130008727312088|-0.06354960799217224|-0.2783122658729553|-0.009304165840148926|0.07080627977848053|-0.02019381523132324|XArbitraryZVertical|0.12336729778523|0.1129626304649835|-0.5698410645048381|0.8045503443871802|0.3223677575588226|-0.06976891309022903|-0.9440398812294006|0|0|0|-1|-1|3
2021-04-08 19:51:05.816 +0100|18721.809149|0.3746795654296875|-0.0208892822265625|-0.9823150634765625|18721.789188|-1.249377616385268|0.3263628233035376|0.06897093273528437|-0.0432172603905201|-0.1255762726068497|-0.262803703546524|0.03527909517288208|0.02954834699630737|-0.03053206205368042|XArbitraryZVertical|0.1225519745975728|0.1118020369769021|-0.5721888583348622|0.8031695280575465|0.3198377192020416|-0.06891626119613647|-0.9449626207351685|0|0|0|-1|-1|3
2021-04-08 19:51:05.836 +0100|18721.82911|0.3760833740234375|0.0227203369140625|-1.004241943359375|18721.809149|-1.252968040016843|0.3229410927083322|0.063817779008494|-0.1757297217845917|-0.1646391600370407|-0.1968923509120941|0.05381724238395691|0.0298234224319458|-0.03880834579467773|XArbitraryZVertical|0.119719981726478|0.111710644981406|-0.5742238409508776|0.8021564061072031|0.3167109489440918|-0.0637744665145874|-0.9463757276535034|0|0|0|-1|-1|3
2021-04-08 19:51:05.856 +0100|18721.849071|0.35504150390625|0.0213775634765625|-1.009674072265625|18721.82911|-1.254737905532025|0.3191221565208577|0.05771209254568371|-0.09052584320306778|-0.2018967866897583|-0.09287983179092407|0.0688682496547699|0.07397620379924774|-0.05298548936843872|XArbitraryZVertical|0.1162904100398038|0.1118541510009369|-0.5756074544828966|0.8016491956322022|0.3132108449935913|-0.05768005922436714|-0.9479303956031799|0|0|0|-1|-1|3
2021-04-08 19:51:05.876 +0100|18721.869032|0.3747711181640625|-0.01397705078125|-1.008453369140625|18721.849071|-1.25578550908594|0.3156181704082165|0.05648806147181907|0.1334121078252792|-0.1340717673301697|-0.009917132556438446|0.04600116610527039|0.0831606537103653|-0.06136411428451538|XArbitraryZVertical|0.11485229816168|0.1107462289971704|-0.5763181830748888|0.8014996602789066|0.3099090754985809|-0.05645802617073059|-0.949088454246521|0|0|0|-1|-1|3
2021-04-08 19:51:05.896 +0100|18721.888993|0.38775634765625|0.0010528564453125|-0.9781036376953125|18721.888993|-1.256851317148412|0.315002400150055|0.0641237431274421|0.2086951434612274|0.01150567457079887|0.08975699543952942|0.07855808734893799|0.05735043436288834|-0.02697360515594482|XArbitraryZVertical|0.1177719616284755|0.1082081107931304|-0.5762295491856758|0.8014863078149406|0.3091820180416107|-0.06407980620861053|-0.9488415122032166|0|0|0|-1|-1|3
2021-04-08 19:51:05.916 +0100|18721.908954|0.3956146240234375|0.001220703125|-0.940673828125||||||||||||||||||||||||3
2021-04-08 19:51:05.936 +0100|18721.928915|0.3801116943359375|-0.0077972412109375|-0.918304443359375|18721.908954|-1.256346855879916|0.3168634666215274|0.06715680308204804|0.1838433295488358|0.05665674433112144|0.09750351309776306|0.08160024881362915|0.07168372720479965|-0.00474470853805542|XArbitraryZVertical|0.1194870128077534|0.1080977786343986|-0.5756951901752725|0.8016313760131207|0.3108853399753571|-0.06710633635520935|-0.9480754733085632|0|0|0|-1|-1|3
2021-04-08 19:51:05.955 +0100|18721.948876|0.362945556640625|0.01141357421875|-0.9440460205078125|18721.928915|-1.255637380761633|0.3186365233616676|0.06866219522225446|0.1100425124168396|0.06934463232755661|0.07265994697809219|0.07107111811637878|0.06465597450733185|0.02231556177139282|XArbitraryZVertical|0.1205574464333215|0.1084114167913141|-0.5751932562338492|0.8017890808324468|0.3125338554382324|-0.06860825419425964|-0.9474257230758667|0|0|0|-1|-1|3
2021-04-08 19:51:05.975 +0100|18721.968837|0.3611297607421875|0.0058746337890625|-0.96795654296875|18721.948876|-1.255274043522285|0.3204575167057458|0.06957353405987629|0.1468629986047745|0.08729752898216248|0.0199108924716711|0.0506589412689209|0.07522396743297577|0.02263116836547852|XArbitraryZVertical|0.1214236862170873|0.1088973605478147|-0.5748696618991059|0.8018245995120015|0.3142387568950653|-0.06951741874217987|-0.9467952847480774|0|0|0|-1|-1|3
2021-04-08 19:51:05.996 +0100|18721.988798|0.350250244140625|-0.0190277099609375|-0.9688262939453125|18721.968837|-1.256621574412739|0.3234401278032311|0.07120573285843514|0.15623739361763|0.1037850007414818|-0.04793091863393784|0.04807126522064209|0.08536653220653534|-0.01543694734573364|XArbitraryZVertical|0.1230035252701575|0.1095337153820408|-0.5751050500980388|0.8013280982612777|0.3170247972011566|-0.07114557921886444|-0.9457449913024902|0|0|0|-1|-1|3
2021-04-08 19:51:06.015 +0100|18722.008759|0.345367431640625|-0.0640411376953125|-0.9274139404296875|18721.988798|-1.259049246694695|0.3272461029172545|0.07196740939212523|0.1133692115545273|0.1388568580150604|-0.09057912975549698|0.03011780977249146|0.06072036921977997|-0.02407199144363403|XArbitraryZVertical|0.1245346502534359|0.1106848372731256|-0.5757839045942442|0.8004454867697195|0.3206044435501099|-0.07190530002117157|-0.9444800019264221|0|0|0|-1|-1|3
2021-04-08 19:51:06.035 +0100|18722.02872|0.344696044921875|-0.072479248046875|-0.9038238525390625|18722.008759|-1.26103469106899|0.3317919944114539|0.07033102871805896|-0.09486193209886551|0.1583248376846313|-0.08407489955425262|0.0232110321521759|0.01390685141086578|0.008353769779205322|XArbitraryZVertical|0.1253061240536802|0.1128582685697058|-0.5764194271969995|0.7995637088299591|0.3249325156211853|-0.07027306407690048|-0.9431227445602417|0|0|0|-1|-1|3
2021-04-08 19:51:06.055 +0100|18722.048681|0.3521575927734375|-0.0496826171875|-0.90447998046875|18722.02872|-1.261232060630568|0.3362150390000073|0.06466496822032348|-0.2913295030593872|0.1753070205450058|-0.06245490908622742|0.01244693994522095|-0.01388680934906006|0.03532904386520386|XArbitraryZVertical|0.1243467291245776|0.116272657707937|-0.5766579767763812|0.7990520676215803|0.3292268812656403|-0.06461991369724274|-0.9420371055603027|0|0|0|-1|-1|3
2021-04-08 19:51:06.075 +0100|18722.068642|0.3570404052734375|-0.048919677734375|-0.9124755859375|18722.048681|-1.260394323234936|0.3403914499467516|0.05757906469999716|-0.2363639771938324|0.1879126578569412|-0.04426410049200058|0.01416930556297302|0.001699838787317276|0.03453695774078369|XArbitraryZVertical|0.1226923215973844|0.1200651281492825|-0.5766098833223764|0.7987815810667522|0.3333028256893158|-0.05754725262522697|-0.9410619139671326|0|0|0|-1|-1|3
2021-04-08 19:51:06.095 +0100|18722.088603|0.3736114501953125|-0.05670166015625|-0.91632080078125|18722.068642|-1.26018737964039|0.3442398366506891|0.05360970876690246|-0.0547269806265831|0.1807499378919601|-0.03908868879079819|0.02265232801437378|0.006312042474746704|0.02672576904296875|XArbitraryZVertical|0.122215320543868|0.122774046036645|-0.5765966588705878|0.7984524444702336|0.3369963765144348|-0.0535840317606926|-0.9399799108505249|0|0|0|-1|-1|3
2021-04-08 19:51:06.115 +0100|18722.108564|0.38970947265625|-0.086822509765625|-0.9236297607421875|18722.088603|-1.261143908339009|0.3478321470340027|0.05365272152216383|0.09812732040882111|0.1582652926445007|-0.04532581195235252|0.02999025583267212|0.001212805509567261|0.02642250061035156|XArbitraryZVertical|0.1233271969196991|0.1241364659127117|-0.5767545614897234|0.7979567165645147|0.3403700888156891|-0.05362698435783386|-0.9387610554695129|0|0|0|-1|-1|3
2021-04-08 19:51:06.135 +0100|18722.128525|0.3578338623046875|-0.1292877197265625|-0.9316558837890625|18722.108564|-1.262796496769898|0.3508471899647299|0.05580971111186427|0.09316409379243851|0.1107295677065849|-0.04744071885943413|0.04502421617507935|-0.02403824031352997|0.02073407173156738|XArbitraryZVertical|0.1251539068068418|0.1246058356243995|-0.5770579600008655|0.7973795120024061|0.3431583940982819|-0.05578074231743813|-0.9376197457313538|0|0|0|-1|-1|3
2021-04-08 19:51:06.172 +0100|18722.148486|0.3394012451171875|-0.156982421875|-0.9242095947265625|18722.148486|-1.26522654336643|0.3554788919273817|0.05543146474027558|-0.1137524545192719|0.08162031322717667|-0.08344656229019165|-0.004259288311004639|-0.09826843440532684|0.00909876823425293|XArbitraryZVertical|0.1264939938281771|0.1264090957676323|-0.5777646526474647|0.7963717909807649|0.3475047945976257|-0.05540308356285095|-0.9360400438308716|0|0|0|-1|-1|3
2021-04-08 19:51:06.175 +0100|18722.168447|0.3058624267578125|-0.11871337890625|-0.9129486083984375||||||||||||||||||||||||3
2021-04-08 19:51:06.195 +0100|18722.188408|0.266754150390625|-0.050628662109375|-0.9165191650390625|18722.168447|-1.266071108851065|0.3571580182186554|0.05174611422506723|-0.1706970483064651|0.03239860013127327|-0.1197567284107208|-0.03049671649932861|-0.08617091178894043|0.02086013555526733|XArbitraryZVertical|0.1255763628598106|0.1281034891176777|-0.5782869789919307|0.7958670689239595|0.3491450548171997|-0.05172302573919296|-0.9356401562690735|0|0|0|-1|-1|3
2021-04-08 19:51:06.216 +0100|18722.208369|0.26513671875|-0.0581512451171875|-0.930877685546875|18722.208369|-1.273152470362523|0.3587916550542907|0.05099582391814585|0.207431361079216|-0.04840005561709404|-0.273242324590683|-0.07966095209121704|0.006784006953239441|0.007690310478210449|XArbitraryZVertical|0.1262080465822887|0.1285271555337731|-0.5810575645443695|0.7936779036369475|0.3506866097450256|-0.05097372457385063|-0.9351046085357666|0|0|0|-1|-1|3
2021-04-08 19:51:06.235 +0100|18722.22833|0.225341796875|-0.1316986083984375|-0.9349365234375||||||||||||||||||||||||3
2021-04-08 19:51:06.255 +0100|18722.248291|0.1370391845703125|-0.1720123291015625|-0.932830810546875|18722.22833|-1.281111296850576|0.358388211526245|0.05471103045163129|0.2204089611768723|-0.03442783653736115|-0.4132316410541534|-0.1200931072235107|-0.05971166491508484|0.005420148372650146|XArbitraryZVertical|0.1280604309801653|0.1267652323543818|-0.5839426481682838|0.7915442324591883|0.3502404689788818|-0.05468374118208885|-0.9350622296333313|0|0|0|-1|-1|3
2021-04-08 19:51:06.275 +0100|18722.268252|-0.1219329833984375|-0.1351776123046875|-0.798248291015625|18722.248291|-1.2919099158642|0.3575083036538269|0.0557591495986522|0.04918515309691429|-0.09600683301687241|-0.6683160662651062|-0.1733271181583405|-0.1137799173593521|-0.008532166481018066|XArbitraryZVertical|0.1288943287663342|0.12541271347443|-0.5881815506219995|0.7884798008249263|0.3493973016738892|-0.05573026090860367|-0.9353157877922058|0|0|0|-1|-1|3
2021-04-08 19:51:06.295 +0100|18722.288213|-0.693359375|-0.0279083251953125|-0.5001068115234375|18722.268252|-1.307351905952466|0.3536563180106783|0.04858940281675814|-0.2344699203968048|-0.4111894369125366|-1.05439817905426|-0.3834437131881714|-0.104078933596611|0.09218704700469971|XArbitraryZVertical|0.1259234651558302|0.1250620745265257|-0.5950572158117979|0.78384304787217|0.3459213972091675|-0.04857028648257256|-0.9370055198669434|0|0|0|-1|-1|3
2021-04-08 19:51:06.315 +0100|18722.308174|-1.47076416015625|-0.006317138671875|-0.1609649658203125|18722.288213|-1.328763336386|0.3386937801090795|0.03327349641659615|-0.4700846970081329|-1.205689191818237|-1.520554780960083|-0.8480789065361023|-0.02212236821651459|0.3518772721290588|XArbitraryZVertical|0.1168119726452217|0.1225612271646292|-0.6054608511415042|0.7776574730225717|0.332071453332901|-0.03326735645532608|-0.9426674246788025|0|0|0|-1|-1|3
2021-04-08 19:51:06.335 +0100|18722.328135|-2.064468383789062|-0.0370025634765625|0.1075897216796875|18722.308174|-1.360770272686241|0.3094941271844489|0.01081383793164908|-0.6122023463249207|-1.640182375907898|-2.295272588729858|-1.576837778091431|0.01357512176036835|0.7172633409500122|XArbitraryZVertical|0.1011134193589237|0.1164475537490851|-0.6209182422325621|0.76855499957647|0.3045590221881866|-0.0108136273920536|-0.9524320960044861|0|0|0|-1|-1|3
2021-04-08 19:51:06.354 +0100|18722.348096|-1.97247314453125|0.1559295654296875|-0.004302978515625|18722.328135|-1.408484108306114|0.279541002735831|-0.01946087393622932|-0.9840600490570068|-1.369339227676392|-3.141338586807251|-2.245681285858154|-0.0586446151137352|1.033067226409912|XArbitraryZVertical|0.08285349200744543|0.1124064324142485|-0.6421451172976494|0.753757233751683|0.2758622467517853|0.01945964619517326|-0.9610002040863037|0|0|0|-1|-1|3
2021-04-08 19:51:06.375 +0100|18722.368056|-1.658370971679688|0.37384033203125|-0.2314605712890625|18722.348096|-1.470432093340904|0.2464888112507866|-0.06175410219938953|-1.426166176795959|-1.879230380058289|-3.945820808410645|-2.303381204605103|0.01467018574476242|1.023987054824829|XArbitraryZVertical|0.05969367849697883|0.1116842858701729|-0.668157347164279|0.7331638411687227|0.2435352951288223|0.06171485781669617|-0.967926561832428|0|0|0|-1|-1|3
2021-04-08 19:51:06.394 +0100|18722.388017|-1.552474975585938|0.351806640625|-0.126190185546875|18722.368056|-1.549822450391697|0.1887961687666648|-0.1081187000586967|-1.374634981155396|-3.313785552978516|-4.799195766448975|-1.893795967102051|0.2386336624622345|0.7733397483825684|XArbitraryZVertical|0.02741766400574275|0.104883361407243|-0.6991590162775494|0.7066998384634775|0.1865807175636292|0.1079081818461418|-0.9764955043792725|0|0|0|-1|-1|3
2021-04-08 19:51:06.414 +0100|18722.407978|-1.418624877929688|0.67962646484375|-0.0458526611328125|18722.388017|-1.647945831860596|0.0940811336096273|-0.152444038197403|-1.757758021354675|-4.866981983184814|-5.436703205108643|-1.678730249404907|0.1971898972988129|0.8192825317382812|XArbitraryZVertical|-0.01726330557006206|0.08767023426947053|-0.7333427394922841|0.6739618433212089|0.09285294264554977|0.1518542766571045|-0.9840317964553833|0|0|0|-1|-1|3
2021-04-08 19:51:06.434 +0100|18722.427939|-1.659378051757812|1.415420532226562|-0.322601318359375|18722.407978|-1.762529467672768|-0.03858495218072366|-0.2002550072484816|-2.666139125823975|-6.352988719940186|-6.012605667114258|-1.390693664550781|0.3465054631233215|0.9583207964897156|XArbitraryZVertical|-0.07839000778027806|0.06489822673455667|-0.7663101257849229|0.6343596246890616|-0.03780448436737061|0.1989192515611649|-0.9792864322662354|0|0|0|-1|-1|3
2021-04-08 19:51:06.454 +0100|18722.4479|-1.888351440429688|1.763916015625|-0.5539703369140625|18722.427939|-1.898880508315493|-0.2049892367942122|-0.2410334317909512|-2.806551694869995|-7.118219375610352|-6.804235458374023|-1.358938694000244|0.9909986853599548|0.7151340246200562|XArbitraryZVertical|-0.1522084609094461|0.03811124061217239|-0.7957952429345847|0.5848847752405424|-0.1976721733808517|0.2387063056230545|-0.9507602453231812|0|0|0|-1|-1|3
2021-04-08 19:51:06.474 +0100|18722.467861|-2.163909912109375|1.726409912109375|-0.7737274169921875|18722.4479|-2.058395680230859|-0.3870050881101351|-0.2479847596917026|-2.503499746322632|-7.196009635925293|-7.774645328521729|-1.494542121887207|1.486207246780396|0.389154851436615|XArbitraryZVertical|-0.2260770455027572|0.005627996950862268|-0.8221778291063838|0.5223804072532043|-0.3658711612224579|0.2454508692026138|-0.8977149724960327|0|0|0|-1|-1|3
2021-04-08 19:51:06.494 +0100|18722.487822|-2.779953002929688|2.036407470703125|-1.225555419921875|18722.467861|-2.231354453199479|-0.5696933871189914|-0.2228602033548742|-3.254583597183228|-6.992630004882812|-8.239378929138184|-1.548901677131653|1.51837420463562|0.1221601366996765|XArbitraryZVertical|-0.297750817667692|-0.02690166370402278|-0.8429332629619387|0.4473079338767951|-0.5260347723960876|0.2210199981927872|-0.8212414979934692|0|0|0|-1|-1|3
2021-04-08 19:51:06.514 +0100|18722.507783|-2.9468994140625|2.340576171875|-1.558441162109375|18722.487822|-2.413728549787978|-0.7385643832169975|-0.1859718870398259|-4.66035270690918|-6.028694152832031|-8.137293815612793|-1.947436332702637|1.71779191493988|-0.3723894953727722|XArbitraryZVertical|-0.3666712708356572|-0.04700316810900139|-0.8558119097223975|0.3618411268299381|-0.6616186499595642|0.1849017441272736|-0.7266857624053955|0|0|0|-1|-1|3
2021-04-08 19:51:06.534 +0100|18722.527744|-2.357666015625|2.136947631835938|-1.449081420898438|18722.507783|-2.599746781542686|-0.8725775157831406|-0.1388712973102453|-5.254121780395508|-4.36976432800293|-7.935475826263428|-2.246680736541748|2.162308931350708|-0.8738477826118469|XArbitraryZVertical|-0.4230119714612085|-0.05223121786694007|-0.863316902528235|0.2702164104185777|-0.7586142420768738|0.1384253650903702|-0.6366655230522156|0|0|0|-1|-1|3
2021-04-08 19:51:06.554 +0100|18722.547705|-1.849288940429688|2.094284057617188|-1.365325927734375|18722.527744|-2.778602570587448|-0.9667121232651014|-0.07945965223817433|-5.360098838806152|-3.174437999725342|-7.560030937194824|-1.707772493362427|2.142714500427246|-0.9469520449638367|XArbitraryZVertical|-0.4631070778429885|-0.04923043721123697|-0.8668775713313754|0.177852589962134|-0.820425808429718|0.07937606424093246|-0.5662164092063904|0|0|0|-1|-1|3
2021-04-08 19:51:06.574 +0100|18722.567666|-1.475845336914062|2.135345458984375|-1.425979614257812|18722.547705|-2.948660839451311|-1.029213864226929|-0.01293986421629127|-5.253079414367676|-2.307804822921753|-7.290611267089844|-1.085316300392151|2.054075956344604|-0.8479844927787781|XArbitraryZVertical|-0.4904365949306523|-0.04179946075452994|-0.8661143688849858|0.08700995310617519|-0.8568223118782043|0.01293950341641903|-0.5154495239257812|0|0|0|-1|-1|3
2021-04-08 19:51:06.594 +0100|18722.587627|-1.182525634765625|1.656723022460938|-1.4173583984375|18722.567666|-3.104905429072149|-1.063499829054355|0.06372014876689461|-4.350215911865234|-1.521597981452942|-7.18442440032959|-0.701305627822876|2.230332612991333|-0.9250213503837585|XArbitraryZVertical|-0.5061961806131224|-0.03674735379364815|-0.8616351621842848|-0.0003471116613865188|-0.8722873330116272|-0.06367703527212143|-0.4848301112651825|0|0|0|-1|-1|3
2021-04-08 19:51:06.614 +0100|18722.607588|-1.020004272460938|1.239089965820312|-1.338973999023438|18722.587627|3.041813592055092|-1.073139611101858|0.1509002231005764|-3.557391881942749|-0.916985034942627|-6.933158874511719|-0.3680978417396545|1.953153252601624|-0.966808557510376|XArbitraryZVertical|-0.5123330493275597|-0.03928480833480883|-0.8540342094590537|-0.08122357713967811|-0.8687182068824768|-0.1503281891345978|-0.4719431102275848|0|0|0|-1|-1|3
