loggingTime(txt)|accelerometerTimestamp_sinceReboot(s)|accelerometerAccelerationX(G)|accelerometerAccelerationY(G)|accelerometerAccelerationZ(G)|motionTimestamp_sinceReboot(s)|motionYaw(rad)|motionRoll(rad)|motionPitch(rad)|motionRotationRateX(rad/s)|motionRotationRateY(rad/s)|motionRotationRateZ(rad/s)|motionUserAccelerationX(G)|motionUserAccelerationY(G)|motionUserAccelerationZ(G)|motionAttitudeReferenceFrame(txt)|motionQuaternionX(R)|motionQuaternionY(R)|motionQuaternionZ(R)|motionQuaternionW(R)|motionGravityX(G)|motionGravityY(G)|motionGravityZ(G)|motionMagneticFieldX(µT)|motionMagneticFieldY(µT)|motionMagneticFieldZ(µT)|motionHeading(°)|motionMagneticFieldCalibrationAccuracy(Z)|label
2021-04-22 20:18:15.302 +0100|136365.6617325|0.062896728515625|-0.2068939208984375|-0.978118896484375|136365.6417695|-0.02191503693097344|0.08927404085737455|0.2581656937646926|0.05354847013950348|-0.01401201449334621|0.01582360081374645|-0.07860255241394043|0.1089765429496765|-0.003482341766357422|XArbitraryZVertical|0.1290735962114312|0.04283922921343851|-0.005111682463533085|0.9906961369597852|0.08620088547468185|-0.2553074657917023|-0.9630095958709717|0|0|0|-1|-1|3
2021-04-22 20:18:15.306 +0100|136365.6816945|0.0615692138671875|-0.260162353515625|-0.9703216552734375|136365.6617325|-0.0211815019751786|0.08819366391721835|0.2592577721163792|0.08243899047374725|0.01829218119382858|0.02504275366663933|-0.009376473724842072|-0.01341131329536438|-0.008245766162872314|XArbitraryZVertical|0.1295961745841523|0.04234256136954698|-0.00479342858515589|0.9906508910030091|0.0851358100771904|-0.2563632130622864|-0.9628238677978516|0|0|0|-1|-1|3
2021-04-22 20:18:15.307 +0100|136365.7016565|0.0785675048828125|-0.274261474609375|-0.9667816162109375|136365.6816945|-0.02085124615786577|0.08954990303980243|0.261784029422301|0.08967067301273346|0.03463690727949142|0.03362665697932243|-0.008625112473964691|0.01648026704788208|-0.0175093412399292|XArbitraryZVertical|0.1308433292872368|0.04301534702853144|-0.004484201471692672|0.9904593164816879|0.08638335764408112|-0.2588042020797729|-0.9620593786239624|0|0|0|-1|-1|3
2021-04-22 20:18:15.308 +0100|136365.7216195|0.0869903564453125|-0.276397705078125|-0.9655303955078125|136365.7016565|-0.02043642943770606|0.09027807040111371|0.2637165719983922|0.06488180160522461|0.03745937719941139|0.01836576499044895|-0.01352231949567795|-0.006952583789825439|-0.004202187061309814|XArbitraryZVertical|0.1317928092482594|0.04338760028498017|-0.004186621370333964|0.9903185251192443|0.08703862130641937|-0.2606704235076904|-0.9614963531494141|0|0|0|-1|-1|3
2021-04-22 20:18:15.308 +0100|136365.7415815|0.099761962890625|-0.2664031982421875|-0.9718475341796875|136365.7216195|-0.01992614203414337|0.08973953906841502|0.263085233436017|0.02326787821948528|0.02815738320350647|0.004589943215250969|-0.0006443634629249573|-0.01769399642944336|-0.00505983829498291|XArbitraryZVertical|0.1314680874371072|0.0431595392651315|-0.003983880220182709|0.9903724631962101|0.08653554320335388|-0.2600608766078949|-0.961706817150116|0|0|0|-1|-1|3
2021-04-22 20:18:15.326 +0100|136365.7615445|0.1040802001953125|-0.26727294921875|-0.9686431884765625|136365.7415815|-0.01999907154335186|0.09049447120606487|0.2638295874671515|0.01439790520817041|0.01536467764526606|-0.001149789895862341|0.005589902400970459|-0.008521944284439087|-0.00986558198928833|XArbitraryZVertical|0.1318397005401568|0.0435226766150594|-0.003953192603057039|0.9903073150025661|0.08724402636289597|-0.2607795298099518|-0.9614481329917908|0|0|0|-1|-1|3
2021-04-22 20:18:15.345 +0100|136365.7815065|0.1024169921875|-0.2617340087890625|-0.9676971435546875|136365.7615445|-0.01998105915147345|0.09028977390145713|0.2632193476473114|-0.002743947319686413|-0.001131901517510414|-0.005860478617250919|0.01772001385688782|-0.003572165966033936|-0.009521603584289551|XArbitraryZVertical|0.131536776635743|0.04342733683931298|-0.003971816842650003|0.9903516610489207|0.08706154674291611|-0.2601903676986694|-0.9616242647171021|0|0|0|-1|-1|3
2021-04-22 20:18:15.365 +0100|136365.8014695|0.099609375|-0.258026123046875|-0.962738037109375|136365.7815065|-0.02010976637091869|0.08972175109774924|0.2630016800182728|-0.01955363713204861|-0.01983682624995708|-0.01914183795452118|0.01894781738519669|-0.004163831472396851|-0.006882965564727783|XArbitraryZVertical|0.1314306412300799|0.04313932134431767|-0.004077890150878057|0.9903779486138232|0.08652038127183914|-0.259980171918869|-0.9617299437522888|0|0|0|-1|-1|3
2021-04-22 20:18:15.385 +0100|136365.8214315|0.0920867919921875|-0.25537109375|-0.9638519287109375|136365.8014695|-0.02059195244732832|0.08927042370935157|0.2626263525033452|-0.04195233434438705|-0.02670037746429443|-0.03021508455276489|0.01603151857852936|-0.002344250679016113|-0.002977967262268066|XArbitraryZVertical|0.1312542163951837|0.04288714915541659|-0.004354878762306225|0.9904111535914388|0.08609501272439957|-0.2596177458763123|-0.961866021156311|0|0|0|-1|-1|3
2021-04-22 20:18:15.405 +0100|136365.8413945|0.0897216796875|-0.257568359375|-0.9683074951171875|136365.8214315|-0.02119581802799586|0.08898958857250655|0.2618343264968671|-0.05540531128644943|-0.02033483795821667|-0.03357146680355072|0.008943922817707062|0.0004765987396240234|-0.001833796501159668|XArbitraryZVertical|0.130874329554326|0.04271490656682458|-0.004690358744805393|0.9904673074122097|0.08584313094615936|-0.2588527798652649|-0.9620946645736694|0|0|0|-1|-1|3
2021-04-22 20:18:15.425 +0100|136365.8613565|0.08770751953125|-0.2521820068359375|-0.97125244140625|136365.8413945|-0.02180423358700366|0.08916310873643357|0.2606951728454593|-0.05737485364079475|-0.00589230190962553|-0.03037824854254723|0.004188396036624908|0.0002611279487609863|-0.00302046537399292|XArbitraryZVertical|0.1303236560866447|0.04277048083400146|-0.005006285058305397|0.9905359778141107|0.08603627234697342|-0.2577522993087769|-0.9623728394508362|0|0|0|-1|-1|3
2021-04-22 20:18:15.445 +0100|136365.8813195|0.083984375|-0.2492523193359375|-0.9611358642578125|136365.8613565|-0.02236137644626077|0.08962190541573491|0.2598276204197316|-0.03727993741631508|0.004310800693929195|-0.02809476479887962|0.003620080649852753|0.002077817916870117|-0.01013141870498657|XArbitraryZVertical|0.1299071499291947|0.04296872517273061|-0.005272215670288899|0.9905807458915392|0.08649778366088867|-0.256913959980011|-0.9625556468963623|0|0|0|-1|-1|3
2021-04-22 20:18:15.465 +0100|136365.9012815|0.07904052734375|-0.2470245361328125|-0.95269775390625|136365.8813195|-0.02296277472889729|0.09021317336064244|0.2592929305064411|-0.02170771732926369|0.01093424111604691|-0.02542610093951225|-0.0003946274518966675|0.00470435619354248|-0.004171431064605713|XArbitraryZVertical|0.1296569097936153|0.04322710636321241|-0.005544022920708673|0.9906008378541137|0.087079256772995|-0.2563971877098083|-0.9626410007476807|0|0|0|-1|-1|3
2021-04-22 20:18:15.484 +0100|136365.9212445|0.07965087890625|-0.263397216796875|-0.9574432373046875|136365.9012815|-0.02347771139099312|0.09077773992942284|0.2589803289014742|-0.01156079117208719|0.01136881578713655|-0.02151844464242458|-0.002944245934486389|0.00804901123046875|0.003991961479187012|XArbitraryZVertical|0.1295148671722139|0.04347608703343164|-0.005769735984792445|0.9906071603027671|0.08762998133897781|-0.2560950219631195|-0.9626714587211609|0|0|0|-1|-1|3
2021-04-22 20:18:15.505 +0100|136365.9412065|0.08319091796875|-0.2610321044921875|-0.965545654296875|136365.9212445|-0.0237920010886911|0.09117443366749714|0.2586082498708599|-0.02721322141587734|0.01653934270143509|-0.01226733345538378|-0.008049756288528442|0.004896968603134155|0.01004868745803833|XArbitraryZVertical|0.1293385978948426|0.04365550100683245|-0.005908406524593135|0.9906215276640586|0.08802052587270737|-0.2557353377342224|-0.9627314209938049|0|0|0|-1|-1|3
2021-04-22 20:18:15.525 +0100|136365.9611695|0.08331298828125|-0.259124755859375|-0.9618988037109375|136365.9611695|-0.0242720741503708|0.09188756771803308|0.2577617749591317|-0.0176976639777422|0.009979178197681904|-0.008395897224545479|-0.0073065385222435|-0.005412429571151733|-0.004157662391662598|XArbitraryZVertical|0.1289320431651626|0.04398526322378116|-0.006120005378072731|0.9906586653399383|0.08872689306735992|-0.2549169063568115|-0.9628836512565613|0|0|0|-1|-1|3
2021-04-22 20:18:15.545 +0100|136365.9811315|0.0885162353515625|-0.250732421875|-0.9564208984375||||||||||||||||||||||||3
2021-04-22 20:18:15.565 +0100|136366.0010945|0.08343505859375|-0.2496795654296875|-0.95159912109375|136365.9811315|-0.02429535473136038|0.09202610673292519|0.2574459005802258|-0.007289430592209101|0.01080065872520208|0.003137277904897928|-0.008652776479721069|-0.002040505409240723|0.005843639373779297|XArbitraryZVertical|0.1287765481821516|0.04405522117142941|-0.006130055495731293|0.9906756528039125|0.08886768668889999|-0.25461146235466|-0.9629514813423157|0|0|0|-1|-1|3
2021-04-22 20:18:15.584 +0100|136366.021056|0.0864410400390625|-0.2445526123046875|-0.960052490234375|136366.0010945|-0.02404602366872335|0.0920947773414722|0.2572175822035597|-0.007575986906886101|0.01647814363241196|0.0128494706004858|-0.005397841334342957|-0.00181877613067627|0.01222783327102661|XArbitraryZVertical|0.1286581723031576|0.04410732085652976|-0.00600751837213074|0.9906895382812327|0.08893915265798569|-0.2543906569480896|-0.9630032181739807|0|0|0|-1|-1|3
2021-04-22 20:18:15.604 +0100|136366.041019|0.088226318359375|-0.2569122314453125|-0.9546356201171875|136366.021056|-0.02353172785115658|0.09216444256554325|0.2575465296162581|0.01693679578602314|0.02383608743548393|0.03954668343067169|-0.0005591362714767456|0.007776647806167603|0.004112124443054199|XArbitraryZVertical|0.1288099393278988|0.04417202103918817|-0.005740522068387872|0.9906685523850886|0.08899853378534317|-0.2547087669372559|-0.9629136919975281|0|0|0|-1|-1|3
2021-04-22 20:18:15.624 +0100|136366.060981|0.080230712890625|-0.27972412109375|-0.95709228515625|136366.041019|-0.0225264465861126|0.0924189863174484|0.2582338868215055|0.02152412384748459|0.04161391034722328|0.0568724125623703|-0.001657813787460327|0.01143202185630798|0.003548622131347656|XArbitraryZVertical|0.1291288056050889|0.0443569695076159|-0.005209940081004985|0.9906216931002797|0.08922746032476425|-0.2553733885288239|-0.9627164006233215|0|0|0|-1|-1|3
2021-04-22 20:18:15.644 +0100|136366.080944|0.0795745849609375|-0.280517578125|-0.9608612060546875|136366.060981|-0.02145878342608328|0.09282116650100135|0.2585243332573687|-0.01072387676686049|0.03790615126490593|0.04230225831270218|-0.00449477881193161|-0.01602762937545776|0.006994128227233887|XArbitraryZVertical|0.1292499020794287|0.04462269337033795|-0.004648270217144803|0.9905966484452263|0.08960776031017303|-0.2556542158126831|-0.9626065492630005|0|0|0|-1|-1|3
2021-04-22 20:18:15.664 +0100|136366.100906|0.0599212646484375|-0.294921875|-0.949310302734375|136366.080944|-0.02058333636723885|0.09327052256685939|0.2582432678622087|-0.02707863226532936|0.03409804403781891|0.04003288969397545|-0.008901290595531464|-0.02615657448768616|0.002096652984619141|XArbitraryZVertical|0.1290921081111788|0.04490410644184722|-0.004192309541500446|0.9906065340245152|0.09004698693752289|-0.2553824782371521|-0.962637722492218|0|0|0|-1|-1|3
2021-04-22 20:18:15.684 +0100|136366.120869|0.03192138671875|-0.2863311767578125|-0.959320068359375|136366.100906|-0.01953801955983235|0.09359517607496817|0.2573841694788155|-0.06874222308397293|0.03460084646940231|0.05442105978727341|-0.01365934312343597|-0.03408259153366089|0.004772663116455078|XArbitraryZVertical|0.1286437274364596|0.04513910798185802|-0.003674075499133627|0.9906563533651902|0.0903799831867218|-0.2545517683029175|-0.9628264904022217|0|0|0|-1|-1|3
2021-04-22 20:18:15.704 +0100|136366.140831|0.0123748779296875|-0.262298583984375|-0.9685211181640625|136366.120869|-0.01808714862229726|0.09406254215162325|0.2557078711446239|-0.09344354271888733|0.05382807180285454|0.07161451876163483|-0.0480695515871048|-0.03626862168312073|0.01086056232452393|XArbitraryZVertical|0.1277813755217999|0.04547646887312949|-0.002965410813723744|0.9907548658610266|0.09086991101503372|-0.2529303133487701|-0.9632076025009155|0|0|0|-1|-1|3
2021-04-22 20:18:15.724 +0100|136366.160794|-0.0041961669921875|-0.2344970703125|-0.956573486328125|136366.140831|-0.01589977699651314|0.09482910822020681|0.2544046340840169|-0.07101219892501831|0.08565950393676758|0.1239897534251213|-0.0671343058347702|-0.02887797355651855|-0.0004940032958984375|XArbitraryZVertical|0.1270867175043977|0.04600498903070453|-0.001864169012108751|0.990822555314168|0.09163938462734222|-0.2516692578792572|-0.9634650349617004|0|0|0|-1|-1|3
2021-04-22 20:18:15.744 +0100|136366.180756|-0.01300048828125|-0.2068023681640625|-0.9491729736328125|136366.160794|-0.01245192182455726|0.09595237090910093|0.2543121675393661|-0.02829538099467754|0.1347585618495941|0.1998021304607391|-0.09037446230649948|0.005273282527923584|-0.001093208789825439|XArbitraryZVertical|0.1269614875783048|0.04678104745233175|-8.696534362500619e-05|0.990803984142577|0.0927237793803215|-0.251579761505127|-0.9633846282958984|0|0|0|-1|-1|3
2021-04-22 20:18:15.764 +0100|136366.200718|-0.0243682861328125|-0.198150634765625|-0.9316253662109375|136366.180756|-0.007195218787391709|0.09770232308554926|0.2555824722474471|0.04277363419532776|0.1975699663162231|0.3080001771450043|-0.1052125319838524|0.03360214829444885|0.0122334361076355|XArbitraryZVertical|0.1274650784121802|0.04797528981473501|0.002659246656206791|0.9906785831655736|0.094378262758255|-0.2528089880943298|-0.9629020690917969|0|0|0|-1|-1|3
2021-04-22 20:18:15.784 +0100|136366.220681|-0.0169830322265625|-0.2223968505859375|-0.9166259765625|136366.200718|0.0003060128039813417|0.09961412335787043|0.2589139951247726|0.1402359455823898|0.264725923538208|0.4151099920272827|-0.1173296570777893|0.04916840791702271|0.02051573991775513|XArbitraryZVertical|0.128928046274629|0.04938958930097419|0.006578756150408951|0.9904014662443948|0.09613467007875443|-0.2560308873653412|-0.9618764519691467|0|0|0|-1|-1|3
2021-04-22 20:18:15.804 +0100|136366.240643|-0.0181732177734375|-0.2365264892578125|-0.9136962890625|136366.220681|0.01018783393558147|0.1015425757569657|0.2639631738296725|0.2060369998216629|0.3132491111755371|0.5414808988571167|-0.1155730932950974|0.05245906114578247|0.03482300043106079|XArbitraryZVertical|0.1311711906780577|0.05097694048530163|0.01172156504352761|0.9899789504082777|0.09785713255405426|-0.2609084844589233|-0.9603909254074097|0|0|0|-1|-1|3
2021-04-22 20:18:15.824 +0100|136366.260606|-0.034027099609375|-0.267303466796875|-0.8936920166015625|136366.240643|0.02250760818281858|0.1032210696174945|0.2695695544183244|0.2613488435745239|0.360543429851532|0.6607166528701782|-0.1153542101383209|0.0335446298122406|0.04220527410507202|XArbitraryZVertical|0.1336143369812051|0.05262670964672907|0.01806840436983282|0.9894701635319|0.09931672364473343|-0.2663165628910065|-0.9587552547454834|0|0|0|-1|-1|3
2021-04-22 20:18:15.844 +0100|136366.280568|-0.03228759765625|-0.234527587890625|-0.8675384521484375|136366.260606|0.03741643511857472|0.1050401968535108|0.2763587488497147|0.3398322761058807|0.4389159977436066|0.7910627126693726|-0.1200647950172424|0.02949285507202148|0.04758810997009277|XArbitraryZVertical|0.1365533882125094|0.05455965583866103|0.02573280031277029|0.9887943393294175|0.1008687540888786|-0.2728543877601624|-0.9567528367042542|0|0|0|-1|-1|3
2021-04-22 20:18:15.864 +0100|136366.300531|-0.0337371826171875|-0.216461181640625|-0.8045196533203125|136366.280568|0.05508881945787911|0.1077993762234693|0.2847746558517428|0.4714543521404266|0.5622023344039917|0.951709508895874|-0.138810932636261|0.02876010537147522|0.07526272535324097|XArbitraryZVertical|0.1401781320884306|0.05721072912036065|0.03486474320117852|0.9878570613561347|0.1032574996352196|-0.2809411883354187|-0.9541540741920471|0|0|0|-1|-1|3
2021-04-22 20:18:15.884 +0100|136366.320493|-0.042724609375|-0.2314300537109375|-0.73797607421875|136366.300531|0.07563699851699215|0.1148687534055345|0.2985222926800419|0.6872562170028687|0.7450913190841675|1.164598107337952|-0.1362503916025162|0.07119345664978027|0.1084544658660889|XArbitraryZVertical|0.1462099319733258|0.06233724962301115|0.0458575627885536|0.9862220173104104|0.109547071158886|-0.2941081821918488|-0.9494734406471252|0|0|0|-1|-1|3
2021-04-22 20:18:15.904 +0100|136366.340456|0.0016937255859375|-0.28375244140625|-0.6959228515625|136366.320493|0.1001812782015974|0.1243768737733418|0.3174762997482063|0.9101201891899109|0.9541547894477844|1.391486644744873|-0.159925788640976|0.09650319814682007|0.1722556352615356|XArbitraryZVertical|0.1544962590567681|0.06918935835776782|0.05915623227601618|0.9837908506544152|0.1178568825125694|-0.3121699690818787|-0.942687451839447|0|0|0|-1|-1|3
2021-04-22 20:18:15.924 +0100|136366.360418|0.0174713134765625|-0.3322296142578125|-0.71783447265625|136366.340456|0.129085738579112|0.1357106577906604|0.3411745235090271|1.063208818435669|1.109491229057312|1.626547932624817|-0.1687412858009338|0.07727083563804626|0.2329374551773071|XArbitraryZVertical|0.1647080690436774|0.07760404899421719|0.07490200087361631|0.9804278386742618|0.1274964064359665|-0.3345941603183746|-0.9336977005004883|0|0|0|-1|-1|3
2021-04-22 20:18:15.944 +0100|136366.380381|0.021270751953125|-0.3668975830078125|-0.75225830078125|136366.360418|0.1623282304556826|0.1472922149796345|0.3668741062554396|1.077434182167053|1.212286949157715|1.804416537284851|-0.1085669845342636|0.0194057822227478|0.2051905393600464|XArbitraryZVertical|0.1754513275079572|0.08685571966234593|0.0928761774449553|0.9762412863649389|0.1369937807321548|-0.3586993217468262|-0.9233458042144775|0|0|0|-1|-1|3
2021-04-22 20:18:15.964 +0100|136366.400343|-0.010406494140625|-0.3774261474609375|-0.75701904296875|136366.380381|0.1982521071206176|0.1594772279775276|0.3955489509088886|1.24634861946106|1.353392362594604|1.939320802688599|-0.1206463426351547|0.04715046286582947|0.1735262274742126|XArbitraryZVertical|0.18717263446302|0.09710135495081257|0.112300515428622|0.9710440503991563|0.1465402245521545|-0.3853148221969604|-0.9110754728317261|0|0|0|-1|-1|3
2021-04-22 20:18:15.984 +0100|136366.420306|-0.018341064453125|-0.4077301025390625|-0.7246856689453125|136366.400343|0.2367985205723318|0.173115505379425|0.4283478247348778|1.417639255523682|1.571965456008911|2.107208490371704|-0.1497013866901398|0.04342111945152283|0.1442098021507263|XArbitraryZVertical|0.2002837729799883|0.10889498068698|0.1332372654066132|0.9645083043588394|0.1566897034645081|-0.4153684675693512|-0.896056592464447|0|0|0|-1|-1|3
2021-04-22 20:18:16.004 +0100|136366.440268|0.076416015625|-0.5926666259765625|-0.7243194580078125|136366.420306|0.2786711534453602|0.1889494766158318|0.466586580474972|1.680577754974365|1.83422863483429|2.302624464035034|-0.2030286192893982|0.06785273551940918|0.136475145816803|XArbitraryZVertical|0.2151746499706083|0.1228539598850149|0.1561173148810707|0.956156070611065|0.1677501350641251|-0.4498403668403625|-0.8772135376930237|0|0|0|-1|-1|3
2021-04-22 20:18:16.024 +0100|136366.460231|0.068023681640625|-0.643218994140625|-0.74700927734375|136366.440268|0.3244365323287861|0.2060201133733196|0.5096597240397454|1.703705072402954|2.010941982269287|2.500074863433838|-0.1226442903280258|-0.0207858681678772|0.1318399906158447|XArbitraryZVertical|0.2313813977431475|0.1386980450039046|0.181044192610539|0.9457529813780212|0.1785676628351212|-0.4878802299499512|-0.8544510006904602|0|0|0|-1|-1|3
2021-04-22 20:18:16.046 +0100|136366.480193|0.0250701904296875|-0.6558380126953125|-0.671844482421875|136366.460231|0.373393710946883|0.2229143034079485|0.5545400557507432|1.828971385955811|2.181977033615112|2.57259464263916|-0.1107644438743591|-0.09394544363021851|0.09195524454116821|XArbitraryZVertical|0.24744859085218|0.1556124567135105|0.2073342088182565|0.9335772834247716|0.1879433989524841|-0.5265523195266724|-0.829107940196991|0|0|0|-1|-1|3
2021-04-22 20:18:16.064 +0100|136366.500156|-0.037353515625|-0.6083221435546875|-0.49285888671875|136366.480193|0.4228443836904754|0.2410790521856358|0.6043885697224766|2.081839561462402|2.3447425365448|2.605722665786743|-0.1442554891109467|-0.1005022525787354|0.06380832195281982|XArbitraryZVertical|0.2647868358803778|0.1742444016583027|0.2338784991663549|0.9191450688533459|0.1964558660984039|-0.568259060382843|-0.7990536689758301|0|0|0|-1|-1|3
2021-04-22 20:18:16.084 +0100|136366.520118|0.003265380859375|-0.6719207763671875|-0.36907958984375|136366.500156|0.4713303245873443|0.2598283420984313|0.6622648279905363|2.581319570541382|2.395122528076172|2.62227463722229|-0.2015808373689651|-0.03334909677505493|0.1715699434280396|XArbitraryZVertical|0.2848585818705326|0.1943960650867473|0.2598987220343988|0.9019526344344001|0.2026033252477646|-0.6149044632911682|-0.7621315121650696|0|0|0|-1|-1|3
2021-04-22 20:18:16.104 +0100|136366.540081|0.0488128662109375|-0.676300048828125|-0.3064422607421875|136366.520118|0.5181190859268485|0.2763012589858252|0.726866768820409|2.62482762336731|2.227336645126343|2.566220760345459|-0.2394351661205292|0.02232038974761963|0.2900227308273315|XArbitraryZVertical|0.3073759067961265|0.2146190181355809|0.2844785227970605|0.8823439757307411|0.2038519084453583|-0.6645315885543823|-0.7189174294471741|0|0|0|-1|-1|3
2021-04-22 20:18:16.124 +0100|136366.560043|0.1373748779296875|-0.6892547607421875|-0.2384033203125|136366.540081|0.565321179223534|0.2853470158680036|0.7904743626005741|2.5611252784729|1.892993450164795|2.497087955474854|-0.1841756254434586|0.02817738056182861|0.329525351524353|XArbitraryZVertical|0.3293900987924102|0.2323176592832008|0.3073679823335231|0.8620068606659284|0.1980308890342712|-0.7106870412826538|-0.6750613451004028|0|0|0|-1|-1|3
2021-04-22 20:18:16.144 +0100|136366.580006|0.1833038330078125|-0.72686767578125|-0.25225830078125|136366.560043|0.6140398568852642|0.2830332368431536|0.854723977351867|2.694409370422363|1.428990721702576|2.512558937072754|-0.08598384261131287|0.08015024662017822|0.3787065744400024|XArbitraryZVertical|0.3523477844555862|0.246366188595692|0.3280141834126342|0.8411668442753915|0.1833200007677078|-0.754389762878418|-0.6303094625473022|0|0|0|-1|-1|3
2021-04-22 20:18:16.164 +0100|136366.599968|0.2109832763671875|-0.8348846435546875|-0.2647705078125|136366.580006|0.667046537747681|0.2647122869888993|0.9228771923822974|3.019712448120117|0.862705409526825|2.552810192108154|0.01153182983398438|0.1025177240371704|0.3319564461708069|XArbitraryZVertical|0.378337165385021|0.2561400640922586|0.3460911714010731|0.8194354305697198|0.1579021811485291|-0.7973414063453674|-0.582506537437439|0|0|0|-1|-1|3
2021-04-22 20:18:16.184 +0100|136366.619931|0.2327728271484375|-0.9448699951171875|-0.246307373046875|136366.599968|0.7258516090129272|0.2282451900772579|0.9983271128021632|3.483046054840088|0.2823536992073059|2.593924760818481|0.06978090852499008|0.06033879518508911|0.2691144347190857|XArbitraryZVertical|0.4091052118505427|0.2623030169730861|0.360626363709158|0.7961022711260493|0.1225718036293983|-0.8405659198760986|-0.5276601314544678|0|0|0|-1|-1|3
2021-04-22 20:18:16.203 +0100|136366.639893|0.1701507568359375|-1.16168212890625|-0.2667999267578125|136366.619931|0.79227764123358|0.171733290996566|1.086860853208327|4.64435338973999|-0.1989530473947525|2.524675607681274|0.1318403482437134|0.006676852703094482|0.1946583390235901|XArbitraryZVertical|0.4469496822515515|0.2665046051592501|0.3699660890320972|0.769634069810896|0.07950959354639053|-0.8851707577705383|-0.4584225416183472|0|0|0|-1|-1|3
2021-04-22 20:18:16.223 +0100|136366.659856|0.1449432373046875|-1.480987548828125|-0.281707763671875|136366.639893|0.8762508274816835|0.0873884181255742|1.196675832322026|5.71213960647583|-0.5546582937240601|2.332643270492554|0.1555741131305695|-0.09758216142654419|0.1051324307918549|XArbitraryZVertical|0.4942696736205536|0.2714179050702365|0.3724855862823671|0.7370782839702724|0.03189582750201225|-0.9308294057846069|-0.3640596270561218|0|0|0|-1|-1|3
2021-04-22 20:18:16.244 +0100|136366.679818|0.0815277099609375|-1.602935791015625|-0.2871246337890625|136366.659856|1.012665597435488|-0.05512382573597893|1.31550006430015|5.900207042694092|-0.6972463130950928|2.08029842376709|0.1733530759811401|-0.3811052441596985|-0.0222657322883606|XArbitraryZVertical|0.5450061291146583|0.2772971327761612|0.3689138185767035|0.6999839023304252|-0.01391352619975805|-0.9675885438919067|-0.252149224281311|0|0|0|-1|-1|3
2021-04-22 20:18:16.263 +0100|136366.699781|0.088775634765625|-1.60723876953125|-0.2360687255859375|136366.679818|1.312722002022461|-0.3627523553372355|1.418169642309887|5.23243522644043|-0.6242196559906006|1.736985087394714|0.1658884286880493|-0.533963680267334|-0.151850625872612|XArbitraryZVertical|0.5909263663297485|0.2823745240270115|0.3624981070241061|0.6630730361301181|-0.0539495125412941|-0.9883751273155212|-0.1421413123607635|0|0|0|-1|-1|3
2021-04-22 20:18:16.283 +0100|136366.719743|0.032318115234375|-1.471389770507812|-0.260589599609375|136366.699781|2.008792154502337|-1.065961656801281|1.471940266002848|4.280295848846436|-0.5849298238754272|1.441622138023376|0.1607703268527985|-0.672728955745697|-0.195460319519043|XArbitraryZVertical|0.6280433840619565|0.2858215271201288|0.3556557952326754|0.6303780699168229|-0.08638329058885574|-0.995117723941803|-0.04773512482643127|0|0|0|-1|-1|3
2021-04-22 20:18:16.303 +0100|136366.739706|0.0400848388671875|-1.128646850585938|-0.3478851318359375|136366.719743|2.792619739727068|-1.855938566479753|1.45303014832294|3.781926155090332|-0.420536994934082|1.216833472251892|0.1782269179821014|-0.5029746294021606|-0.2781535387039185|XArbitraryZVertical|0.6583417661894623|0.2882906132553076|0.3489881953225153|0.6014000427071772|-0.1127510368824005|-0.993073582649231|0.03305071592330933|0|0|0|-1|-1|3
2021-04-22 20:18:16.323 +0100|136366.759668|-0.04205322265625|-1.004226684570312|-0.0148468017578125|136366.739706|-3.092684416895469|-2.256848560472303|1.395250399223607|4.226717948913574|-0.2720918655395508|1.108069539070129|0.1757523268461227|-0.3766512274742126|-0.4290727376937866|XArbitraryZVertical|0.6856669877741397|0.2918542217545614|0.3421688097298002|0.5723656909149094|-0.1351330280303955|-0.984631359577179|0.1106362119317055|0|0|0|-1|-1|3
2021-04-22 20:18:16.343 +0100|136366.779631|-0.1181640625|-1.284988403320312|0.2082366943359375|136366.759668|-2.865702643175676|-2.482589476849396|1.315100280154267|4.568970203399658|-0.1084330528974533|0.9635114073753357|0.1524596214294434|0.02228140830993652|-0.4508601427078247|XArbitraryZVertical|0.7146049884464312|0.2988632788757452|0.333192547768574|0.5375903222775364|-0.1548701077699661|-0.9674875140190125|0.1999590992927551|0|0|0|-1|-1|3
2021-04-22 20:18:16.363 +0100|136366.799593|-0.16851806640625|-1.226104736328125|0.32196044921875|136366.779631|-2.758199712108569|-2.587122349810226|1.240695151168307|3.24983811378479|-0.05924798920750618|0.7159632444381714|0.08909924328327179|-0.2657371163368225|-0.1199682056903839|XArbitraryZVertical|0.7379581022102827|0.3052967746055495|0.3251482137021107|0.5064489090688937|-0.1706570833921432|-0.9460095763206482|0.2755765616893768|0|0|0|-1|-1|3
2021-04-22 20:18:16.383 +0100|136366.819556|-0.1575469970703125|-1.245819091796875|0.5341033935546875|136366.799593|-2.709635068126851|-2.634141170152551|1.189565681800059|2.133812665939331|-0.09964697062969208|0.4038931131362915|0.02637100219726562|-0.3152775764465332|-0.08401381969451904|XArbitraryZVertical|0.7529836554739576|0.3092001588381951|0.3193117367749241|0.4852329637407424|-0.1808048188686371|-0.9282074570655823|0.3251782357692719|0|0|0|-1|-1|3
2021-04-22 20:18:16.403 +0100|136366.839518|-0.1165924072265625|-1.1666259765625|0.6053466796875|136366.819556|-2.679233154542813|-2.664890352736252|1.156211301680503|1.356832504272461|-0.1602303087711334|0.1590393483638763|0.01620586216449738|-0.3323672413825989|0.08084800839424133|XArbitraryZVertical|0.7626112494287234|0.3120502527996849|0.3141375523463048|0.4715575273006763|-0.184830367565155|-0.9152835607528687|0.3579025566577911|0|0|0|-1|-1|3
2021-04-22 20:18:16.423 +0100|136366.85948|-0.078277587890625|-0.9887542724609375|0.6055145263671875|136366.839518|-2.662230853069424|-2.684296205338096|1.139014218436806|0.5579889416694641|-0.2257614880800247|-0.003803630359470844|0.04738396406173706|-0.313565731048584|0.2111940979957581|XArbitraryZVertical|0.7677866985025944|0.3134468895101382|0.3101046030781532|0.4648548565684699|-0.1847737580537796|-0.908221423625946|0.3754907250404358|0|0|0|-1|-1|3
2021-04-22 20:18:16.443 +0100|136366.879443|-0.099761962890625|-0.9399261474609375|0.57073974609375|136366.85948|-2.652156366444747|-2.697620317295759|1.13220502140775|0.3338605761528015|-0.1944119334220886|-0.07723630219697952|0.0916169136762619|-0.170806348323822|0.2483709454536438|XArbitraryZVertical|0.7701483444830204|0.3140364242187404|0.3070435031516163|0.462576529205715|-0.1824063360691071|-0.9053508043289185|0.3834947049617767|0|0|0|-1|-1|3
2021-04-22 20:18:16.463 +0100|136366.899405|-0.136932373046875|-0.9217376708984375|0.5272369384765625|136366.879443|-2.640263936120913|-2.711607054647768|1.127655209551808|0.281807005405426|-0.1335153430700302|-0.1862788051366806|0.08932390809059143|-0.04266661405563354|0.2045044302940369|XArbitraryZVertical|0.7716694326845489|0.3152784048865974|0.3041943718248408|0.4610766044482444|-0.1787400096654892|-0.9034093022346497|0.3897483646869659|0|0|0|-1|-1|3
2021-04-22 20:18:16.483 +0100|136366.919368|-0.183197021484375|-0.845672607421875|0.5343170166015625|136366.899405|-2.623970630458069|-2.727787755680599|1.12511429238469|0.2673070728778839|-0.01933359727263451|-0.3575948178768158|0.05533711612224579|-0.0284239649772644|0.1624076962471008|XArbitraryZVertical|0.7722397423070487|0.3177903932307047|0.3015740127013637|0.4601176171704038|-0.1733329594135284|-0.9023168683052063|0.3946899175643921|0|0|0|-1|-1|3
2021-04-22 20:18:16.503 +0100|136366.93933|-0.2159423828125|-0.94879150390625|0.55987548828125|136366.919368|-2.597370951315833|-2.750699734172289|1.121605647682007|0.5111496448516846|0.1436127126216888|-0.5560632944107056|0.009399086236953735|0.02787363529205322|0.1156377196311951|XArbitraryZVertical|0.7723794807161801|0.3227551046513785|0.2986323674795033|0.4583424403098131|-0.1654503047466278|-0.9007988572120667|0.4014818370342255|0|0|0|-1|-1|3
2021-04-22 20:18:16.523 +0100|136366.959293|-0.2284698486328125|-0.89813232421875|0.5771331787109375|136366.93933|-2.560671558840529|-2.77904710899654|1.116752283718793|0.4827586114406586|0.3083621263504028|-0.7759273648262024|-0.04650332033634186|0.01360940933227539|0.1449904143810272|XArbitraryZVertical|0.7719216307421487|0.3304293428036001|0.2957431226895025|0.4555101744607541|-0.1555531769990921|-0.8986807465553284|0.4100930988788605|0|0|0|-1|-1|3
2021-04-22 20:18:16.547 +0100|136366.979255|-0.2270355224609375|-0.8189849853515625|0.54608154296875|136366.959293|-2.518101839376381|-2.809032381499438|1.115562779607967|0.2275352627038956|0.5309514403343201|-0.9230080246925354|-0.08616809546947479|-0.04158526659011841|0.1563312709331512|XArbitraryZVertical|0.7695276646693794|0.3400272539841795|0.2937689481039253|0.4537715166716546|-0.1435372978448868|-0.8981583714485168|0.4155827164649963|0|0|0|-1|-1|3
2021-04-22 20:18:16.563 +0100|136366.999218|-0.203277587890625|-0.6798553466796875|0.5031585693359375|136366.979255|-2.477678708213536|-2.832255615808348|1.121764488377627|-0.2741712629795074|0.7715158462524414|-0.9356274604797363|-0.08821700513362885|0.0309179425239563|0.1715466678142548|XArbitraryZVertical|0.7642949557344532|0.3501401846711058|0.2946123592637881|0.4543772925795847|-0.1321499794721603|-0.9008678197860718|0.4134898483753204|0|0|0|-1|-1|3
2021-04-22 20:18:16.583 +0100|136367.01918|-0.18756103515625|-0.68157958984375|0.5336456298828125|136366.999218|-2.441329101317095|-2.847957002457618|1.13493817387048|-0.4783824980258942|0.9332022070884705|-0.9339554309844971|-0.1019704043865204|0.1727578639984131|0.1069736182689667|XArbitraryZVertical|0.7566073130529416|0.3600066631243201|0.2982677501922126|0.4571402542582184|-0.1221960484981537|-0.9065080881118774|0.4041188359260559|0|0|0|-1|-1|3
2021-04-22 20:18:16.603 +0100|136367.039143|-0.2252349853515625|-0.7778472900390625|0.5074310302734375|136367.01918|-2.407889069030007|-2.85843850782254|1.150762697744759|-0.6435855627059937|1.059338808059692|-0.844699501991272|-0.07184416055679321|0.2347299456596375|0.1274893283843994|XArbitraryZVertical|0.7477837893137782|0.3695888062158754|0.3037313172132061|0.4604030250192691|-0.1139311045408249|-0.9130752086639404|0.3915529549121857|0|0|0|-1|-1|3
2021-04-22 20:18:16.622 +0100|136367.059105|-0.1941680908203125|-0.705352783203125|0.4900665283203125|136367.039143|-2.379938453526656|-2.861710939149863|1.170086358763737|-0.9909289479255676|1.167860507965088|-0.7714542150497437|-0.110735647380352|0.2128674983978271|0.1535627543926239|XArbitraryZVertical|0.7377642535318992|0.3783530021875761|0.31120858264184|0.4644375767333281|-0.1077544316649437|-0.9207842946052551|0.3748941719532013|0|0|0|-1|-1|3
2021-04-22 20:18:16.643 +0100|136367.079068|-0.2053375244140625|-0.6966094970703125|0.4379425048828125|136367.059105|-2.365720577241478|-2.851246943887344|1.198413839204329|-1.505205631256104|1.204821467399597|-0.5639181137084961|-0.0940203070640564|0.1451467275619507|0.1397794485092163|XArbitraryZVertical|0.7255166227653786|0.3846161447211211|0.3216841679321916|0.4713974054101862|-0.1041603162884712|-0.9314631819725037|0.3486078977584839|0|0|0|-1|-1|3
2021-04-22 20:18:16.663 +0100|136367.09903|-0.1440582275390625|-0.402801513671875|0.3005523681640625|136367.079068|-2.356984965951953|-2.835374996041234|1.226595022657726|-0.7597906589508057|1.222068786621094|-0.6201120018959045|-0.1022849977016449|0.2613520622253418|0.1355726718902588|XArbitraryZVertical|0.7132307409450298|0.3900972143015242|0.332717913241221|0.4779383216089887|-0.1017244681715965|-0.9413452744483948|0.3217478394508362|0|0|0|-1|-1|3
2021-04-22 20:18:16.683 +0100|136367.118993|-0.2703857421875|-0.5792236328125|0.3839569091796875|136367.09903|-2.336145295894069|-2.830286323179137|1.230627114970412|0.4980641901493073|1.210541248321533|-0.2230707257986069|-0.07306508719921112|0.31014484167099|0.008119046688079834|XArbitraryZVertical|0.7071095384346644|0.3984983161860351|0.3399549877177005|0.4750008345174565|-0.1021967604756355|-0.9426982402801514|0.3176096081733704|0|0|0|-1|-1|3
2021-04-22 20:18:16.703 +0100|136367.138955|-0.1524810791015625|-0.7273406982421875|0.4912567138671875|136367.118993|-2.313588408406144|-2.828109443122886|1.215270669652807|1.036205291748047|1.143790006637573|-0.093828946352005|-0.09048956632614136|0.4831327199935913|0.005610227584838867|XArbitraryZVertical|0.706574887581068|0.4078136829553433|0.3441870131111401|0.4647315596584984|-0.1073400229215622|-0.937463641166687|0.3311201333999634|0|0|0|-1|-1|3
2021-04-22 20:18:16.723 +0100|136367.158918|-0.2350921630859375|-0.827392578125|0.522674560546875|136367.138955|-2.292803495440683|-2.825875519142991|1.194656696854647|1.2150719165802|1.025205016136169|0.03179599717259407|-0.08069100230932236|0.2483417391777039|0.1173289716243744|XArbitraryZVertical|0.7077145387360693|0.4168078724780474|0.347165607708823|0.4526449937441082|-0.1140563040971756|-0.9300895929336548|0.3491773307323456|0|0|0|-1|-1|3
2021-04-22 20:18:16.742 +0100|136367.17888|-0.2219390869140625|-0.896453857421875|0.516876220703125|136367.158918|-2.276278271651158|-2.821476668740192|1.169271266564928|1.273247361183167|0.9583150744438171|0.1443386077880859|-0.08336115628480911|0.1524602770805359|0.1318078637123108|XArbitraryZVertical|0.7105156258229637|0.4250315251104568|0.3491023119095691|0.4389115720554012|-0.1229827851057053|-0.9204660654067993|0.3709684908390045|0|0|0|-1|-1|3
2021-04-22 20:18:16.763 +0100|136367.198843|-0.1972808837890625|-0.869049072265625|0.556610107421875|136367.17888|-2.267114470203293|-2.811360950672389|1.148851046207894|0.7392823100090027|0.9060796499252319|0.1560487002134323|-0.08941590785980225|0.03633213043212891|0.1398741006851196|XArbitraryZVertical|0.7123668848882997|0.4315523737026049|0.3519533892873055|0.4271123324593712|-0.1327971965074539|-0.9122940301895142|0.387408047914505|0|0|0|-1|-1|3
2021-04-22 20:18:16.782 +0100|136367.218805|-0.19561767578125|-0.9154205322265625|0.5507965087890625|136367.198843|-2.265809723663459|-2.794812539085042|1.137721545273191|0.4514200985431671|0.8854231238365173|0.1631343960762024|-0.07175362110137939|0.01592510938644409|0.1317912936210632|XArbitraryZVertical|0.712174396744097|0.4360603635427489|0.3566273655972995|0.4188984844114308|-0.1426317095756531|-0.9076796770095825|0.3946820199489594|0|0|0|-1|-1|3
2021-04-22 20:18:16.802 +0100|136367.238768|-0.21466064453125|-0.97589111328125|0.4924468994140625|136367.218805|-2.264644428968361|-2.777734733933309|1.126448836527698|0.6073920726776123|0.9384896755218506|0.1848907321691513|-0.0384533554315567|0.03985381126403809|0.1707070469856262|XArbitraryZVertical|0.7119040659699515|0.4405173304283456|0.3614460878533348|0.4104800405618799|-0.1529827415943146|-0.9028913378715515|0.4017258286476135|0|0|0|-1|-1|3
2021-04-22 20:18:16.822 +0100|136367.25873|-0.2193603515625|-1.009262084960938|0.5344390869140625|136367.238768|-2.264073135384852|-2.758807000752261|1.114874536160979|0.4226765036582947|1.00318431854248|0.2067426890134811|-0.0407177060842514|-0.05259990692138672|0.09908062219619751|XArbitraryZVertical|0.7114543243434375|0.445023408459442|0.3667684898695597|0.4015819483131418|-0.1644513159990311|-0.8978555798530579|0.4084261655807495|0|0|0|-1|-1|3
2021-04-22 20:18:16.842 +0100|136367.278693|-0.1883544921875|-0.9611358642578125|0.560028076171875|136367.25873|-2.26808122480848|-2.73463864436073|1.109048518132388|0.04242274910211563|1.046146750450134|0.1785780787467957|-0.04008927941322327|-0.1079755425453186|0.1055948734283447|XArbitraryZVertical|0.7094462951205194|0.4486096377686044|0.3738005689891589|0.3945993664880522|-0.1763406991958618|-0.8952751755714417|0.4091292917728424|0|0|0|-1|-1|3
2021-04-22 20:18:16.862 +0100|136367.298655|-0.1348419189453125|-1.0577392578125|0.565032958984375|136367.278693|-2.275647281462118|-2.706950662317531|1.109008776347406|-0.194646418094635|1.058409333229065|0.1245815083384514|-0.02617555856704712|-0.08028328418731689|0.1357631683349609|XArbitraryZVertical|0.7059269450874525|0.4513630119692674|0.3821092426520696|0.3897836264905209|-0.1876145899295807|-0.8952574729919434|0.4041228294372559|0|0|0|-1|-1|3
2021-04-22 20:18:16.882 +0100|136367.318618|-0.08123779296875|-1.067764282226562|0.519866943359375|136367.298655|-2.291216546782667|-2.672520451638377|1.117268459342907|-0.9078893065452576|0.9740985035896301|0.1412103772163391|0.02739629149436951|-0.1381572484970093|0.1765666007995605|XArbitraryZVertical|0.7005196485011967|0.4524158588105124|0.3921643082493061|0.388329076791734|-0.1980651468038559|-0.8989070057868958|0.3908157646656036|0|0|0|-1|-1|3
2021-04-22 20:18:16.902 +0100|136367.33858|-0.07147216796875|-1.15692138671875|0.4360198974609375|136367.318618|-2.326659563908766|-2.622298797366483|1.138203812124481|-1.642500042915344|0.8438453078269958|0.2007490694522858|0.1135971546173096|-0.1405042409896851|0.1975173950195312|XArbitraryZVertical|0.6926667240126273|0.4496584310291111|0.4049569157777456|0.3924667888339327|-0.2080483585596085|-0.9078819751739502|0.363959789276123|0|0|0|-1|-1|3
2021-04-22 20:18:16.922 +0100|136367.358543|-0.119537353515625|-1.214736938476562|0.28546142578125|136367.33858|-2.385748299310011|-2.552590817779809|1.168751701784572|-2.194515228271484|0.7439074516296387|0.2343466281890869|0.1439097821712494|-0.1882734298706055|0.1585056781768799|XArbitraryZVertical|0.6827384910862138|0.443340508966279|0.4198114896506208|0.4013425220667379|-0.2173801362514496|-0.92026287317276|0.3253653049468994|0|0|0|-1|-1|3
2021-04-22 20:18:16.942 +0100|136367.378505|-0.1496124267578125|-1.2027587890625|0.1891937255859375|136367.358543|-2.473520678882385|-2.45660258405805|1.204690102423241|-2.646990060806274|0.7239997982978821|0.268609344959259|0.1350381672382355|-0.2671999335289001|0.08342516422271729|XArbitraryZVertical|0.6708659467717081|0.4342284919963667|0.4364061054203616|0.413442056671362|-0.2264833450317383|-0.9337283372879028|0.2772310078144073|0|0|0|-1|-1|3
2021-04-22 20:18:16.962 +0100|136367.398468|-0.17437744140625|-1.151962280273438|0.19427490234375|136367.378505|-2.597208068661065|-2.325400640320692|1.24207564028398|-2.93947696685791|0.7571550011634827|0.2674190700054169|0.09467998147010803|-0.262284517288208|0.003514021635055542|XArbitraryZVertical|0.6569215224811273|0.4231127354817663|0.4544635499195503|0.4276595232999107|-0.2351973950862885|-0.9464561343193054|0.2211405485868454|0|0|0|-1|-1|3
2021-04-22 20:18:16.982 +0100|136367.41843|-0.1531982421875|-1.136184692382812|0.0984954833984375|136367.398468|-2.77048550940346|-2.144905050077406|1.276773415240365|-3.476321697235107|0.7926278114318848|0.2922616899013519|0.08395010232925415|-0.2136147022247314|0.03227686882019043|XArbitraryZVertical|0.6407308137246865|0.4100715565908154|0.4738170421112863|0.4436246610282995|-0.2433426529169083|-0.9570857882499695|0.1573893129825592|0|0|0|-1|-1|3
2021-04-22 20:18:17.002 +0100|136367.438393|-0.1275787353515625|-1.11712646484375|-0.0571136474609375|136367.41843|-3.038228750241062|-1.872406972803918|1.304079116324957|-4.391043663024902|0.7334601283073425|0.3898964524269104|0.08289268612861633|-0.1910902857780457|0.06533551216125488|XArbitraryZVertical|0.6206626720381837|0.392333099064621|0.4958407535420458|0.4636752553345251|-0.2516694068908691|-0.9646413326263428|0.07829482853412628|0|0|0|-1|-1|3
2021-04-22 20:18:17.022 +0100|136367.458355|-0.125396728515625|-0.9427642822265625|-0.321533203125|136367.438393|2.879767536087741|-1.506010094026328|1.306875456239383|-5.0129714012146|0.6398788094520569|0.469805121421814|0.1209785938262939|-0.159839391708374|0.04099714756011963|XArbitraryZVertical|0.5962195374291344|0.3688872927252075|0.5201069312688154|0.4877841640312211|-0.2603210806846619|-0.9653745889663696|-0.01688885688781738|0|0|0|-1|-1|3
2021-04-22 20:18:17.047 +0100|136367.478318|-0.1092529296875|-0.8753662109375|-0.5032196044921875|136367.458355|2.537891890854028|-1.165503613028995|1.274031837237976|-4.773489952087402|0.552117645740509|0.4603046476840973|0.1390537023544312|-0.1033286452293396|-0.06861405819654465|XArbitraryZVertical|0.570031053733532|0.3426576171343116|0.5435382309510276|0.5120708878852894|-0.2687373459339142|-0.9562876224517822|-0.1153007075190544|0|0|0|-1|-1|3
2021-04-22 20:18:17.062 +0100|136367.49828|-0.026947021484375|-0.8629150390625|-0.61712646484375|136367.478318|2.315544644078914|-0.9437600136901549|1.225210144991785|-3.728551387786865|0.5296241641044617|0.3039261400699615|0.1646442711353302|0.06203162670135498|-0.2514513731002808|XArbitraryZVertical|0.5462002294570697|0.3198208913971363|0.5625522026970696|0.531897572551659|-0.2743083834648132|-0.9408770203590393|-0.1987598091363907|0|0|0|-1|-1|3
2021-04-22 20:18:17.082 +0100|136367.518243|0.0073394775390625|-0.909576416015625|-0.576080322265625|136367.49828|2.192186751356345|-0.8205072620284|1.18414631382666|-2.215235710144043|0.2399033010005951|0.04873095080256462|0.1944471299648285|0.03764289617538452|-0.3113950788974762|XArbitraryZVertical|0.528277348572139|0.3039149577527744|0.575053892505353|0.5457763204786301|-0.275836706161499|-0.9261775016784668|-0.2571174800395966|0|0|0|-1|-1|3
2021-04-22 20:18:17.102 +0100|136367.538205|0.0928192138671875|-0.9280853271484375|-0.476837158203125|136367.518243|2.138487835664662|-0.7688263221511954|1.164752950592142|-0.7137283682823181|-0.07740414142608643|-0.1715564131736755|0.2782116234302521|0.07848072052001953|-0.3238005638122559|XArbitraryZVertical|0.5197615919537713|0.2964915114492147|0.5796854351483758|0.5530873908301881|-0.2746250033378601|-0.9186908006668091|-0.2838813364505768|0|0|0|-1|-1|3
2021-04-22 20:18:17.122 +0100|136367.558168|0.1414947509765625|-0.845123291015625|-0.4677581787109375|136367.538205|2.128435385944163|-0.7655012077601412|1.166713539270572|0.5454909801483154|-0.4838036298751831|-0.2499603182077408|0.3428356945514679|-0.1024177670478821|-0.1966401636600494|XArbitraryZVertical|0.5204775804805031|0.2955610351998771|0.5771779153102328|0.5555290245221313|-0.2724308669567108|-0.9194633960723877|-0.2834935188293457|0|0|0|-1|-1|3
2021-04-22 20:18:17.142 +0100|136367.57813|0.100921630859375|-0.7421112060546875|-0.477783203125|136367.558168|2.150618641989323|-0.7983438760274603|1.183789644946336|1.104915022850037|-0.7477002739906311|-0.336560994386673|0.3976580202579498|0.06978070735931396|-0.1925506889820099|XArbitraryZVertical|0.5281703929343554|0.298893199389089|0.5695832470359063|0.5543228371536268|-0.2703073620796204|-0.926042914390564|-0.2633977830410004|0|0|0|-1|-1|3
2021-04-22 20:18:17.162 +0100|136367.598093|-0.0210723876953125|-0.5594329833984375|-0.3251800537109375|136367.57813|2.181496420649446|-0.8440242459574829|1.205098364293699|1.263218879699707|-0.9591182470321655|-0.4283542931079865|0.3875602185726166|0.09178745746612549|-0.2441541999578476|XArbitraryZVertical|0.5380936618705057|0.3027360384486465|0.5594523992546055|0.5530092923431729|-0.267243891954422|-0.9338743686676025|-0.2376122027635574|0|0|0|-1|-1|3
2021-04-22 20:18:17.182 +0100|136367.618055|-0.0388336181640625|-0.6802825927734375|-0.2475738525390625|136367.598093|2.242892058034432|-0.9203952923583234|1.233414245392332|2.111859798431396|-0.863498866558075|-0.3764910101890564|0.307353675365448|0.3206993341445923|-0.1991642415523529|XArbitraryZVertical|0.551433358079555|0.3093613476138207|0.5467832919822265|0.5488580215725366|-0.2634381651878357|-0.9436244964599609|-0.200433611869812|0|0|0|-1|-1|3
2021-04-22 20:18:17.201 +0100|136367.638018|-0.2156219482421875|-1.002960205078125|-0.2082061767578125|136367.618055|2.346591088698513|-1.036261273258959|1.264913865007536|2.235517978668213|-0.8933800458908081|-0.3608267307281494|0.2424513101577759|0.3016801476478577|-0.1312581151723862|XArbitraryZVertical|0.5671169537089588|0.3188621796050382|0.5327460702513787|0.5411903432474968|-0.2591283917427063|-0.9535815715789795|-0.1534105390310287|0|0|0|-1|-1|3
2021-04-22 20:18:17.222 +0100|136367.65798|-0.18072509765625|-1.303695678710938|-0.39727783203125|136367.638018|2.465969391179622|-1.166980904747311|1.290440668732356|2.067936420440674|-0.6627061367034912|-0.4088848829269409|0.1149780452251434|0.2059977650642395|-0.09569983929395676|XArbitraryZVertical|0.5816376767412699|0.3276220440300663|0.5192819483593781|0.5335801715888087|-0.2544426321983337|-0.9609571099281311|-0.1087228208780289|0|0|0|-1|-1|3
2021-04-22 20:18:17.242 +0100|136367.677943|-0.1826324462890625|-0.796722412109375|0.0735931396484375|136367.65798|2.60611442313479|-1.312593132655864|1.312744250400185|1.781284928321838|-0.5564115643501282|-0.3690379858016968|0.0002335608005523682|-0.2625272274017334|-0.350349485874176|XArbitraryZVertical|0.5940778614058499|0.3383634851680575|0.5067642711425105|0.5251398076797149|-0.2467385977506638|-0.9668889045715332|-0.06516329199075699|0|0|0|-1|-1|3
2021-04-22 20:18:17.261 +0100|136367.697905|-0.3228912353515625|-1.010986328125|0.20477294921875|136367.677943|2.672122570249238|-1.388801235461601|1.320153960336085|0.2932852208614349|-0.6225333213806152|-0.08473416417837143|0.1815686523914337|-0.02235108613967896|-0.02563595771789551|XArbitraryZVertical|0.6012341326942972|0.3406935063302315|0.499113016738516|0.5228114441376803|-0.2439306378364563|-0.9687532782554626|-0.04489090666174889|0|0|0|-1|-1|3
2021-04-22 20:18:17.281 +0100|136367.717867|-0.2899322509765625|-1.23138427734375|0.030364990234375|136367.697905|2.656597110141474|-1.385717268656014|1.322953784232273|-0.7282620072364807|-0.5868576169013977|-0.2810958623886108|-0.1010539382696152|0.1057047247886658|0.2119977474212646|XArbitraryZVertical|0.6027681136969055|0.3377851538970221|0.4951586823140187|0.5266780143168275|-0.2411237061023712|-0.9694439172744751|-0.04514358192682266|0|0|0|-1|-1|3
2021-04-22 20:18:17.301 +0100|136367.73783|-0.3148956298828125|-0.968017578125|-0.306610107421875|136367.717867|2.533705666123542|-1.279201922717533|1.323323503209384|-2.075958490371704|-0.6882414817810059|-0.4130903780460358|-0.06656268239021301|-0.2203917503356934|0.1918940544128418|XArbitraryZVertical|0.5968737266531664|0.3294419052483827|0.4942451308274518|0.53938079076691|-0.2346145957708359|-0.9695345759391785|-0.07041957229375839|0|0|0|-1|-1|3
2021-04-22 20:18:17.321 +0100|136367.757793|-0.2683258056640625|-0.9082489013671875|-0.4055328369140625|136367.73783|2.368584340787854|-1.132126815722373|1.317346279705092|-1.68067479133606|-0.579377293586731|-0.5449327230453491|-0.07850614190101624|-0.1239423751831055|-0.03252291679382324|XArbitraryZVertical|0.5875659464397515|0.3186156692432348|0.4944794549878939|0.5556442648719054|-0.2270046323537827|-0.9680531024932861|-0.1065006256103516|0|0|0|-1|-1|3
2021-04-22 20:18:17.341 +0100|136367.777755|-0.2019500732421875|-0.907501220703125|-0.358306884765625|136367.757793|2.263262818743037|-1.039752001320752|1.318186800728605|-0.6536912322044373|-0.3978086113929749|-0.7431459426879883|-0.08111891150474548|0.04690712690353394|-0.2523784637451172|XArbitraryZVertical|0.5814369428701719|0.314076354404041|0.4916444317906468|0.5670741624569003|-0.215511292219162|-0.9682635068893433|-0.1265742480754852|0|0|0|-1|-1|3
2021-04-22 20:18:17.361 +0100|136367.797718|-0.141754150390625|-0.98834228515625|-0.1928253173828125|136367.777755|2.213417899160829|-0.9982434686247809|1.329598481945411|0.1588411778211594|-0.2926041185855865|-0.8740022778511047|-0.03087049722671509|0.05912607908248901|-0.2546207904815674|XArbitraryZVertical|0.5793173683079921|0.3157289968457132|0.4857648212171735|0.5733579762406119|-0.2007725238800049|-0.9710525274276733|-0.1294131726026535|0|0|0|-1|-1|3
2021-04-22 20:18:17.381 +0100|136367.81768|-0.1428985595703125|-1.078323364257812|-0.12188720703125|136367.797718|2.193123806040401|-0.9843318727418624|1.349012754906717|0.3947111964225769|-0.2956821918487549|-0.9720349907875061|0.0138268768787384|0.04160761833190918|-0.16364985704422|XArbitraryZVertical|0.5796689324166447|0.3211166629589798|0.4775955029516209|0.5768628292675426|-0.1832140237092972|-0.9755066633224487|-0.1217360347509384|0|0|0|-1|-1|3
2021-04-22 20:18:17.401 +0100|136367.837642|-0.1336822509765625|-0.9899749755859375|-0.1767425537109375|136367.81768|2.160489805377201|-0.9588266264169107|1.367910755158013|0.03358877822756767|-0.3763556480407715|-0.9972482919692993|0.02418254315853119|-0.06340330839157104|-0.02500688284635544|XArbitraryZVertical|0.5794720818629311|0.3260889930403465|0.4692962898940729|0.5810672641868797|-0.1649289131164551|-0.9794892072677612|-0.1157561466097832|0|0|0|-1|-1|3
2021-04-22 20:18:17.421 +0100|136367.857605|-0.1055755615234375|-0.8776702880859375|-0.33441162109375|136367.837642|2.093390915690335|-0.9013561801275473|1.382323877469106|-0.1015704944729805|-0.4031926691532135|-0.9138968586921692|0.03438875079154968|-0.08423686027526855|-0.0128246545791626|XArbitraryZVertical|0.5777085056098903|0.3288162834328114|0.4615315351721276|0.5874705029196468|-0.1469216495752335|-0.982291579246521|-0.1162654682993889|0|0|0|-1|-1|3
2021-04-22 20:18:17.441 +0100|136367.877567|-0.110076904296875|-0.935333251953125|-0.27685546875|136367.857605|2.0374611290399|-0.8533694456784531|1.397941612641275|0.3607317805290222|-0.3108183145523071|-0.9009559154510498|-0.03781977295875549|0.05510497093200684|-0.1847891807556152|XArbitraryZVertical|0.576934705054629|0.3325765121176616|0.4536934640418008|0.5922006413318369|-0.1295989602804184|-0.9850977659225464|-0.1130784228444099|0|0|0|-1|-1|3
2021-04-22 20:18:17.461 +0100|136367.89753|-0.1343994140625|-0.8530731201171875|-0.116180419921875|136367.877567|2.027249041607002|-0.8487276357618007|1.419859249462486|0.8894822001457214|-0.268269419670105|-0.8045185208320618|0.04892191290855408|0.1161634922027588|-0.177138090133667|XArbitraryZVertical|0.579121477563162|0.339009023820867|0.4446981268253768|0.5932410380412665|-0.1128403395414352|-0.9886305928230286|-0.09938239306211472|0|0|0|-1|-1|3
2021-04-22 20:18:17.481 +0100|136367.917492|-0.142059326171875|-1.027999877929688|-0.0665435791015625|136367.89753|2.036594604895688|-0.8641989288623947|1.440613164593709|0.4485196173191071|-0.3128198087215424|-0.7043080925941467|-0.0484345406293869|0.1103428602218628|-0.1099003627896309|XArbitraryZVertical|0.5822835164082837|0.3446795689140196|0.4360031793709691|0.5933324039877208|-0.09873581677675247|-0.9915381073951721|-0.08428379893302917|0|0|0|-1|-1|3
2021-04-22 20:18:17.501 +0100|136367.937455|-0.1687469482421875|-0.8979644775390625|-0.1779327392578125|136367.917492|1.961720759294304|-0.7962415181509055|1.450609362903627|-0.4052874743938446|-0.3160533010959625|-0.6508740186691284|-0.05611881613731384|0.09544724225997925|-0.02846360206604004|XArbitraryZVertical|0.5812428387902077|0.3467393921334704|0.4301164338744218|0.597434986408528|-0.08569570630788803|-0.9927862286567688|-0.08385711163282394|0|0|0|-1|-1|3
2021-04-22 20:18:17.521 +0100|136367.957417|-0.1328887939453125|-0.816558837890625|-0.1845550537109375|136367.937455|1.805870794752475|-0.6476533797713488|1.442268106848281|-0.9590169787406921|-0.2830165326595306|-0.435241311788559|-0.08409162610769272|-0.05445206165313721|0.01352018862962723|XArbitraryZVertical|0.5752755197540043|0.3434355075940219|0.4289348754721136|0.6059085215335105|-0.07733046263456345|-0.9917516112327576|-0.1022202596068382|0|0|0|-1|-1|3
2021-04-22 20:18:17.546 +0100|136367.97738|-0.147064208984375|-0.719482421875|-0.1123046875|136367.957417|1.683233471382798|-0.5306969499685478|1.431677925839644|-0.3362615406513214|-0.2188623696565628|-0.3192731440067291|-0.08237037062644958|0.1668980121612549|-0.09839010238647461|XArbitraryZVertical|0.5694895724675884|0.340415553829405|0.4283236263570959|0.6134638958096403|-0.07018637657165527|-0.9903386235237122|-0.1195977553725243|0|0|0|-1|-1|3
2021-04-22 20:18:17.561 +0100|136367.997342|-0.194793701171875|-0.996795654296875|-0.0276641845703125|136367.97738|1.649751749324812|-0.5014395853907262|1.430452214812217|0.2100221812725067|-0.1699373871088028|-0.2057056874036789|-0.05740717798471451|0.2596074342727661|-0.02972604334354401|XArbitraryZVertical|0.5687014971683755|0.3394797442113055|0.4267261780783657|0.615822303133908|-0.06724123656749725|-0.9901679158210754|-0.1226642206311226|0|0|0|-1|-1|3
2021-04-22 20:18:17.581 +0100|136368.0173060417|-0.2053985595703125|-1.162521362304688|-0.027496337890625|136367.997342|1.639033642425488|-0.4939537101706024|1.437200244217652|0.218049481511116|-0.1508837938308716|-0.2511056661605835|-0.1204414367675781|0.1489566564559937|0.05796653032302856|XArbitraryZVertical|0.5702111370013306|0.3409107602286605|0.42355679003941|0.6158237959086584|-0.06315167993307114|-0.9910892844200134|-0.1172782257199287|0|0|0|-1|-1|3
2021-04-22 20:18:17.601 +0100|136368.0372680417|-0.1852264404296875|-1.095184326171875|-0.0789794921875|136368.0173060417|1.60525091608124|-0.463464607243307|1.439942490883737|-0.2122884392738342|-0.154285192489624|-0.2802111804485321|-0.1399862170219421|-0.1244701743125916|0.09521628171205521|XArbitraryZVertical|0.5700722457440065|0.3415542477080865|0.4210285385013263|0.6173276104842064|-0.05833163484930992|-0.9914508461952209|-0.1167166605591774|0|0|0|-1|-1|3
2021-04-22 20:18:17.621 +0100|136368.0572310417|-0.1191253662109375|-0.97125244140625|-0.1321258544921875|136368.0372680417|1.539701591651517|-0.4012615548226505|1.435905043363766|-0.4423608779907227|-0.1107795163989067|-0.3402056992053986|-0.155556708574295|-0.1545308828353882|0.07530856132507324|XArbitraryZVertical|0.5673365223075726|0.340922830912043|0.4195696991254135|0.6211782166756432|-0.05252675712108612|-0.9909159541130066|-0.1238017901778221|0|0|0|-1|-1|3
2021-04-22 20:18:17.641 +0100|136368.0771930417|-0.0819854736328125|-0.8836212158203125|-0.140716552734375|136368.0572310417|1.472720984554348|-0.3364185462336543|1.431712779955695|-0.2226336598396301|-0.04200327396392822|-0.3564462065696716|-0.1048536598682404|-0.03982317447662354|0.02087914943695068|XArbitraryZVertical|0.5642116874447731|0.3409289081921782|0.4181837243858428|0.6249441828521102|-0.04576521366834641|-0.990343451499939|-0.1308653056621552|0|0|0|-1|-1|3
2021-04-22 20:18:17.661 +0100|136368.0971560417|-0.0506134033203125|-0.8910064697265625|-0.0801239013671875|136368.0771930417|1.426254029064812|-0.2904740317519853|1.433719947860631|0.2377923727035522|0.02939154580235481|-0.3147404789924622|-0.05954092741012573|0.06682205200195312|-0.01629340648651123|XArbitraryZVertical|0.5630631296683756|0.3427795791756537|0.4160751170807875|0.6263734833758681|-0.03913703560829163|-0.9906197190284729|-0.1309241503477097|0|0|0|-1|-1|3
2021-04-22 20:18:17.681 +0100|136368.1171180417|-0.03277587890625|-0.9208984375|-0.0363311767578125|136368.0971560417|1.402222246734643|-0.2656125831755094|1.443759182393281|0.5840082764625549|0.06347963958978653|-0.2701610922813416|-0.02544223889708519|0.1182844638824463|0.01672221720218658|XArbitraryZVertical|0.5645967455055748|0.3465603902065924|0.413040197734231|0.624919369092479|-0.03325770050287247|-0.9919416308403015|-0.1222528219223022|0|0|0|-1|-1|3
2021-04-22 20:18:17.701 +0100|136368.1370810417|-0.0290679931640625|-0.910675048828125|-0.00567626953125|136368.1171180417|1.389521773568395|-0.2518738981948593|1.456681607035583|0.6047186851501465|0.0418674424290657|-0.2007005512714386|-0.01477283611893654|0.07749545574188232|0.05528275668621063|XArbitraryZVertical|0.567303373496731|0.3507545823200123|0.4097590885069596|0.6222827636036931|-0.02837836556136608|-0.9934960007667542|-0.1102762073278427|0|0|0|-1|-1|3
2021-04-22 20:18:17.721 +0100|136368.1570430417|-0.00946044921875|-0.917327880859375|-0.001678466796875|136368.1370810417|1.385766310779283|-0.2475599976045876|1.468620095355048|0.5330590605735779|0.01810906454920769|-0.1351897120475769|-0.006301281973719597|0.08441466093063354|0.08076161891222|XArbitraryZVertical|0.57015628512967|0.354227173769661|0.4068649321853046|0.6196014470314828|-0.02499385736882687|-0.9947845339775085|-0.09888984262943268|0|0|0|-1|-1|3
2021-04-22 20:18:17.741 +0100|136368.1770060417|0.0001373291015625|-0.9257965087890625|-0.027496337890625|136368.1570430417|1.397818453461005|-0.259475948729798|1.477374843179433|0.4141042232513428|-0.002342095598578453|-0.05086878687143326|0.0008031446486711502|0.0751376748085022|0.08933878690004349|XArbitraryZVertical|0.5726645289633783|0.3563335309966053|0.4050028083708401|0.6172961557336849|-0.02393484674394131|-0.9956393837928772|-0.09016350656747818|0|0|0|-1|-1|3
2021-04-22 20:18:17.761 +0100|136368.1969680417|0.013336181640625|-0.9453582763671875|-0.0452728271484375|136368.1770060417|1.432471890819556|-0.2942402861622531|1.484131993063402|0.4296110272407532|-0.01533757522702217|0.04149523377418518|0.02614075317978859|0.0834662914276123|0.06904185563325882|XArbitraryZVertical|0.5751851305385185|0.3574126325348647|0.4039736303746581|0.6149988947136321|-0.02510250359773636|-0.9962469935417175|-0.08283655345439911|0|0|0|-1|-1|3
2021-04-22 20:18:17.781 +0100|136368.2169310417|0.026275634765625|-0.9919281005859375|-0.0415802001953125|136368.1969680417|1.49036453684066|-0.3523731984558453|1.492397147254449|0.5151452422142029|-0.02776431106030941|0.1129807829856873|0.03325662016868591|0.05961138010025024|0.03221703320741653|XArbitraryZVertical|0.5784812461954938|0.3586159652292229|0.4027568929266594|0.6119975876035613|-0.02703040838241577|-0.996928334236145|-0.07350807636976242|0|0|0|-1|-1|3
2021-04-22 20:18:17.801 +0100|136368.2368930417|0.0269012451171875|-0.9951171875|-0.045135498046875|136368.2169310417|1.581427407331031|-0.4440518415919892|1.501269260698396|0.5402718186378479|-0.06525102257728577|0.16346675157547|0.05049201473593712|0.02677381038665771|0.0186377689242363|XArbitraryZVertical|0.5824395717757117|0.3597164033587402|0.401414290333974|0.6084694377170268|-0.02984625846147537|-0.9975839853286743|-0.06273651123046875|0|0|0|-1|-1|3
2021-04-22 20:18:17.820 +0100|136368.2568560417|0.0262603759765625|-0.98199462890625|-0.0292510986328125|136368.2368930417|1.709359562050388|-0.5735116924021594|1.508827175861666|0.5445268750190735|-0.1166639775037766|0.2035903930664062|0.05942201614379883|-0.006207287311553955|0.005147337913513184|XArbitraryZVertical|0.5866992696012169|0.3602393676626825|0.4000762776085407|0.6049386055152848|-0.03360351920127869|-0.9980805516242981|-0.05202313140034676|0|0|0|-1|-1|3
2021-04-22 20:18:17.840 +0100|136368.2768180417|0.039093017578125|-0.9798126220703125|-0.01885986328125|136368.2568560417|1.885206454446591|-0.7517802535318029|1.515869537997836|0.6105635166168213|-0.1553930640220642|0.213299036026001|0.06267225742340088|0.01761102676391602|0.003192543983459473|XArbitraryZVertical|0.5914926098255393|0.3606720410591463|0.3982786195764987|0.6011875432324566|-0.03749464452266693|-0.9984918832778931|-0.04010434448719025|0|0|0|-1|-1|3
2021-04-22 20:18:17.861 +0100|136368.2967810417|0.0506591796875|-1.00506591796875|-0.0205841064453125|136368.2768180417|2.09617046637122|-0.9658938270758989|1.520718073078715|0.5345905423164368|-0.1922865658998489|0.2282352894544601|0.07410725951194763|0.01858258247375488|0.008173882961273193|XArbitraryZVertical|0.5962709341707894|0.3608691564149046|0.3962508923806952|0.5976787186082627|-0.041178148239851|-0.9987463355064392|-0.02846884913742542|0|0|0|-1|-1|3
2021-04-22 20:18:17.880 +0100|136368.3167430417|0.0289764404296875|-1.005035400390625|-0.042877197265625|136368.2967810417|2.285452895754544|-1.159092552687322|1.521916750696896|0.3795682489871979|-0.2266671806573868|0.2380436211824417|0.09176132082939148|0.01815366744995117|0.005132794380187988|XArbitraryZVertical|0.6003312749101677|0.3603135106649382|0.3944785895195653|0.5951161719100547|-0.04477887600660324|-0.9988056421279907|-0.01955306902527809|0|0|0|-1|-1|3
2021-04-22 20:18:17.900 +0100|136368.3367060417|0.0580596923828125|-0.9747314453125|-0.0449066162109375|136368.3167430417|2.420731343124834|-1.29884803194828|1.520860456410422|0.2778302431106567|-0.2349246293306351|0.2304949760437012|0.08876410126686096|-0.02848362922668457|-0.01796448230743408|XArbitraryZVertical|0.6035903023133328|0.3591302421607055|0.3929745264497721|0.5935279170708128|-0.04808357730507851|-0.9987534880638123|-0.01340843178331852|0|0|0|-1|-1|3
2021-04-22 20:18:17.920 +0100|136368.3566680417|0.0750579833984375|-1.025772094726562|-0.005767822265625|136368.3367060417|2.517264921504225|-1.399679941825503|1.519504587499673|0.2359844446182251|-0.2213908731937408|0.2069064825773239|0.08943372964859009|0.02534180879592896|-0.03883171081542969|XArbitraryZVertical|0.6062106651479099|0.35797104149374|0.3915464401343332|0.5925005402141964|-0.05052318423986435|-0.9986848831176758|-0.008730725385248661|0|0|0|-1|-1|3
2021-04-22 20:18:17.940 +0100|136368.3766310417|0.058380126953125|-1.04498291015625|0.0336456298828125|136368.3566680417|2.590638520120179|-1.477349240112087|1.518525550418031|0.1706725060939789|-0.2272549420595169|0.1994920670986176|0.1204148456454277|0.01300770044326782|-0.02155327796936035|XArbitraryZVertical|0.6084084285111507|0.3569332173673852|0.3899993014770275|0.5918941531218889|-0.05202435702085495|-0.9986342191696167|-0.004875725135207176|0|0|0|-1|-1|3
2021-04-22 20:18:17.960 +0100|136368.3965930417|0.0985870361328125|-1.034927368164062|0.052093505859375|136368.3766310417|2.626910323900777|-1.518044731139923|1.518038502976562|0.0686359778046608|-0.225526437163353|0.175790548324585|0.1111319214105606|-0.03984349966049194|0.02232617139816284|XArbitraryZVertical|0.6099414826544038|0.3557824592269385|0.3884868962024735|0.592003497635141|-0.05265962705016136|-0.9986086487770081|-0.002780458889901638|0|0|0|-1|-1|3
2021-04-22 20:18:17.980 +0100|136368.4165560417|0.096649169921875|-1.0521240234375|0.0399932861328125|136368.3965930417|2.632571999305272|-1.528408021832376|1.517840978585256|0.0205525029450655|-0.2554871737957001|0.1673976927995682|0.1323855221271515|-0.04417240619659424|0.0445702075958252|XArbitraryZVertical|0.6109781538541448|0.3543785206392959|0.3870625682851092|0.5927093038635282|-0.05288665369153023|-0.9985982179641724|-0.002243119291961193|0|0|0|-1|-1|3
2021-04-22 20:18:18.000 +0100|136368.4365180417|0.0934600830078125|-1.014938354492188|0.02020263671875|136368.4165560417|2.615221742358896|-1.516319043405545|1.517300460414668|-0.004013226367533207|-0.2720739841461182|0.1578913480043411|0.1518595516681671|-0.03707528114318848|0.05569100379943848|XArbitraryZVertical|0.6117961446951122|0.3524906476376296|0.385775875658212|0.5938290614840623|-0.05339400470256805|-0.9985694289207458|-0.002911641262471676|0|0|0|-1|-1|3
2021-04-22 20:18:18.020 +0100|136368.4564810417|0.0913543701171875|-1.025588989257812|0.0326690673828125|136368.4365180417|2.615807249474857|-1.522443921217073|1.517590323982843|0.09674214571714401|-0.2841034829616547|0.1248231455683708|0.1482463777065277|-0.04230880737304688|0.02706015110015869|XArbitraryZVertical|0.6128254276802325|0.3509411540929028|0.3839864157007391|0.594844461258797|-0.05312247574329376|-0.9985848665237427|-0.002570603042840958|0|0|0|-1|-1|3
2021-04-22 20:18:18.047 +0100|136368.4764430417|0.088897705078125|-1.061599731445312|0.066162109375|136368.4564810417|2.686381581121426|-1.598684973497691|1.51832618452404|0.206874892115593|-0.2931472957134247|0.08087281882762909|0.1442697644233704|-0.007785022258758545|0.01872408390045166|XArbitraryZVertical|0.6149166130829817|0.3501553952819514|0.3813537090886381|0.5948429631056408|-0.05242651700973511|-0.9986237287521362|0.001462483778595924|0|0|0|-1|-1|3
2021-04-22 20:18:18.061 +0100|136368.4964060417|0.0753173828125|-1.072006225585938|0.0770111083984375|136368.4964060417|2.841177919522539|-1.765599311689489|1.521535835227221|0.03071176446974277|-0.3138478994369507|-0.02623108588159084|0.1268043220043182|-0.07146471738815308|0.06111514568328857|XArbitraryZVertical|0.6187567826587563|0.3491506807952717|0.3750457923771843|0.5954617229987543|-0.04831252247095108|-0.9987869262695312|0.009532308205962181|0|0|0|-1|-1|3
2021-04-22 20:18:18.080 +0100|136368.5163680417|0.0638885498046875|-1.076416015625|0.0612335205078125||||||||||||||||||||||||3
2021-04-22 20:18:18.100 +0100|136368.5363310417|0.06622314453125|-1.039993286132812|0.05084228515625|136368.5163680417|2.863978760257084|-1.794732918750838|1.525334086312885|-0.07652321457862854|-0.3191580176353455|-0.09633871167898178|0.1107075810432434|-0.07540476322174072|0.0620952844619751|XArbitraryZVertical|0.6193365096155098|0.3485239172707759|0.3718570973106747|0.5972234596192462|-0.04431603476405144|-0.9989667534828186|0.01009326614439487|0|0|0|-1|-1|3
2021-04-22 20:18:18.120 +0100|136368.5562930417|0.051788330078125|-1.054885864257812|0.0516510009765625|136368.5363310417|2.862028062362459|-1.799083785161264|1.530742074870358|-0.09148409217596054|-0.304532915353775|-0.1601453870534897|0.1050359010696411|-0.05172085762023926|0.0421745777130127|XArbitraryZVertical|0.6192012164202122|0.3480253791059906|0.3685611272589277|0.5996925263726747|-0.03901055827736855|-0.9991979598999023|0.009063621982932091|0|0|0|-1|-1|3
2021-04-22 20:18:18.140 +0100|136368.5762560417|0.05181884765625|-1.053375244140625|0.048736572265625|136368.5562930417|2.872639757339015|-1.815519070384507|1.536950549800603|-0.1194167360663414|-0.2717436254024506|-0.2109873592853546|0.09072577953338623|-0.050209641456604|0.04670083522796631|XArbitraryZVertical|0.6188814978736105|0.347973276125046|0.3651003501435148|0.6021645169698778|-0.03283338248729706|-0.9994272589683533|0.008199418894946575|0|0|0|-1|-1|3
2021-04-22 20:18:18.160 +0100|136368.5962180417|0.0260009765625|-1.064453125|0.063385009765625|136368.5762560417|2.889383132642589|-1.837377801259197|1.543727336081327|-0.149762824177742|-0.2388125360012054|-0.2528151571750641|0.07908141613006592|-0.05125457048416138|0.03607988357543945|XArbitraryZVertical|0.6182812730278935|0.3482734312417185|0.3617140489771512|0.6046462216525436|-0.02611761726438999|-0.9996336698532104|0.007132230792194605|0|0|0|-1|-1|3
2021-04-22 20:18:18.180 +0100|136368.6161810417|0.023712158203125|-1.0614013671875|0.07476806640625|136368.5962180417|2.897984616635983|-1.850436148759178|1.551052011731055|-0.1818600744009018|-0.2048930823802948|-0.2945646941661835|0.05953076481819153|-0.06315290927886963|0.04989027976989746|XArbitraryZVertical|0.6173061901280996|0.3487970071996604|0.3584954774738095|0.6072519602573153|-0.01898762211203575|-0.9998050928115845|0.005452569108456373|0|0|0|-1|-1|3
2021-04-22 20:18:18.200 +0100|136368.6361430417|0.022064208984375|-1.041168212890625|0.07861328125|136368.6161810417|2.760149288354446|-1.716308526853932|1.558608122258786|-0.2594593465328217|-0.1693979799747467|-0.322660356760025|0.03663134574890137|-0.05938524007797241|0.07327389717102051|XArbitraryZVertical|0.6156213978982868|0.3491336196666225|0.3559054153198543|0.6102846940511815|-0.01206417009234428|-0.9999257326126099|0.00176797981839627|0|0|0|-1|-1|3
2021-04-22 20:18:18.220 +0100|136368.6561060417|0.013916015625|-1.01373291015625|0.076995849609375|136368.6361430417|1.962332891572956|-0.9217160658090465|1.563854682618748|-0.3339748978614807|-0.1512484401464462|-0.3282298147678375|0.02696120738983154|-0.05352151393890381|0.08122330904006958|XArbitraryZVertical|0.6132128929271364|0.3490894340413635|0.3539772431657617|0.6138459290464977|-0.005552562884986401|-0.9999759197235107|-0.004213029984384775|0|0|0|-1|-1|3
2021-04-22 20:18:18.240 +0100|136368.6760680417|0.0134735107421875|-1.0377197265625|0.06103515625|136368.6561060417|0.9037577750171653|0.1340311403607841|1.5605895198873|-0.308623731136322|-0.1283688545227051|-0.3199373781681061|0.01496058702468872|-0.02298617362976074|0.08650636672973633|XArbitraryZVertical|0.6106725375793106|0.3493001451468007|0.3520156022500752|0.6173764683014619|0.001366857788525522|-0.9999479055404663|-0.0101369209587574|0|0|0|-1|-1|3
2021-04-22 20:18:18.260 +0100|136368.6960310417|0.004974365234375|-1.01104736328125|0.052947998046875|136368.6760680417|0.5238626068698388|0.5114913523702693|1.553719296485466|-0.2909665107727051|-0.1181250438094139|-0.3065858483314514|0.005017757415771484|-0.02494150400161743|0.08850950002670288|XArbitraryZVertical|0.6083931843607353|0.3498667905153574|0.3499415385800675|0.6204773200349766|0.008364723064005375|-0.9998542070388794|-0.01490192394703627|0|0|0|-1|-1|3
2021-04-22 20:18:18.280 +0100|136368.7159930417|-0.002960205078125|-1.026077270507812|0.0585784912109375|136368.6960310417|0.3540991475753134|0.6790496007692594|1.547612291371067|-0.1654949635267258|-0.09818537533283234|-0.2825116813182831|-0.001192095689475536|-0.02472853660583496|0.07318377494812012|XArbitraryZVertical|0.6067108890699363|0.3505456533593136|0.3478938963718474|0.6228880093450552|0.01455933786928654|-0.9997312426567078|-0.01803928427398205|0|0|0|-1|-1|3
2021-04-22 20:18:18.300 +0100|136368.7359560417|0.0041656494140625|-1.001083374023438|0.0494384765625|136368.7159930417|0.1957087113642053|0.8357104904789233|1.543383219181094|-0.06930674612522125|-0.07794231176376343|-0.2744635343551636|-0.0245615541934967|-0.01684004068374634|0.07304173707962036|XArbitraryZVertical|0.6058842689852587|0.3517263742311114|0.3456279028180504|0.6242870337096481|0.02033541165292263|-0.9996243119239807|-0.01838562078773975|0|0|0|-1|-1|3
2021-04-22 20:18:18.320 +0100|136368.7559180417|0.002471923828125|-0.9691619873046875|0.047637939453125|136368.7359560417|0.06875993980929065|0.9613088503886748|1.539608038216445|-0.0644100084900856|-0.05930966883897781|-0.2458842545747757|-0.02722039818763733|-0.02200132608413696|0.07368499040603638|XArbitraryZVertical|0.6053557895048814|0.3530118860111359|0.3434921370862579|0.6252521934939204|0.0255730040371418|-0.9995136857032776|-0.01785395294427872|0|0|0|-1|-1|3
2021-04-22 20:18:18.339 +0100|136368.7758810417|0.011505126953125|-0.951568603515625|0.0571746826171875|136368.7559180417|-0.02111242369166495|1.050254954138032|1.536182233480772|-0.05251982435584068|-0.03291912376880646|-0.2183950245380402|-0.02737236022949219|0.01479697227478027|0.06579756736755371|XArbitraryZVertical|0.6049230368992009|0.3542045954373015|0.341710179898862|0.6259724905746558|0.03002794645726681|-0.9994009733200073|-0.01721444725990295|0|0|0|-1|-1|3
2021-04-22 20:18:18.360 +0100|136368.7958430417|0.0186767578125|-0.960205078125|0.0509490966796875|136368.7758810417|-0.09107643314580978|1.119884977591072|1.533219687501977|-0.05165999010205269|-0.005199827253818512|-0.190464586019516|-0.02798759937286377|0.046642005443573|0.0648651123046875|XArbitraryZVertical|0.6045649687574035|0.3554074393429443|0.3402836100615769|0.6264135926623188|0.03381700068712234|-0.999294102191925|-0.01637350209057331|0|0|0|-1|-1|3
2021-04-22 20:18:18.379 +0100|136368.8158060417|0.021026611328125|-0.949737548828125|0.0454559326171875|136368.7958430417|-0.130638572259404|1.159544792523417|1.531025480038772|-0.1168814897537231|0.01094707753509283|-0.1499587148427963|-0.01731312647461891|0.03784441947937012|0.06981950998306274|XArbitraryZVertical|0.6042233569568012|0.3563232278878117|0.3394138639113664|0.6266947050580041|0.03644819185137749|-0.9992092251777649|-0.0158957839012146|0|0|0|-1|-1|3
2021-04-22 20:18:18.399 +0100|136368.8357680417|0.0191192626953125|-0.967132568359375|0.0345611572265625|136368.8158060417|-0.1395830204432817|1.168986133158594|1.529147589102211|-0.1186662763357162|0.03613861277699471|-0.1350430548191071|-0.0213417112827301|0.04751831293106079|0.06685233116149902|XArbitraryZVertical|0.6036763524269603|0.3569763350060458|0.3390523382202263|0.6270458429404874|0.03832529485225677|-0.9991328120231628|-0.01628551632165909|0|0|0|-1|-1|3
2021-04-22 20:18:18.419 +0100|136368.8557310417|0.03460693359375|-0.965728759765625|0.028900146484375|136368.8357680417|-0.1526595796370049|1.183264519387884|1.527533073860907|-0.09385310113430023|0.08509454131126404|-0.1233427226543427|-0.01872906088829041|0.04484051465988159|0.05465972423553467|XArbitraryZVertical|0.6031323834884754|0.3578525723579604|0.3389042519040849|0.627149855894693|0.04004611819982529|-0.9990642666816711|-0.01634572818875313|0|0|0|-1|-1|3
2021-04-22 20:18:18.439 +0100|136368.8756930417|0.0410003662109375|-0.951904296875|0.0420379638671875|136368.8557310417|-0.153153375927082|1.185916179429795|1.525817954504962|-0.1097295805811882|0.1270881146192551|-0.1032279506325722|-0.01976528763771057|0.01688706874847412|0.04393583536148071|XArbitraryZVertical|0.602284069721577|0.3589045781539945|0.339166006379135|0.6272224491962944|0.04167745262384415|-0.9989886283874512|-0.01688280701637268|0|0|0|-1|-1|3
2021-04-22 20:18:18.459 +0100|136368.8956560417|0.044708251953125|-0.9907073974609375|0.0671539306640625|136368.8756930417|-0.1666599162944624|1.202616249348922|1.524625357765596|-0.03368931263685226|0.1838617026805878|-0.07985090464353561|-0.002323120832443237|0.04884570837020874|0.04593968391418457|XArbitraryZVertical|0.6015416066644836|0.3603347777449024|0.3396888797348899|0.6268318498898003|0.04306464269757271|-0.9989343285560608|-0.01661308668553829|0|0|0|-1|-1|3
2021-04-22 20:18:18.479 +0100|136368.9156180417|0.0702667236328125|-0.9849700927734375|0.0731048583984375|136368.8956560417|-0.1772939368867134|1.217567270930934|1.523868675179262|-0.1121874675154686|0.2409354746341705|-0.05133173614740372|-0.006448123604059219|0.03156816959381104|0.07208991050720215|XArbitraryZVertical|0.6007075865522963|0.3619892979741486|0.3406787793875596|0.6261407149526971|0.04401582106947899|-0.9988991022109985|-0.01622828654944897|0|0|0|-1|-1|3
2021-04-22 20:18:18.499 +0100|136368.9355810417|0.050262451171875|-0.9899139404296875|0.052764892578125|136368.9156180417|-0.1338873804788462|1.179447466075486|1.522987825724835|-0.202110230922699|0.2829439342021942|-0.004473059438169003|0.01861044391989708|0.009523212909698486|0.09270745515823364|XArbitraryZVertical|0.5990999048560873|0.3632688307742098|0.3426317195117791|0.6258743632960786|0.04418003559112549|-0.9988573789596558|-0.01823012158274651|0|0|0|-1|-1|3
2021-04-22 20:18:18.519 +0100|136368.9555430417|0.0569000244140625|-1.0015869140625|0.03997802734375|136368.9355810417|-0.06953037241003436|1.121376452901081|1.522482677397911|-0.1925060749053955|0.3379659056663513|0.02641747891902924|0.01617509499192238|0.01056694984436035|0.08938741683959961|XArbitraryZVertical|0.597229785601977|0.3644517397404964|0.3452906748365856|0.6255126304288317|0.04350258037447929|-0.9988331198692322|-0.020983025431633|0|0|0|-1|-1|3
2021-04-22 20:18:18.546 +0100|136368.9755060417|0.0520172119140625|-0.996124267578125|0.0279998779296875|136368.9555430417|-0.01637398616035709|1.075542968011727|1.52211731578591|-0.1537939161062241|0.3850120902061462|0.04756146669387817|0.01204034686088562|-0.002893686294555664|0.06698000431060791|XArbitraryZVertical|0.5953567975856097|0.3660420168366917|0.348170010865434|0.6247729999482202|0.04281557351350784|-0.9988154172897339|-0.02312705107033253|0|0|0|-1|-1|3
2021-04-22 20:18:18.560 +0100|136368.9954680417|0.045806884765625|-1.006546020507812|0.018280029296875|136368.9755060417|-0.002868074631213285|1.070136020998857|1.522978313575952|-0.01144327968358994|0.4178473055362701|0.04677370563149452|0.01064541935920715|0.007523775100708008|0.05428695678710938|XArbitraryZVertical|0.5940895011671113|0.3682180704979861|0.3509355146913361|0.623151342521324|0.0419369600713253|-0.9988569617271423|-0.02294623479247093|0|0|0|-1|-1|3
2021-04-22 20:18:18.579 +0100|136369.015430875|0.042572021484375|-0.996612548828125|0.015716552734375|136368.9954680417|-0.03937453999250082|1.115264659340341|1.524783633333769|0.04122662171721458|0.4378449618816376|0.04144587367773056|-0.0007807910442352295|-0.004735827445983887|0.04150694608688354|XArbitraryZVertical|0.5934461334083088|0.3710838216400905|0.3533268343321029|0.6207082811363898|0.04130871593952179|-0.9989416003227234|-0.02023696899414062|0|0|0|-1|-1|3
2021-04-22 20:18:18.600 +0100|136369.035392875|0.0496673583984375|-1.008560180664062|-0.0034332275390625|136369.015430875|-0.09909714190291534|1.183558232039498|1.526699815117966|0.07469441741704941|0.422602117061615|0.05482994765043259|0.009836737066507339|-0.006129741668701172|0.0330970287322998|XArbitraryZVertical|0.5930396310618357|0.3741384346365261|0.3554834560291359|0.6180260309886972|0.04082302749156952|-0.9990279078483582|-0.01664885506033897|0|0|0|-1|-1|3
2021-04-22 20:18:18.619 +0100|136369.055355875|0.03662109375|-1.00836181640625|-0.0343475341796875|136369.035392875|-0.1523629556757408|1.245042989694155|1.52882156693182|0.05825046449899673|0.3941246867179871|0.08656603097915649|0.002432491630315781|-0.006938636302947998|0.01974630355834961|XArbitraryZVertical|0.5926790308328014|0.3768508880707397|0.3577595267992228|0.6154049328327921|0.03975865244865417|-0.9991191625595093|-0.01342994906008244|0|0|0|-1|-1|3
2021-04-22 20:18:18.639 +0100|136369.075317875|0.0247344970703125|-1.031173706054688|-0.05914306640625|136369.055355875|-0.200123407312808|1.300348359275162|1.531364748746384|0.1051394417881966|0.3655667901039124|0.1216109246015549|0.008687552064657211|-0.006545126438140869|-0.006894051097333431|XArbitraryZVertical|0.5924692989269987|0.3790962823869529|0.3600864123714919|0.6128653727979128|0.03798967972397804|-0.9992226958274841|-0.01053227670490742|0|0|0|-1|-1|3
2021-04-22 20:18:18.659 +0100|136369.095280875|0.0106353759765625|-1.052139282226562|-0.089813232421875|136369.075317875|-0.273392097879256|1.380549180306982|1.534619893465442|0.1625721901655197|0.3257820904254913|0.1381755322217941|-0.006301280111074448|-0.02075034379959106|-0.04049277305603027|XArbitraryZVertical|0.5927403429141993|0.3811016878655094|0.3622749805450901|0.6100634955338797|0.0355224646627903|-0.9993457198143005|-0.006840778980404139|0|0|0|-1|-1|3
2021-04-22 20:18:18.679 +0100|136369.115242875|-0.015594482421875|-1.010574340820312|-0.1009368896484375|136369.095280875|-0.3716480745920409|1.484757714464374|1.537747311078627|0.1620758324861526|0.2690846920013428|0.1466910690069199|-0.014460239559412|-0.0385863184928894|-0.06767189502716064|XArbitraryZVertical|0.5933060774680695|0.3828420369822982|0.3641330123072044|0.6073113945948879|0.03292400389909744|-0.9994539022445679|-0.002839746419340372|0|0|0|-1|-1|3
2021-04-22 20:18:18.699 +0100|136369.135205875|-0.0293731689453125|-1.004806518554688|-0.1224822998046875|136369.115242875|-0.4749721272045854|1.59265620244908|1.540536437718834|0.1493882983922958|0.1975319236516953|0.1317665278911591|-0.03255909308791161|-0.0337526798248291|-0.09306955337524414|XArbitraryZVertical|0.593992580987578|0.3840619203740854|0.3656725840669211|0.6049405310463878|0.0302556399255991|-0.9995421767234802|0.0006614899029955268|0|0|0|-1|-1|3
2021-04-22 20:18:18.719 +0100|136369.155167875|-0.06402587890625|-0.97991943359375|-0.1468505859375|136369.135205875|-0.5414769848086917|1.662200994560947|1.542644192004648|0.04749859869480133|0.1027099713683128|0.1353974044322968|-0.04435211047530174|-0.005431890487670898|-0.1145399808883667|XArbitraryZVertical|0.5944054511454241|0.3846651582080111|0.3669019299697739|0.6034054495672179|0.02804109081625938|-0.9996037483215332|0.002570248674601316|0|0|0|-1|-1|3
2021-04-22 20:18:18.739 +0100|136369.175130875|-0.08795166015625|-0.9550628662109375|-0.1939239501953125|136369.155167875|-0.4934059112483734|1.615112885594591|1.545322049772538|-0.1046209111809731|-0.002059108577668667|0.1446203738451004|-0.07413700222969055|0.009349644184112549|-0.1320344209671021|XArbitraryZVertical|0.5942825009096443|0.3839173566209218|0.3682546236231427|0.6031785083057565|0.02544683963060379|-0.9996755719184875|0.00112845515832305|0|0|0|-1|-1|3
2021-04-22 20:18:18.759 +0100|136369.195092875|-0.0953521728515625|-0.98126220703125|-0.21478271484375|136369.175130875|-0.3278418450151913|1.448608967656581|1.5479965929403|-0.1303602457046509|-0.09193450957536697|0.1397632956504822|-0.1005048453807831|0.0267784595489502|-0.1692787408828735|XArbitraryZVertical|0.593830971036131|0.3820663557259946|0.3695502069933435|0.6040057951069541|0.02263986878097057|-0.9997401237487793|-0.002780155278742313|0|0|0|-1|-1|3
2021-04-22 20:18:18.779 +0100|136369.215055875|-0.092315673828125|-1.006698608398438|-0.1906280517578125|136369.195092875|-0.1328894764946027|1.251339256263333|1.550098845509075|-0.07102174311876297|-0.1352569013834|0.1383896470069885|-0.1090930104255676|0.04457008838653564|-0.2034120559692383|XArbitraryZVertical|0.5937233086152724|0.3797903204737358|0.3704445949593803|0.6049983733847978|0.01966187171638012|-0.999785840511322|-0.006503890734165907|0|0|0|-1|-1|3
2021-04-22 20:18:18.799 +0100|136369.235017875|-0.0942840576171875|-1.02923583984375|-0.1576690673828125|136369.215055875|0.09859035567387257|1.016857313747541|1.551741258350884|-0.09211867302656174|-0.1529714018106461|0.1568142771720886|-0.1080935299396515|0.00161898136138916|-0.1965656280517578|XArbitraryZVertical|0.5938866148551052|0.377209174208664|0.3712375653531119|0.6059658601060885|0.01620572060346603|-0.9998184442520142|-0.01002385560423136|0|0|0|-1|-1|3
2021-04-22 20:18:18.818 +0100|136369.254980875|-0.09033203125|-1.037200927734375|-0.12445068359375|136369.235017875|0.4385563410830742|0.6740035777962723|1.551804263872158|-0.1648200303316116|-0.1320387870073318|0.1849637925624847|-0.1081080436706543|-0.02683752775192261|-0.1619769334793091|XArbitraryZVertical|0.5937968488386441|0.3741443017320515|0.3725665346473237|0.6071372437352747|0.0118562113493681|-0.9998196363449097|-0.01484268717467785|0|0|0|-1|-1|3
2021-04-22 20:18:18.839 +0100|136369.274942875|-0.0850982666015625|-1.032928466796875|-0.1071319580078125|136369.254980875|0.8341951350866699|0.2761909248399701|1.547680331327692|-0.2886044681072235|-0.08471190929412842|0.2149316519498825|-0.0973379909992218|-0.02986931800842285|-0.1164593696594238|XArbitraryZVertical|0.5930008391204067|0.370443106589108|0.3749456862596434|0.6087181501328471|0.006304671987891197|-0.9997328519821167|-0.02224381826817989|0|0|0|-1|-1|3
2021-04-22 20:18:18.859 +0100|136369.294905875|-0.074493408203125|-0.993865966796875|-0.114166259765625|136369.274942875|1.101820570731983|0.00747423015309171|1.537884170754745|-0.3937748372554779|-0.0278216227889061|0.210126593708992|-0.0918133556842804|-0.04120630025863647|-0.07948756217956543|XArbitraryZVertical|0.5910828992493307|0.3662871662642247|0.378396214274287|0.6109592162909286|0.0002459772804286331|-0.9994584321975708|-0.03290943428874016|0|0|0|-1|-1|3
2021-04-22 20:18:18.878 +0100|136369.314867875|-0.0688934326171875|-0.9689483642578125|-0.1228179931640625|136369.294905875|1.234281200233147|-0.1249784535828042|1.525914416441308|-0.4027367532253265|0.02584980800747871|0.1958847194910049|-0.06984564661979675|-0.01446539163589478|-0.06212437152862549|XArbitraryZVertical|0.5886071751137811|0.3623279703049584|0.3822741687391202|0.6132916479186705|-0.005593201145529747|-0.9989929795265198|-0.0445200689136982|0|0|0|-1|-1|3
2021-04-22 20:18:18.898 +0100|136369.334830875|-0.0585479736328125|-0.9494781494140625|-0.10687255859375|136369.314867875|1.307842243484827|-0.1975498412599441|1.515280086836199|-0.3118447661399841|0.0698951855301857|0.1791862547397614|-0.06610432267189026|0.008835256099700928|-0.06865197420120239|XArbitraryZVertical|0.5863604972656304|0.3591321355872664|0.3859656080920794|0.6150090826992515|-0.01089092157781124|-0.9984593987464905|-0.05441095307469368|0|0|0|-1|-1|3
2021-04-22 20:18:18.918 +0100|136369.354792875|-0.066314697265625|-0.96661376953125|-0.1000823974609375|136369.334830875|1.364617068138457|-0.2526426157781634|1.507591194892508|-0.1943064779043198|0.09179627895355225|0.1664698421955109|-0.04304859042167664|0.04834192991256714|-0.05857765302062035|XArbitraryZVertical|0.5848748345611259|0.3568501144718086|0.3891733660749145|0.6157301165129444|-0.01578869111835957|-0.9980032444000244|-0.06115884706377983|0|0|0|-1|-1|3
2021-04-22 20:18:18.938 +0100|136369.374755875|-0.05120849609375|-0.9394378662109375|-0.0922393798828125|136369.354792875|1.412058786879687|-0.2978884448826898|1.502311047431616|-0.1318694204092026|0.1192521303892136|0.1429171860218048|-0.05025720596313477|0.03632152080535889|-0.03602218627929688|XArbitraryZVertical|0.583953612870962|0.3553711874582456|0.3919049879305845|0.6157272615444058|-0.02008521184325218|-0.9976558089256287|-0.06541899591684341|0|0|0|-1|-1|3
2021-04-22 20:18:18.959 +0100|136369.394717875|-0.0519561767578125|-0.944976806640625|-0.0889892578125|136369.374755875|1.451894963652726|-0.3352334311556686|1.498340088974306|-0.08556124567985535|0.1270774602890015|0.1336446851491928|-0.02659714221954346|0.04791319370269775|-0.02494299411773682|XArbitraryZVertical|0.5832830192174328|0.354398487507097|0.3943185228104466|0.6153825803116063|-0.0238172858953476|-0.9973762035369873|-0.06836526095867157|0|0|0|-1|-1|3
2021-04-22 20:18:18.978 +0100|136369.414680875|-0.04248046875|-0.9754638671875|-0.096588134765625|136369.394717875|1.488077636550542|-0.3689138083610365|1.495567018858435|0.02187363058328629|0.119145393371582|0.1115806624293327|-0.02077877335250378|0.05332392454147339|-0.02235107868909836|XArbitraryZVertical|0.5829035873508495|0.3537966234058778|0.3963816365517971|0.6147625922080886|-0.02710269764065742|-0.9971715807914734|-0.07010271400213242|0|0|0|-1|-1|3
2021-04-22 20:18:18.998 +0100|136369.434642875|-0.04052734375|-0.96258544921875|-0.1066131591796875|136369.414680875|1.519820091524098|-0.3981800895022276|1.494416523946742|0.04950723797082901|0.1138468831777573|0.08632421493530273|-0.0291894618421793|0.04174703359603882|-0.02321647107601166|XArbitraryZVertical|0.5828491697561644|0.3537214618846417|0.397923114611008|0.6138608632944622|-0.02958679012954235|-0.9970844984054565|-0.07033594697713852|0|0|0|-1|-1|3
2021-04-22 20:18:19.018 +0100|136369.454605875|-0.064239501953125|-0.9832916259765625|-0.110565185546875|136369.434642875|1.550534260353329|-0.4269787742368985|1.493393992929337|0.05131366103887558|0.07734362035989761|0.09134126454591751|0.0002702176570892334|0.02318990230560303|-0.02692079544067383|XArbitraryZVertical|0.5829427527351807|0.3535323092024708|0.3992422686776112|0.6130240481713266|-0.03202315792441368|-0.9970059394836426|-0.07038530707359314|0|0|0|-1|-1|3
2021-04-22 20:18:19.047 +0100|136369.474567875|-0.063568115234375|-1.000152587890625|-0.098052978515625|136369.454605875|1.58403558786493|-0.4590881618600233|1.494006414059697|0.1518799364566803|0.05317123234272003|0.06698532402515411|-0.01846328750252724|0.02808928489685059|-0.04716325551271439|XArbitraryZVertical|0.5835583474973381|0.3536562696041223|0.3999593506089027|0.6118984008710155|-0.03399582207202911|-0.9970530867576599|-0.06877379864454269|0|0|0|-1|-1|3
2021-04-22 20:18:19.061 +0100|136369.494530875|-0.0629730224609375|-0.98358154296875|-0.0982513427734375|136369.474567875|1.613493059687265|-0.487625253962882|1.495307624683479|0.09914082288742065|0.0295102670788765|0.04839210957288742|-0.04011788964271545|0.002584099769592285|-0.03778755664825439|XArbitraryZVertical|0.5843054271498305|0.3539386912783094|0.4002458794975634|0.6108338567489339|-0.0353362075984478|-0.9971520900726318|-0.06662914156913757|0|0|0|-1|-1|3
2021-04-22 20:18:19.079 +0100|136369.514493875|-0.0706787109375|-0.9864959716796875|-0.0983428955078125|136369.494530875|1.633374912102804|-0.5072318231472415|1.494799583084481|-0.01117882784456015|-0.008059156127274036|0.06443028897047043|-0.02306976541876793|0.006558716297149658|-0.03583847731351852|XArbitraryZVertical|0.5846213979412402|0.3536028553357588|0.4007392191033639|0.6104023692350362|-0.03688140213489532|-0.9971136450767517|-0.06636568158864975|0|0|0|-1|-1|3
2021-04-22 20:18:19.098 +0100|136369.534455875|-0.059295654296875|-0.9852294921875|-0.106414794921875|136369.514493875|1.635945412544594|-0.5100904688860077|1.492386891002248|-0.1319971233606339|-0.02335379645228386|0.07096798717975616|-0.03504248708486557|0.01771008968353271|-0.02316479384899139|XArbitraryZVertical|0.5843050332055358|0.3527159620798953|0.4014191963949993|0.6107714277047057|-0.03824485093355179|-0.9969275593757629|-0.0683581531047821|0|0|0|-1|-1|3
2021-04-22 20:18:19.118 +0100|136369.554418875|-0.0835418701171875|-1.016983032226562|-0.118194580078125|136369.534455875|1.628099250850521|-0.5030838428038847|1.487050957132403|-0.2723292112350464|-0.05934982746839523|0.1145418360829353|-0.01820165291428566|0.01126569509506226|-0.02578974515199661|XArbitraryZVertical|0.5833055574871134|0.3508724308800608|0.4026785767274908|0.6119586674194455|-0.04033045470714569|-0.9964954257011414|-0.07328632473945618|0|0|0|-1|-1|3
2021-04-22 20:18:19.138 +0100|136369.574380875|-0.1033782958984375|-1.035797119140625|-0.115692138671875|136369.554418875|1.625109312585228|-0.5017661952121294|1.480206560625375|-0.2636034488677979|-0.09510255604982376|0.1333756148815155|-0.02234342694282532|-0.01336264610290527|-0.04008430242538452|XArbitraryZVertical|0.5823008516757402|0.3482347570904076|0.4042045444102886|0.6134143611058038|-0.04351289942860603|-0.9958995580673218|-0.07931654155254364|0|0|0|-1|-1|3
2021-04-22 20:18:19.158 +0100|136369.594343875|-0.0977935791015625|-1.022872924804688|-0.1089324951171875|136369.574380875|1.623643216933678|-0.5022640908426907|1.474274312278143|-0.2359043955802917|-0.1030840501189232|0.1070115715265274|-0.0629335343837738|-0.02966386079788208|-0.03750907629728317|XArbitraryZVertical|0.5815547076029051|0.3457728622730877|0.4053880211120804|0.6147323748328177|-0.04639507830142975|-0.9953453540802002|-0.08447050303220749|0|0|0|-1|-1|3
2021-04-22 20:18:19.178 +0100|136369.614305875|-0.095611572265625|-1.000274658203125|-0.10888671875|136369.594343875|1.623509957948751|-0.5043227360638493|1.468861841083748|-0.2303344756364822|-0.1067128702998161|0.1082484275102615|-0.04224276542663574|-0.03245842456817627|-0.02199345827102661|XArbitraryZVertical|0.5809863033761724|0.3433791883328404|0.4063689893457725|0.6159627737364919|-0.04917204007506371|-0.9948091506958008|-0.08909129351377487|0|0|0|-1|-1|3
2021-04-22 20:18:19.198 +0100|136369.634268875|-0.0888214111328125|-0.960540771484375|-0.1214752197265625|136369.614305875|1.61966905389058|-0.5025088090091602|1.463053982626461|-0.2849489152431488|-0.08908551186323166|0.1097685620188713|-0.05064039677381516|-0.0250551700592041|-0.0157456248998642|XArbitraryZVertical|0.5801853814988849|0.3409760625748336|0.4074452383822552|0.6173399769387051|-0.0517912320792675|-0.9942014217376709|-0.09424049407243729|0|0|0|-1|-1|3
2021-04-22 20:18:19.218 +0100|136369.654230875|-0.098907470703125|-0.97113037109375|-0.1147308349609375|136369.634268875|1.613733158014043|-0.4982158638253901|1.456677066239061|-0.2515521943569183|-0.06423161178827286|0.1160745769739151|-0.0359928235411644|0.01395750045776367|-0.01537345349788666|XArbitraryZVertical|0.5791083711420446|0.3385538580845394|0.4087510268257731|0.6188193975484951|-0.05441489443182945|-0.9934954643249512|-0.1000295579433441|0|0|0|-1|-1|3
2021-04-22 20:18:19.238 +0100|136369.674193875|-0.085113525390625|-0.959228515625|-0.1215362548828125|136369.654230875|1.61776154369085|-0.503287035954831|1.45110619292188|-0.2152952700853348|-0.03279001638293266|0.1177797019481659|-0.0339774489402771|0.02902424335479736|-0.01648026704788208|XArbitraryZVertical|0.5784050178795421|0.3363749672033904|0.4101835533180269|0.6197168957720671|-0.05758994817733765|-0.9928456544876099|-0.1045990362763405|0|0|0|-1|-1|3
2021-04-22 20:18:19.258 +0100|136369.694155875|-0.083770751953125|-0.9340057373046875|-0.1285400390625|136369.674193875|1.621739751354565|-0.5076744687710559|1.445796554263363|-0.2006127685308456|-0.004483223892748356|0.1150069981813431|-0.02988895401358604|0.02233380079269409|-0.008817426860332489|XArbitraryZVertical|0.5776301934699273|0.3344667397532277|0.4117252423972238|0.6204496446815132|-0.0606103241443634|-0.9921976923942566|-0.1089507192373276|0|0|0|-1|-1|3
2021-04-22 20:18:19.278 +0100|136369.714118875|-0.0694732666015625|-0.9356842041015625|-0.1158447265625|136369.694155875|1.631514671229596|-0.5171132068436621|1.44194563660914|-0.08064457029104233|0.04009255394339561|0.1111813634634018|-0.02543348073959351|0.04732847213745117|-0.01519829034805298|XArbitraryZVertical|0.5772190064441666|0.3331229754683108|0.4131789433974138|0.6205889121301934|-0.06352462619543076|-0.9917102456092834|-0.1116946041584015|0|0|0|-1|-1|3
2021-04-22 20:18:19.298 +0100|136369.734080875|-0.073638916015625|-0.962677001953125|-0.1100616455078125|136369.714118875|1.648609413759899|-0.5329165892841606|1.43990347002316|-0.0007701620925217867|0.08165757358074188|0.1281108111143112|-0.00494721531867981|0.06448948383331299|-0.01038229465484619|XArbitraryZVertical|0.5772667618079581|0.3324943269745421|0.4145311528283526|0.6199796071696706|-0.06631071120500565|-0.991445779800415|-0.1124212145805359|0|0|0|-1|-1|3
2021-04-22 20:18:19.318 +0100|136369.754043875|-0.072296142578125|-0.935333251953125|-0.109588623046875|136369.734080875|1.668311066599276|-0.5504738467015278|1.438022798270414|-0.0108750443905592|0.1182044073939323|0.1396975219249725|-0.005259238183498383|0.03088670969009399|-0.0003018230199813843|XArbitraryZVertical|0.5773013395483766|0.332128505131064|0.4161341428747176|0.6190688171239768|-0.06924879550933838|-0.9911985397338867|-0.1128276363015175|0|0|0|-1|-1|3
2021-04-22 20:18:19.337 +0100|136369.774005875|-0.0839385986328125|-0.9773406982421875|-0.0990753173828125|136369.754043875|1.691444409028728|-0.5707606486316665|1.436352469846115|0.05731219798326492|0.1496564298868179|0.1472360491752625|0.002106577157974243|0.04656374454498291|0.003097712993621826|XArbitraryZVertical|0.5774006438185152|0.3319812251695584|0.4179411235506379|0.6178368733864388|-0.0724184662103653|-0.9909760355949402|-0.1127939224243164|0|0|0|-1|-1|3
2021-04-22 20:18:19.358 +0100|136369.793968875|-0.0753173828125|-0.9637603759765625|-0.10894775390625|136369.774005875|1.71648435336144|-0.5922977154550466|1.435601521413299|0.08180411159992218|0.1780221909284592|0.1384445130825043|-0.001795023679733276|0.0369870662689209|0.009270250797271729|XArbitraryZVertical|0.577627075677825|0.3323165367635388|0.4196790752867018|0.6162648270492271|-0.07524600625038147|-0.9908750653266907|-0.1118253618478775|0|0|0|-1|-1|3
2021-04-22 20:18:19.377 +0100|136369.813930875|-0.086090087890625|-0.9690704345703125|-0.115203857421875|136369.793968875|1.739025239162854|-0.6108215144267126|1.434876214468592|0.09187716245651245|0.1953132897615433|0.1410402804613113|-0.0002248883247375488|0.01557254791259766|0.00965118408203125|XArbitraryZVertical|0.5776582382439335|0.3328821569905597|0.421491443235592|0.6146914083405656|-0.0777164027094841|-0.9907770752906799|-0.1110008582472801|0|0|0|-1|-1|3
2021-04-22 20:18:19.397 +0100|136369.833893875|-0.075836181640625|-0.9578857421875|-0.11572265625|136369.813930875|1.764675166041145|-0.6320735575307636|1.43509899742492|0.140682652592659|0.2149820178747177|0.1351891458034515|-0.001568712294101715|0.02162981033325195|-0.0006407648324966431|XArbitraryZVertical|0.577904387299663|0.3338457616254666|0.4231534222513171|0.6127927897823402|-0.07992788404226303|-0.9908072352409363|-0.1091470494866371|0|0|0|-1|-1|3
2021-04-22 20:18:19.417 +0100|136369.853855875|-0.0672454833984375|-0.9929656982421875|-0.1161956787109375|136369.833893875|1.792877909436556|-0.6556168513635056|1.435903826270232|0.1681266129016876|0.2207040935754776|0.1315499395132065|0.001239955425262451|0.02488172054290771|-0.005611002445220947|XArbitraryZVertical|0.5782946554481495|0.3350729110134048|0.4247190161013893|0.6106680331878723|-0.08198884129524231|-0.9909157752990723|-0.1066028699278831|0|0|0|-1|-1|3
2021-04-22 20:18:19.437 +0100|136369.873818875|-0.0808258056640625|-1.008560180664062|-0.1201324462890625|136369.853855875|1.823814760173013|-0.6817656230040443|1.43706441653367|0.1795060336589813|0.2238661646842957|0.12629534304142|0.01377213001251221|0.02699029445648193|-0.01434558629989624|XArbitraryZVertical|0.5788204616788152|0.3364553331409396|0.426210726534252|0.6083660735055009|-0.08402296155691147|-0.9910712242126465|-0.1035293638706207|0|0|0|-1|-1|3
2021-04-22 20:18:19.457 +0100|136369.893780875|-0.0676422119140625|-1.022125244140625|-0.1216583251953125|136369.873818875|1.853148270062122|-0.7063355127993534|1.4381982741386|0.1620941758155823|0.2293114215135574|0.09916314482688904|0.007641315460205078|-0.01405787467956543|-0.0158008337020874|XArbitraryZVertical|0.5792624628579955|0.3378840366064665|0.4276365158158339|0.6061489324831868|-0.08581146597862244|-0.9912217259407043|-0.1005787551403046|0|0|0|-1|-1|3
2021-04-22 20:18:19.477 +0100|136369.913743875|-0.0556640625|-1.015182495117188|-0.117645263671875|136369.893780875|1.876560753720727|-0.7249887638772087|1.439413113220625|0.1484478712081909|0.2219928950071335|0.06621833145618439|0.01344943046569824|-0.02213776111602783|-0.02308094501495361|XArbitraryZVertical|0.5794348098887074|0.339448961153043|0.4289210768976639|0.6041991209451704|-0.08687407523393631|-0.9913816452026367|-0.09805940836668015|0|0|0|-1|-1|3
2021-04-22 20:18:19.497 +0100|136369.933705875|-0.04327392578125|-1.007827758789062|-0.1267242431640625|136369.913743875|1.893191280692844|-0.7370855874912328|1.440454604331764|0.1182015538215637|0.2113300263881683|0.03605927526950836|0.02528821676969528|-0.03149294853210449|-0.02391113340854645|XArbitraryZVertical|0.5793192668874243|0.3409846439105123|0.4300927536708283|0.6026102771932191|-0.08736033737659454|-0.9915175437927246|-0.09623731672763824|0|0|0|-1|-1|3
2021-04-22 20:18:19.517 +0100|136369.953668875|-0.0309295654296875|-1.009506225585938|-0.1382904052734375|136369.933705875|1.903450745726025|-0.7431188864485273|1.441595939157391|0.09876694530248642|0.1932842880487442|0.01384647004306316|0.03660622239112854|-0.01654410362243652|-0.02516698837280273|XArbitraryZVertical|0.5789871796343939|0.3425441939605045|0.4310577874696804|0.6013540312720991|-0.08717320114374161|-0.991665244102478|-0.09487464278936386|0|0|0|-1|-1|3
2021-04-22 20:18:19.546 +0100|136369.973630875|-0.0259552001953125|-1.027816772460938|-0.14532470703125|136369.953668875|1.908015184375132|-0.7437751408379084|1.442773807901114|0.0690341517329216|0.1893123388290405|-0.0178032461553812|0.0508158802986145|-0.01720172166824341|-0.04025936126708984|XArbitraryZVertical|0.5784688877105056|0.344085560832657|0.4318508677019745|0.6004030835861253|-0.08644451946020126|-0.9918162822723389|-0.09395774453878403|0|0|0|-1|-1|3
2021-04-22 20:18:19.559 +0100|136369.993593875|-0.0052642822265625|-1.0352783203125|-0.141082763671875|136369.973630875|1.905413936146642|-0.7371758824604631|1.443934757888165|0.0385119616985321|0.2054638713598251|-0.06453923881053925|0.05726298689842224|-0.02169287204742432|-0.04690635204315186|XArbitraryZVertical|0.5776133506564077|0.3457252985658181|0.4325949584937543|0.5997487890494607|-0.08504858613014221|-0.9919638633728027|-0.09367366880178452|0|0|0|-1|-1|3
2021-04-22 20:18:19.577 +0100|136370.0135561667|0.0210723876953125|-1.030868530273438|-0.146881103515625|136369.993593875|1.892017632311296|-0.7195818817194198|1.445486506486411|0.01702629588544369|0.214122399687767|-0.1193371489644051|0.06548113375902176|-0.03977763652801514|-0.05117623507976532|XArbitraryZVertical|0.5762958712698431|0.3476848359283698|0.4331432553116008|0.5994874716091992|-0.08237193524837494|-0.9921590089797974|-0.09399664402008057|0|0|0|-1|-1|3
2021-04-22 20:18:19.597 +0100|136370.0335191667|0.050872802734375|-1.032333374023438|-0.159881591796875|136370.0135561667|1.869557307264049|-0.6929307776636539|1.447648685506133|0.004559239372611046|0.2127695232629776|-0.1777535974979401|0.08831071853637695|-0.04428583383560181|-0.04346215724945068|XArbitraryZVertical|0.5746881108944115|0.3499704048817466|0.4333721365488523|0.5995356872253838|-0.07846813648939133|-0.9924269318580627|-0.0945085808634758|0|0|0|-1|-1|3
2021-04-22 20:18:19.617 +0100|136370.0534811667|0.069549560546875|-1.021682739257812|-0.15972900390625|136370.0335191667|1.833024237302805|-0.6524197320028682|1.450319997967355|-0.008015008643269539|0.1994670778512955|-0.2541611194610596|0.1098319664597511|-0.04017698764801025|-0.06378565728664398|XArbitraryZVertical|0.5726626945331164|0.3525714528352719|0.4331691321126775|0.6000961534150209|-0.07296606153249741|-0.9927514791488647|-0.0955016165971756|0|0|0|-1|-1|3
2021-04-22 20:18:19.637 +0100|136370.0734441667|0.099609375|-1.010910034179688|-0.1436767578125|136370.0534811667|1.782060449142335|-0.5978885781854406|1.453460705358816|-0.01924564130604267|0.1769938915967941|-0.3301377296447754|0.1235306560993195|-0.03452497720718384|-0.06341230869293213|XArbitraryZVertical|0.5703220831294128|0.355461338450962|0.4324431954464655|0.6011431227676737|-0.06589753180742264|-0.9931240677833557|-0.09675991535186768|0|0|0|-1|-1|3
2021-04-22 20:18:19.657 +0100|136370.0934061667|0.1032257080078125|-1.010955810546875|-0.1238250732421875|136370.0734441667|1.716886029930479|-0.5299456658957528|1.45656349069472|-0.02983260527253151|0.1298171728849411|-0.3788505494594574|0.1421062499284744|-0.02224922180175781|-0.05588679015636444|XArbitraryZVertical|0.5677768478195231|0.3584055791640346|0.4311911979288972|0.6027014504696004|-0.05761763453483582|-0.9934825301170349|-0.09834978729486465|0|0|0|-1|-1|3
2021-04-22 20:18:19.677 +0100|136370.1133691667|0.1062164306640625|-1.025100708007812|-0.0897064208984375|136370.0934061667|1.640564302834903|-0.4518536032606461|1.460116063175516|0.002957497723400593|0.07588410377502441|-0.4298578202724457|0.1506458818912506|-0.009918212890625|-0.03522919118404388|XArbitraryZVertical|0.5653587463320805|0.3615035720938071|0.4292079460881186|0.6045371924183818|-0.04822822287678719|-0.9938811659812927|-0.09936930984258652|0|0|0|-1|-1|3
2021-04-22 20:18:19.697 +0100|136370.1333311667|0.0923004150390625|-1.007659912109375|-0.0641326904296875|136370.1133691667|1.549007220702625|-0.3597642896217655|1.463741141111418|-0.01663061790168285|-0.003499665297567844|-0.4795511662960052|0.1434530019760132|-0.03235149383544922|-0.007183060050010681|XArbitraryZVertical|0.563029573479499|0.3646811980529013|0.4264196219286782|0.6067715262504249|-0.03761738166213036|-0.9942750930786133|-0.1000106483697891|0|0|0|-1|-1|3
2021-04-22 20:18:19.717 +0100|136370.1532941667|0.100250244140625|-0.95819091796875|-0.0689544677734375|136370.1333311667|1.438347757333863|-0.2501299620511374|1.465856859138998|-0.03495418280363083|-0.04887039586901665|-0.5302126407623291|0.1295516788959503|-0.04103899002075195|0.01805375516414642|XArbitraryZVertical|0.5605003731535836|0.3675520941086824|0.4229924700196461|0.6097724476152642|-0.02592859417200089|-0.9944989085197449|-0.1014895811676979|0|0|0|-1|-1|3
2021-04-22 20:18:19.737 +0100|136370.1732561667|0.097442626953125|-0.89227294921875|-0.06036376953125|136370.1532941667|1.310156888047118|-0.1240080137679582|1.466776710713426|-0.01323550380766392|-0.1263369023799896|-0.5860181450843811|0.1099356114864349|0.01336300373077393|0.03888778388500214|XArbitraryZVertical|0.557851544437408|0.3705177587607787|0.4188349619762426|0.6132664326951206|-0.01284325215965509|-0.9945948123931885|-0.103036493062973|0|0|0|-1|-1|3
2021-04-22 20:18:19.757 +0100|136370.1932191667|0.1055450439453125|-0.89501953125|-0.032867431640625|136370.1732561667|1.176669304481484|0.006054830241038052|1.468715880527129|0.1664975583553314|-0.1701779067516327|-0.5787630081176758|0.1048829257488251|0.07757318019866943|0.04358375072479248|XArbitraryZVertical|0.5561924460404971|0.3737621832608357|0.4136229800121901|0.616334384637186|0.0006170164560899138|-0.9947943091392517|-0.1019035875797272|0|0|0|-1|-1|3
2021-04-22 20:18:19.777 +0100|136370.2131811667|0.0540008544921875|-0.86773681640625|-0.02801513671875|136370.1932191667|1.040415791811604|0.1377300676119838|1.472311922358494|0.2955751419067383|-0.2467420399188995|-0.550855278968811|0.08618646860122681|0.09256637096405029|0.03202676773071289|XArbitraryZVertical|0.5558952511250304|0.377203359014874|0.4075664731708225|0.6185368940740333|0.01349985413253307|-0.9951543211936951|-0.09739619493484497|0|0|0|-1|-1|3
2021-04-22 20:18:19.797 +0100|136370.2331441667|0.06903076171875|-0.93548583984375|0.00054931640625|136370.2131811667|0.9032979024946742|0.2690172266305238|1.476813697874783|0.4028284847736359|-0.2899900674819946|-0.5292059779167175|0.05299991369247437|0.1330380439758301|0.08589178323745728|XArbitraryZVertical|0.5568614424130858|0.3803554467931446|0.4010723646564719|0.6199807645036538|0.02494264952838421|-0.9955868721008301|-0.09047013521194458|0|0|0|-1|-1|3
2021-04-22 20:18:19.817 +0100|136370.2531061667|0.071380615234375|-1.014144897460938|0.0589447021484375|136370.2331441667|0.7486950521704943|0.4168257100092214|1.481288576308726|0.4087590575218201|-0.3392731547355652|-0.512281596660614|0.02975904941558838|0.08016431331634521|0.06406515836715698|XArbitraryZVertical|0.5586045206835847|0.3835273083288052|0.3939780592723829|0.6210065798807017|0.03619011491537094|-0.9959968328475952|-0.08173558861017227|0|0|0|-1|-1|3
2021-04-22 20:18:19.837 +0100|136370.2730691667|0.08270263671875|-1.067306518554688|0.08526611328125|136370.2531061667|0.5962287766052204|0.5616967873912686|1.483018154009651|0.3324345648288727|-0.3645370602607727|-0.4562367796897888|0.02017104625701904|0.03347295522689819|0.09928214550018311|XArbitraryZVertical|0.5602801400048734|0.3859889195689578|0.3870602193380148|0.6223208781236441|0.04669361934065819|-0.9961499571800232|-0.0741974338889122|0|0|0|-1|-1|3
2021-04-22 20:18:19.857 +0100|136370.2930311667|0.0473175048828125|-1.148483276367188|0.158966064453125|136370.2730691667|0.4693233185213846|0.6805987135843419|1.482567897026009|0.2794673144817352|-0.3969523012638092|-0.3620178997516632|0.02705687284469604|-0.05435049533843994|0.1349045634269714|XArbitraryZVertical|0.5618263768366494|0.3874393059258347|0.3808630935573827|0.6238472950642346|0.05544806271791458|-0.9961103796958923|-0.06848381459712982|0|0|0|-1|-1|3
2021-04-22 20:18:19.877 +0100|136370.3129941667|-0.0421600341796875|-1.270660400390625|0.1988983154296875|136370.2930311667|0.3649752190281206|0.7769851584144712|1.482491902855508|0.2104692757129669|-0.352754533290863|-0.2428355664014816|0.01070625334978104|-0.1023004055023193|0.182298481464386|XArbitraryZVertical|0.563809112377795|0.3881717333855953|0.3754031794332142|0.62491176176151|0.06183469668030739|-0.9961037039756775|-0.06288398057222366|0|0|0|-1|-1|3
2021-04-22 20:18:19.897 +0100|136370.3329561667|-0.120452880859375|-1.2462158203125|0.1531219482421875|136370.3129941667|0.3203725582669459|0.8153010721321079|1.480904402473585|-0.1089800074696541|-0.2484313398599625|-0.1595292240381241|-0.05460619181394577|-0.2213534116744995|0.2490829229354858|XArbitraryZVertical|0.5647324575954458|0.3876862991613184|0.3721215245212018|0.6263404892052729|0.06534904986619949|-0.9959624409675598|-0.06155316904187202|0|0|0|-1|-1|3
2021-04-22 20:18:19.917 +0100|136370.3529191667|-0.1344451904296875|-1.05999755859375|0.0821075439453125|136370.3329561667|0.343503612025157|0.7888032468802365|1.474323255397868|-0.4832594394683838|-0.09427426010370255|-0.1824103891849518|-0.1571346521377563|-0.2881278395652771|0.2548761963844299|XArbitraryZVertical|0.5628291860933565|0.3863716508826808|0.3713138202413198|0.6293382001202206|0.0683443695306778|-0.9953500628471375|-0.06788051128387451|0|0|0|-1|-1|3
2021-04-22 20:18:19.937 +0100|136370.3728811667|-0.0833282470703125|-0.8790130615234375|0.0585174560546875|136370.3529191667|0.3915598991396771|0.7411431387386862|1.46316088266692|-0.6169667840003967|0.1030961275100708|-0.2374224215745926|-0.2114747762680054|-0.1673014163970947|0.18293297290802|XArbitraryZVertical|0.5583810256245406|0.3854678983251867|0.3722383936856642|0.633296047806143|0.07252888381481171|-0.9942129254341125|-0.07925026118755341|0|0|0|-1|-1|3
2021-04-22 20:18:19.956 +0100|136370.3928441667|-0.026641845703125|-0.7743072509765625|0.060455322265625|136370.3728811667|0.4231001844191093|0.7136100215327956|1.451365516272075|-0.4577284753322601|0.2668444216251373|-0.2711807489395142|-0.1904773414134979|0.03329724073410034|0.1586178541183472|XArbitraryZVertical|0.5531227502589442|0.3860273949554059|0.3738108567904756|0.6366345907124592|0.07799020409584045|-0.9928765892982483|-0.09007614850997925|0|0|0|-1|-1|3
2021-04-22 20:18:19.976 +0100|136370.4128061667|0.033050537109375|-0.7853240966796875|0.089385986328125|136370.3928441667|0.4214277957105138|0.7216953474265558|1.443571715596347|-0.1009228304028511|0.3742438852787018|-0.2423763424158096|-0.1385581195354462|0.1738637685775757|0.1524071842432022|XArbitraryZVertical|0.5490697055106025|0.3884562064211479|0.3750097083503966|0.6379592200454153|0.0838254988193512|-0.9919178485870361|-0.09524846822023392|0|0|0|-1|-1|3
2021-04-22 20:18:19.996 +0100|136370.4327691667|0.07171630859375|-0.808074951171875|0.1032562255859375|136370.4128061667|0.3898028877354767|0.7613630699276804|1.441547280921812|0.1866446882486343|0.4536872208118439|-0.1808054745197296|-0.08391740918159485|0.2288721203804016|0.1653395891189575|XArbitraryZVertical|0.5470570167858236|0.3925261822775933|0.3756562750129201|0.6368158117667884|0.08892295509576797|-0.9916589856147766|-0.09330363571643829|0|0|0|-1|-1|3
2021-04-22 20:18:20.016 +0100|136370.4527311667|0.0968170166015625|-0.830902099609375|0.077728271484375|136370.4327691667|0.346691777072656|0.8134696472797159|1.442924144336746|0.2807979881763458|0.4833318889141083|-0.1059483736753464|-0.0363781601190567|0.1888723969459534|0.1892141252756119|XArbitraryZVertical|0.5462747355811285|0.3972161004464579|0.3763185486123864|0.6341826453502358|0.09266848117113113|-0.9918354749679565|-0.08760656416416168|0|0|0|-1|-1|3
2021-04-22 20:18:20.047 +0100|136370.4726941667|0.1045074462890625|-0.83197021484375|0.0713653564453125|136370.4527311667|0.301176961826996|0.8686583035109045|1.446197722109792|0.3841385245323181|0.5234310626983643|-0.03145913407206535|-0.005662918090820312|0.1629019379615784|0.1683992147445679|XArbitraryZVertical|0.5461482235789358|0.4019819978039048|0.3773328901785646|0.6306763835784361|0.09488172829151154|-0.9922476410865784|-0.08026517927646637|0|0|0|-1|-1|3
2021-04-22 20:18:20.060 +0100|136370.4926561667|0.141357421875|-0.893798828125|0.068572998046875|136370.4726941667|0.2416886176426734|0.9389986097379835|1.452077241057734|0.5307438373565674|0.6179888844490051|0.04399389773607254|-0.0009884238243103027|0.1764023303985596|0.1404459476470947|XArbitraryZVertical|0.5469688800218305|0.4072462385926287|0.3785836573606442|0.6258195360966951|0.09557834267616272|-0.9929611682891846|-0.06995108723640442|0|0|0|-1|-1|3
2021-04-22 20:18:20.076 +0100|136370.5126191667|0.164306640625|-0.9175872802734375|0.09625244140625|136370.4926561667|0.1755261201069656|1.018118644146637|1.459172518781552|0.4776707589626312|0.7175193428993225|0.1159652024507523|0.02741372585296631|0.1217519640922546|0.1228543519973755|XArbitraryZVertical|0.5479598193488199|0.4129175234910415|0.3806558463697278|0.6199520165358915|0.0948098823428154|-0.9937765002250671|-0.05847831070423126|0|0|0|-1|-1|3
2021-04-22 20:18:20.096 +0100|136370.5325811667|0.204071044921875|-1.018386840820312|0.0984039306640625|136370.5126191667|0.1129215396582529|1.095936918772372|1.466359285541899|0.4456445574760437|0.8595741391181946|0.1712699085474014|0.06739711761474609|0.09748721122741699|0.1363928914070129|XArbitraryZVertical|0.5484947806152529|0.4187142084686423|0.3838766366960235|0.6135721130716155|0.09271405637264252|-0.994551420211792|-0.04766377434134483|0|0|0|-1|-1|3
2021-04-22 20:18:20.116 +0100|136370.5525441667|0.1959381103515625|-0.995941162109375|0.088623046875|136370.5325811667|0.07633136731527611|1.150476524149456|1.472524033584432|0.149632140994072|0.9429507851600647|0.2247429043054581|0.08950182795524597|0.02311396598815918|0.1376157999038696|XArbitraryZVertical|0.5476575862707758|0.4243263913559215|0.3887878174340226|0.6073405322613669|0.08957603573799133|-0.9951751828193665|-0.04003656283020973|0|0|0|-1|-1|3
2021-04-22 20:18:20.136 +0100|136370.5725061667|0.203369140625|-1.017288208007812|0.057220458984375|136370.5525441667|0.08034197697205819|1.166078179085839|1.477849305170547|0.08088227361440659|1.022575974464417|0.2623662650585175|0.1230432987213135|-0.01458567380905151|0.135682225227356|XArbitraryZVertical|0.5454300073522121|0.4292235306494414|0.3952830325852598|0.60168487975159|0.08531615883111954|-0.9956835508346558|-0.03654653578996658|0|0|0|-1|-1|3
2021-04-22 20:18:20.156 +0100|136370.5924691667|0.22216796875|-0.9914398193359375|0.00958251953125|136370.5725061667|0.08974795542703279|1.17735342443622|1.483083850577338|0.02578411810100079|1.041196346282959|0.2538191974163055|0.1172278821468353|-0.01806551218032837|0.1045669913291931|XArbitraryZVertical|0.5428017634302115|0.4342514648516844|0.4021713965794134|0.5958608959736432|0.08090824633836746|-0.9961557388305664|-0.03358382359147072|0|0|0|-1|-1|3
2021-04-22 20:18:20.176 +0100|136370.6124311667|0.2147979736328125|-1.039794921875|0.0048675537109375|136370.5924691667|0.1118478176148765|1.176452098166952|1.488141665761828|-0.00646519847214222|1.078177332878113|0.2883541882038116|0.1377645432949066|-0.005412936210632324|0.06557929515838623|XArbitraryZVertical|0.5397546810563938|0.4390951531687747|0.4094407546900717|0.5901006219637089|0.07622551918029785|-0.9965860247612|-0.03172066062688828|0|0|0|-1|-1|3
2021-04-22 20:18:20.196 +0100|136370.6323941667|0.1671905517578125|-1.030624389648438|-0.0411224365234375|136370.6124311667|0.1197722794572429|1.190051683706504|1.492354513730955|-0.1705477237701416|1.030092716217041|0.3183399438858032|0.1509144753217697|-0.01499199867248535|0.02464849315583706|XArbitraryZVertical|0.5365261515094335|0.4444993897051314|0.4162208157146626|0.5842261549551839|0.07274963706731796|-0.9969249963760376|-0.02911996282637119|0|0|0|-1|-1|3
2021-04-22 20:18:20.216 +0100|136370.6523561667|0.1837921142578125|-0.9959716796875|-0.1212005615234375|136370.6323941667|0.1533252576011224|1.176488510234163|1.494575255160656|-0.257788360118866|0.914675772190094|0.2123504132032394|0.1171184480190277|-0.04193544387817383|0.02281451225280762|XArbitraryZVertical|0.5325782079233304|0.4491472885204561|0.4227675182918062|0.5795644676856644|0.07030608505010605|-0.9970965981483459|-0.02925433218479156|0|0|0|-1|-1|3
2021-04-22 20:18:20.236 +0100|136370.6723191667|0.175262451171875|-0.991241455078125|-0.1559906005859375|136370.6523561667|0.2039148141498602|1.142103284376399|1.49274323718411|-0.4086815714836121|0.6440780758857727|-0.0257173627614975|0.09785931557416916|-0.01668596267700195|-0.04704033955931664|XArbitraryZVertical|0.5278920176340312|0.4529057512549986|0.427960701694441|0.5771101448910991|0.07091893255710602|-0.996955394744873|-0.03241279721260071|0|0|0|-1|-1|3
2021-04-22 20:18:20.256 +0100|136370.6922811667|0.152435302734375|-1.043777465820312|-0.190887451171875|136370.6723191667|0.2466239059916284|1.11006523918135|1.485570252978856|-0.4100712537765503|0.4081070423126221|-0.1858368217945099|0.1226961314678192|0.01439106464385986|-0.1001847982406616|XArbitraryZVertical|0.5227033143762628|0.4559142864557962|0.4307048432650579|0.5774226570925198|0.07624877989292145|-0.9963704347610474|-0.03784681856632233|0|0|0|-1|-1|3
2021-04-22 20:18:20.276 +0100|136370.7122441667|0.1466522216796875|-0.9550018310546875|-0.2605743408203125|136370.6922811667|0.2967125664375877|1.066947345806061|1.476150477331511|-0.5748664140701294|0.2889034450054169|-0.1578337550163269|0.08308619260787964|-0.04112720489501953|-0.1475032567977905|XArbitraryZVertical|0.5173978091242154|0.4576959760220556|0.4325633520042516|0.5793988709423888|0.08276240527629852|-0.9955244064331055|-0.04562780261039734|0|0|0|-1|-1|3
2021-04-22 20:18:20.296 +0100|136370.7322071667|0.0714263916015625|-0.9395751953125|-0.3302764892578125|136370.7122441667|0.3829215816145312|0.9869582105335065|1.466724200461877|-0.6787448525428772|0.2986116111278534|-0.07172658294439316|0.05892300605773926|-0.02846664190292358|-0.1738606691360474|XArbitraryZVertical|0.5117687444540902|0.4576683607056742|0.4357887869356192|0.5819971514835675|0.08667720109224319|-0.9945893883705139|-0.05726484581828117|0|0|0|-1|-1|3
2021-04-22 20:18:20.316 +0100|136370.7521691667|0.0174407958984375|-0.97406005859375|-0.338287353515625|136370.7322071667|0.4824246363493326|0.8944214269124933|1.458170990324836|-0.6537725925445557|0.3259289562702179|-0.02672892063856125|0.02328672260046005|0.06782221794128418|-0.2329937219619751|XArbitraryZVertical|0.5062401918261202|0.4566673743880878|0.4403863426661316|0.5841538540911817|0.08764547854661942|-0.9936644434928894|-0.07035155594348907|0|0|0|-1|-1|3
2021-04-22 20:18:20.336 +0100|136370.7721321667|-0.003448486328125|-1.007843017578125|-0.2902069091796875|136370.7521691667|0.5541779896946819|0.8292304711377613|1.449442860215767|-0.6342902779579163|0.2780804038047791|-0.1001744642853737|-0.03844083100557327|0.0400700569152832|-0.2694756388664246|XArbitraryZVertical|0.5011094330204742|0.456076564889241|0.4443197486314269|0.5860576672902004|0.08926869928836823|-0.9926456809043884|-0.0817670077085495|0|0|0|-1|-1|3
2021-04-22 20:18:20.356 +0100|136370.7920941667|0.071990966796875|-0.8733673095703125|-0.2768096923828125|136370.7721321667|0.637301187229704|0.751404903076656|1.435338873487542|-1.102401852607727|0.1521629989147186|-0.1897613406181335|-0.1053885519504547|-0.003819763660430908|-0.2226845026016235|XArbitraryZVertical|0.4943659459274189|0.4541603251681408|0.44870282024816|0.5899209139034591|0.09219055622816086|-0.9908396601676941|-0.09868142008781433|0|0|0|-1|-1|3
