loggingTime(txt)|accelerometerTimestamp_sinceReboot(s)|accelerometerAccelerationX(G)|accelerometerAccelerationY(G)|accelerometerAccelerationZ(G)|motionTimestamp_sinceReboot(s)|motionYaw(rad)|motionRoll(rad)|motionPitch(rad)|motionRotationRateX(rad/s)|motionRotationRateY(rad/s)|motionRotationRateZ(rad/s)|motionUserAccelerationX(G)|motionUserAccelerationY(G)|motionUserAccelerationZ(G)|motionAttitudeReferenceFrame(txt)|motionQuaternionX(R)|motionQuaternionY(R)|motionQuaternionZ(R)|motionQuaternionW(R)|motionGravityX(G)|motionGravityY(G)|motionGravityZ(G)|motionMagneticFieldX(µT)|motionMagneticFieldY(µT)|motionMagneticFieldZ(µT)|motionHeading(°)|motionMagneticFieldCalibrationAccuracy(Z)|label
2021-04-22 20:33:03.778 +0100|137021.3630506667|0.1915130615234375|-0.212677001953125|-0.951751708984375|137021.3430886667|-3.065870660590757|0.1400085820111517|0.1907278283691652|-0.01651961170136929|0.18364417552948|-0.1292619109153748|-0.008388981223106384|0.01670573651790619|-0.0155644416809082|XArbitraryZVertical|-0.07317482006868756|0.09228253261496211|0.9920544495842087|-0.04424323303175147|0.1370210498571396|-0.1895735710859299|-0.9722587466239929|0|0|0|-1|-1|3
2021-04-22 20:33:03.788 +0100|137021.3830126667|0.13916015625|-0.1728973388671875|-0.964324951171875|137021.3630506667|-3.067284836052302|0.1415723081935125|0.1901354292384158|-0.05684612691402435|0.1397131532430649|-0.06185135245323181|0.0300072580575943|-0.008366301655769348|0.005479753017425537|XArbitraryZVertical|-0.07387626491091431|0.09200618429952748|0.992056905832011|-0.04359413886454863|0.1385570615530014|-0.1889918893575668|-0.9721543192863464|0|0|0|-1|-1|3
2021-04-22 20:33:03.789 +0100|137021.4029746667|0.1663360595703125|-0.1859588623046875|-0.9498443603515625|137021.3830126667|-3.068220221094789|0.1461341182651577|0.1909945191279217|0.04311828315258026|0.1329877078533173|-0.01559801585972309|0.001488745212554932|0.02043133974075317|-0.0009691715240478516|XArbitraryZVertical|-0.07610852566250265|0.09236838833740055|0.9918643267419894|-0.04336967991014752|0.1429666876792908|-0.1898354291915894|-0.971351146697998|0|0|0|-1|-1|3
2021-04-22 20:33:03.803 +0100|137021.4229366667|0.1619110107421875|-0.1943817138671875|-0.94696044921875|137021.4029746667|-3.068661264915561|0.1491866125128796|0.192609260611245|0.04257846251130104|0.1033818796277046|-0.001790856476873159|0.02150408923625946|0.007474839687347412|0.01854920387268066|XArbitraryZVertical|-0.07762536668403505|0.0931203014312713|0.9916774061773999|-0.04334894930345761|0.1458853036165237|-0.1914205551147461|-0.9706058502197266|0|0|0|-1|-1|3
2021-04-22 20:33:03.823 +0100|137021.4428986667|0.161895751953125|-0.20361328125|-0.9601593017578125|137021.4229366667|-3.068797019181755|0.1507122370512462|0.1922462991486051|-0.02854369953274727|0.07310328632593155|-0.009226579219102859|0.01816672086715698|-0.005530938506126404|0.02861756086349487|XArbitraryZVertical|-0.07837024941808211|0.09291247543208547|0.9916386632248005|-0.04333969907460286|0.1473763436079025|-0.1910642981529236|-0.970450758934021|0|0|0|-1|-1|3
2021-04-22 20:33:03.843 +0100|137021.4628596667|0.160675048828125|-0.1944580078125|-0.974090576171875|137021.4428986667|-3.068845891513821|0.1517467241861779|0.1907239799196667|-0.01901795715093613|0.0521770715713501|-0.0006309607997536659|0.01891963183879852|-0.01384612917900085|0.0129428505897522|XArbitraryZVertical|-0.0788589255459355|0.09213677856141909|0.9916736519851063|-0.04330876538809715|0.148423969745636|-0.1895698010921478|-0.9705841541290283|0|0|0|-1|-1|3
2021-04-22 20:33:03.863 +0100|137021.4828216667|0.158233642578125|-0.1961212158203125|-0.9716796875|137021.4628596667|-3.068908858309153|0.1530722976966368|0.1906962185500986|0.02826104313135147|0.03926484286785126|0.007920804433524609|0.009804621338844299|-0.005740448832511902|-0.003637492656707764|XArbitraryZVertical|-0.0795128771535723|0.09209678611224553|0.9916238813829544|-0.04333759477608803|0.1497112363576889|-0.1895425319671631|-0.9703917503356934|0|0|0|-1|-1|3
2021-04-22 20:33:03.883 +0100|137021.5027836667|0.1539306640625|-0.1974945068359375|-0.9692840576171875|137021.4828216667|-3.068933840670553|0.1540123870643508|0.1907950923071755|0.01415038388222456|0.03855393826961517|0.004829051904380322|0.01409856975078583|-0.01713323593139648|0.003008246421813965|XArbitraryZVertical|-0.07997924682339937|0.09212645277002074|0.9915820977133764|-0.04337210527690272|0.1506205350160599|-0.189639613032341|-0.9702320694923401|0|0|0|-1|-1|3
2021-04-22 20:33:03.903 +0100|137021.5227456667|0.1588287353515625|-0.184356689453125|-0.9785003662109375|137021.5027836667|-3.068740331711351|0.1551079308394544|0.1916856216616104|0.0363493449985981|0.0355834998190403|0.0276377834379673|-0.0009151697158813477|-0.002648100256919861|0.002156615257263184|XArbitraryZVertical|-0.08054410553120155|0.09253661127218071|0.9914903623475201|-0.04355127523788735|0.1516572386026382|-0.1905139088630676|-0.9698992371559143|0|0|0|-1|-1|3
2021-04-22 20:33:03.923 +0100|137021.5427076667|0.16265869140625|-0.19793701171875|-0.9775543212890625|137021.5227456667|-3.068232805303069|0.1559578272444873|0.192291545490703|0.01705427840352058|0.02561928331851959|0.03320929408073425|0.003954783082008362|0.002310708165168762|-0.006738603115081787|XArbitraryZVertical|-0.08099767198075902|0.09279808071912896|0.9914151349839123|-0.04386460066948897|0.1524635404348373|-0.1911087036132812|-0.9696558117866516|0|0|0|-1|-1|3
2021-04-22 20:33:03.943 +0100|137021.5626696667|0.160369873046875|-0.1895599365234375|-0.9741668701171875|137021.5427076667|-3.06768884866838|0.1564787384391089|0.1929918172164323|0.02466034889221191|0.02271270751953125|0.02452152967453003|0.00801771879196167|-0.005012840032577515|-0.008842647075653076|XArbitraryZVertical|-0.08129132761558311|0.09311185633580382|0.9913474773058737|-0.04418438580970854|0.152947723865509|-0.1917960196733475|-0.9694437980651855|0|0|0|-1|-1|3
2021-04-22 20:33:03.964 +0100|137021.5826316667|0.152801513671875|-0.200897216796875|-0.965087890625|137021.5626696667|-3.067381655761547|0.1570172410400455|0.193994326369941|0.06837485730648041|0.01636021584272385|0.01972153782844543|0.009967237710952759|0.004225954413414001|-0.00232541561126709|XArbitraryZVertical|-0.08158719918688259|0.09358459747410673|0.9912690927424421|-0.04439903182391825|0.1534396111965179|-0.1927798241376877|-0.9691709280014038|0|0|0|-1|-1|3
2021-04-22 20:33:03.983 +0100|137021.6025936667|0.1584014892578125|-0.2070159912109375|-0.96099853515625|137021.5826316667|-3.066914901953248|0.1571648799266482|0.1954540956527307|0.07975839078426361|0.013335932046175|0.04534070193767548|-0.001468926668167114|-0.003344520926475525|0.006009459495544434|XArbitraryZVertical|-0.08170368003926688|0.09428614943607008|0.9911798585699821|-0.04469162173328697|0.1535384804010391|-0.1942120045423508|-0.9688692688941956|0|0|0|-1|-1|3
2021-04-22 20:33:04.003 +0100|137021.6225546667|0.1595001220703125|-0.2034912109375|-0.968231201171875|137021.6025936667|-3.066543598650966|0.1574012504174206|0.1969648990293515|0.06024652346968651|0.009468860924243927|0.02064893767237663|0.0007438808679580688|-0.00476190447807312|0.005270242691040039|XArbitraryZVertical|-0.08186062553902283|0.09501480581784373|0.9910859760041613|-0.04494307318106732|0.1537213176488876|-0.1956938207149506|-0.9685420393943787|0|0|0|-1|-1|3
2021-04-22 20:33:04.023 +0100|137021.6425166667|0.1574249267578125|-0.209564208984375|-0.96063232421875|137021.6225546667|-3.066266794409983|0.1576387248925726|0.1978386195754639|0.04029981046915054|0.007970193400979042|0.02930492162704468|0.003790900111198425|-0.005888789892196655|0.0003037452697753906|XArbitraryZVertical|-0.08200438498270039|0.09543132780458921|0.9910258311812205|-0.04512410991855625|0.1539244204759598|-0.196550577878952|-0.968336284160614|0|0|0|-1|-1|3
2021-04-22 20:33:04.043 +0100|137021.6624786667|0.1501312255859375|-0.20733642578125|-0.95513916015625|137021.6425166667|-3.065687967744593|0.1578590678710661|0.1984125480584614|0.01516018714755774|0.009111890569329262|0.04433873295783997|0.004373475909233093|-0.01446609199047089|0.006719529628753662|XArbitraryZVertical|-0.08214975058825473|0.09568714076820407|0.9909745052663718|-0.04544285596297418|0.1541200280189514|-0.1971132755279541|-0.9681907892227173|0|0|0|-1|-1|3
2021-04-22 20:33:04.063 +0100|137021.6824406667|0.1584625244140625|-0.219512939453125|-0.9550933837890625|137021.6624786667|-3.064623115810471|0.1578550071465066|0.1989432327252884|0.01720952242612839|0.008045028895139694|0.06245683878660202|-0.003906905651092529|-0.007003113627433777|0.01052296161651611|XArbitraryZVertical|-0.08220672913884954|0.09590658176384798|0.9909232941958026|-0.04599006659720923|0.154099628329277|-0.1976335197687149|-0.9680879712104797|0|0|0|-1|-1|3
2021-04-22 20:33:04.083 +0100|137021.7024026667|0.1507568359375|-0.2170562744140625|-0.9512176513671875|137021.6824406667|-3.063414006564891|0.1577350001876144|0.1994293018674687|0.002938108751550317|0.004145202226936817|0.0649539977312088|0.001610741019248962|-0.01806230843067169|0.01360499858856201|XArbitraryZVertical|-0.08221275264536498|0.09610062473098675|0.9908754793782563|-0.04660147521197038|0.153968334197998|-0.198109969496727|-0.9680114388465881|0|0|0|-1|-1|3
2021-04-22 20:33:04.103 +0100|137021.7223646667|0.15313720703125|-0.223358154296875|-0.9487152099609375|137021.7024026667|-3.061923140464503|0.15761517256714|0.1998611399486613|0.004694596864283085|0.007047993130981922|0.08178260177373886|-0.0003655552864074707|-0.01968370378017426|0.0119214653968811|XArbitraryZVertical|-0.08223183621189413|0.09625622248400553|0.9908233107835567|-0.04735038795980032|0.1538389027118683|-0.1985332369804382|-0.9679453372955322|0|0|0|-1|-1|3
2021-04-22 20:33:04.123 +0100|137021.7423266667|0.1229095458984375|-0.2051239013671875|-0.933074951171875|137021.7223646667|-3.060286702705934|0.1576790075879773|0.200220435577959|-0.02150288596749306|0.01145648583769798|0.08150722831487656|0.001521751284599304|-0.02604544162750244|0.02093535661697388|XArbitraryZVertical|-0.0823480222685825|0.09636547576732424|0.9907631536525489|-0.04817749073667875|0.1538894772529602|-0.19888536632061|-0.967864990234375|0|0|0|-1|-1|3
2021-04-22 20:33:04.143 +0100|137021.7622886667|0.107452392578125|-0.190887451171875|-0.92181396484375|137021.7423266667|-3.058734248384475|0.1577832326349618|0.2001563814953474|-0.0328606516122818|0.03279171139001846|0.06731586158275604|-0.02685567736625671|-0.006515920162200928|0.0312315821647644|XArbitraryZVertical|-0.08247336856983713|0.09626723018421073|0.9907243957565242|-0.04894916911586624|0.1539923548698425|-0.1988225877285004|-0.967861533164978|0|0|0|-1|-1|3
2021-04-22 20:33:04.162 +0100|137021.7822506667|0.055419921875|-0.181182861328125|-0.89593505859375|137021.7622886667|-3.057129104916905|0.1582938510238729|0.199845481988642|-0.05706131458282471|0.04906671121716499|0.07602830976247787|-0.03791868686676025|0.001754820346832275|0.04140669107437134|XArbitraryZVertical|-0.08279824626512106|0.09603419974675656|0.9906796767014976|-0.04975727712982057|0.1544962823390961|-0.1985178887844086|-0.967843770980835|0|0|0|-1|-1|3
2021-04-22 20:33:04.183 +0100|137021.802212125|-0.0091552734375|-0.23370361328125|-0.8310699462890625|137021.7822506667|-3.05560368702643|0.1593359033345881|0.1993662097343246|-0.06836243718862534|0.07516451925039291|0.02568062581121922|-0.08398616313934326|0.01814600825309753|0.06502062082290649|XArbitraryZVertical|-0.08337928803324827|0.09570713802232694|0.9906227390613536|-0.0505449257613266|0.1555198132991791|-0.1980481296777725|-0.9677760601043701|0|0|0|-1|-1|3
2021-04-22 20:33:04.203 +0100|137021.822174125|-0.02313232421875|-0.1465606689453125|-0.790618896484375|137021.802212125|-3.057122315204556|0.1614940525053813|0.1977194898606888|-0.1381787657737732|0.1519454717636108|-0.1377602219581604|-0.1525481194257736|-0.009209945797920227|0.1199654340744019|XArbitraryZVertical|-0.08434763230128793|0.09490044473944564|0.9906544625745266|-0.04983344499404699|0.1576602905988693|-0.1964337676763535|-0.9677587747573853|0|0|0|-1|-1|3
2021-04-22 20:33:04.223 +0100|137021.842136125|0.042694091796875|-0.3540496826171875|-0.746978759765625|137021.822174125|-3.060048340654429|0.1648008132536621|0.194728952324369|-0.1340626329183578|0.1739910095930099|-0.2500388324260712|-0.1603749245405197|0.0355253666639328|0.1647985577583313|XArbitraryZVertical|-0.08579823338368554|0.09346133665605848|0.9907365060305853|-0.04842466199247095|0.1609552204608917|-0.1935006231069565|-0.9678072929382324|0|0|0|-1|-1|3
2021-04-22 20:33:04.243 +0100|137021.862098125|-0.2186126708984375|-0.2495269775390625|-0.6786346435546875|137021.842136125|-3.070488800026537|0.1714082297929027|0.1894923057367207|-0.2901014685630798|0.2454397082328796|-0.4743703901767731|-0.3538720309734344|-0.04395575821399689|0.2070116996765137|XArbitraryZVertical|-0.08851178270256138|0.09116873172443503|0.9909465318717423|-0.04334810277494198|0.167516902089119|-0.1883603185415268|-0.9677078723907471|0|0|0|-1|-1|3
2021-04-22 20:33:04.263 +0100|137021.882060125|-0.092498779296875|-0.1612701416015625|-0.7169036865234375|137021.862098125|-3.085859112993214|0.1789941088408998|0.1750255185334541|-0.7122427821159363|0.4095059335231781|-1.014482975006104|-0.4186053872108459|0.01776020228862762|0.2673295736312866|XArbitraryZVertical|-0.09142654958131223|0.08453668780984078|0.991583502580791|-0.03545412330224147|0.1753197610378265|-0.1741332709789276|-0.9689894914627075|0|0|0|-1|-1|3
2021-04-22 20:33:04.282 +0100|137021.902022125|-0.0982818603515625|-0.1444549560546875|-0.715118408203125|137021.882060125|-3.105500024744248|0.1891905602877115|0.1544843155232482|-0.9274928569793701|0.3343047499656677|-1.256022930145264|-0.2483085542917252|-0.01823428273200989|0.2490250468254089|XArbitraryZVertical|-0.09554353413950106|0.07510848402228515|0.9922678459407235|-0.02519850932510094|0.1858243048191071|-0.1538705825805664|-0.9704602956771851|0|0|0|-1|-1|3
2021-04-22 20:33:04.302 +0100|137021.921984125|-0.0505523681640625|-0.1121673583984375|-0.7266387939453125|137021.902022125|-3.129084481252367|0.1989535234072971|0.1293563359750195|-1.091043949127197|0.2958322167396545|-1.493082523345947|-0.3125384449958801|-0.0009641796350479126|0.2654191255569458|XArbitraryZVertical|-0.09950539760402306|0.06369248241743075|0.9929162337267288|-0.0126288806114208|0.1959923207759857|-0.128995880484581|-0.9720838665962219|0|0|0|-1|-1|3
2021-04-22 20:33:04.322 +0100|137021.941946125|0.02581787109375|-0.1004791259765625|-0.7957305908203125|137021.921984125|3.127754043416739|0.2068789054320966|0.09839935355129761|-1.474128484725952|0.1883775144815445|-1.71778678894043|-0.2663476169109344|-0.01112005859613419|0.2585040330886841|XArbitraryZVertical|-0.1027892005310309|0.04962936890416266|0.9934627348093774|0.001795993944855988|0.2044127434492111|-0.09824063628911972|-0.9739426374435425|0|0|0|-1|-1|3
2021-04-22 20:33:04.342 +0100|137021.961908125|0.0691986083984375|-0.0532379150390625|-0.9231414794921875|137021.941946125|3.100008193105029|0.2116241519752408|0.05296954497825156|-2.448955059051514|0.08898700773715973|-1.942508101463318|-0.197805255651474|-0.05391345918178558|0.2066208720207214|XArbitraryZVertical|-0.1050073756422533|0.02852291140403152|0.9939017446082036|0.01787095629920199|0.2097534984350204|-0.05294477939605713|-0.9763197898864746|0|0|0|-1|-1|3
2021-04-22 20:33:04.363 +0100|137021.981869125|0.1366424560546875|0.1240081787109375|-1.002182006835938|137021.961908125|3.073245411099845|0.2141114541130875|-0.01469394119734237|-3.579219341278076|0.09596428275108337|-2.090245485305786|-0.1578444689512253|-0.08769237250089645|0.103753924369812|XArbitraryZVertical|-0.107035668025404|-0.003649890214844487|0.9936408379747234|0.03475501499159501|0.2124563157558441|0.01469341199845076|-0.977060079574585|0|0|0|-1|-1|3
2021-04-22 20:33:04.382 +0100|137022.001831125|0.1882781982421875|0.2825927734375|-1.04705810546875|137021.981869125|3.04969225923552|0.2145650008975687|-0.1000821842138244|-3.985110998153687|0.1048401221632957|-2.033339262008667|-0.08565083146095276|-0.03321991115808487|0.0004239082336425781|XArbitraryZVertical|-0.1091143169024274|-0.04476782013998026|0.9917120652829023|0.05096313445347587|0.211856946349144|0.09991519153118134|-0.9721798300743103|0|0|0|-1|-1|3
2021-04-22 20:33:04.402 +0100|137022.021793125|0.2108001708984375|0.290435791015625|-1.011520385742188|137022.001831125|3.025990073548047|0.2138266502523558|-0.1792521535720162|-3.245074272155762|0.1544149219989777|-1.961024403572083|-0.03387343883514404|0.09512762725353241|-0.08707678318023682|XArbitraryZVertical|-0.1112451283416355|-0.08270665864218853|0.9880938486387045|0.06674394811485808|0.2088009119033813|0.178293764591217|-0.9615682363510132|0|0|0|-1|-1|3
2021-04-22 20:33:04.422 +0100|137022.041755125|0.2476959228515625|0.3920745849609375|-0.9630279541015625|137022.021793125|3.000690872903839|0.2122921024418205|-0.2461554694684503|-2.83043384552002|0.2252990454435349|-1.888917088508606|0.002178654074668884|0.02861516177654266|-0.07015061378479004|XArbitraryZVertical|-0.1134778354215758|-0.114371976139314|0.9834863689952553|0.08244150742333269|0.2043498158454895|0.2436771243810654|-0.9480836391448975|0|0|0|-1|-1|3
2021-04-22 20:33:04.442 +0100|137022.061717125|0.2698822021484375|0.4248809814453125|-0.93939208984375|137022.041755125|2.974734621760961|0.209947792562941|-0.305196458213986|-2.414403438568115|0.2421240359544754|-1.804760932922363|0.03614725172519684|0.06527185440063477|-0.04336714744567871|XArbitraryZVertical|-0.1158007121781991|-0.1420139370914307|0.9781926521981116|0.09778256329618747|0.1987778395414352|0.3004805743694305|-0.9328444600105286|0|0|0|-1|-1|3
2021-04-22 20:33:04.476 +0100|137022.081679125|0.2489471435546875|0.550048828125|-0.861602783203125|137022.061717125|2.948102753811307|0.2059190918546462|-0.35555322433263|-1.925468683242798|0.2161304205656052|-1.716511249542236|0.08858063817024231|0.07675597071647644|-0.0372767448425293|XArbitraryZVertical|-0.1176762576157981|-0.1653113512178923|0.9726934672508984|0.1126586561476445|0.1916783452033997|0.3481090366840363|-0.9176489114761353|0|0|0|-1|-1|3
2021-04-22 20:33:04.490 +0100|137022.101641125|0.2930908203125|0.5562286376953125|-0.8192596435546875|137022.081679125|2.920124921076764|0.2002531969856991|-0.3939289897655453|-1.336164832115173|0.2314766198396683|-1.625939965248108|0.05443219840526581|0.1469263136386871|0.03116035461425781|XArbitraryZVertical|-0.1189436071121516|-0.1826880149312003|0.9676156197928195|0.1272698746623528|0.1836820244789124|0.3838194310665131|-0.9049550294876099|0|0|0|-1|-1|3
2021-04-22 20:33:04.502 +0100|137022.121603125|0.3101959228515625|0.5728759765625|-0.8544464111328125|137022.101641125|2.891348564062124|0.1933334051768598|-0.4238648119950107|-1.241260766983032|0.2269987314939499|-1.568204045295715|0.1162996143102646|0.1362288594245911|0.07537120580673218|XArbitraryZVertical|-0.1197473340241229|-0.1959553461138307|0.9629215589755399|0.1415775206695231|0.1751288324594498|0.411286324262619|-0.8945241570472717|0|0|0|-1|-1|3
2021-04-22 20:33:04.522 +0100|137022.141565125|0.293853759765625|0.7061004638671875|-0.935211181640625|137022.121603125|2.863587791312083|0.1859419369192326|-0.4576516820338539|-1.608681559562683|0.2271009981632233|-1.518292427062988|0.1396342515945435|0.1112420260906219|0.02873879671096802|XArbitraryZVertical|-0.1208383698157411|-0.2111483006147866|0.9574562019387007|0.1552162975068183|0.165847584605217|0.4418426752090454|-0.8816289901733398|0|0|0|-1|-1|3
2021-04-22 20:33:04.542 +0100|137022.161526125|0.2594146728515625|0.68585205078125|-0.871124267578125|137022.141565125|2.838219470668045|0.1791561072849108|-0.4971258920382852|-1.869393348693848|0.2550792992115021|-1.415707945823669|0.1434050053358078|0.2171136438846588|-0.07094830274581909|XArbitraryZVertical|-0.1227379852597479|-0.2291092660565991|0.9509704503720113|0.1676294871706597|0.1566294580698013|0.4769012928009033|-0.8648886680603027|0|0|0|-1|-1|3
2021-04-22 20:33:04.562 +0100|137022.181488125|0.269561767578125|0.7704315185546875|-0.8186187744140625|137022.161526125|2.815049625401074|0.1733724350871502|-0.5403104037436415|-2.005548715591431|0.3268716037273407|-1.310881018638611|0.1218598783016205|0.1621567010879517|-0.04576408863067627|XArbitraryZVertical|-0.1255456511760335|-0.2487803511988199|0.9435864345316969|0.1788619251510918|0.1479316800832748|0.5144022107124329|-0.8446932435035706|0|0|0|-1|-1|3
2021-04-22 20:33:04.582 +0100|137022.201450125|0.2453460693359375|1.10296630859375|-0.9058074951171875|137022.181488125|2.793972007609512|0.1695376499549898|-0.5831266500583473|-1.864683270454407|0.3771905601024628|-1.176844239234924|0.1177478730678558|0.2196112871170044|-0.0004498958587646484|XArbitraryZVertical|-0.1294042504741537|-0.2680781526023858|0.9357684159287494|0.1890140517423567|0.1408437490463257|0.5506365895271301|-0.822777271270752|0|0|0|-1|-1|3
2021-04-22 20:33:04.602 +0100|137022.221412125|0.1617279052734375|1.382247924804688|-0.96929931640625|137022.201450125|2.775235242763753|0.1668608552305033|-0.6110070439222456|-0.2839649021625519|0.4198949933052063|-0.7857138514518738|0.1294053196907043|0.4006568789482117|-0.05535793304443359|XArbitraryZVertical|-0.1327424301845564|-0.2802358123190033|0.9299126712278685|0.197762408541934|0.1360375136137009|0.5736926198005676|-0.807694673538208|0|0|0|-1|-1|3
2021-04-22 20:33:04.622 +0100|137022.241374125|0.2014007568359375|0.6187591552734375|-0.9593353271484375|137022.221412125|2.757315212222663|0.1661988712496374|-0.5894375958082456|2.472985506057739|0.5759598016738892|-0.3441440165042877|0.03924049437046051|0.793562650680542|-0.1727392077445984|XArbitraryZVertical|-0.1332399630619153|-0.2689747468916148|0.9314301159433207|0.2057612813832788|0.1375182569026947|0.55589359998703|-0.8197994232177734|0|0|0|-1|-1|3
2021-04-22 20:33:04.642 +0100|137022.261336125|0.2601165771484375|0.2103271484375|-0.9071197509765625|137022.241374125|2.74029298611622|0.1709010872816431|-0.5419222913663222|1.653362154960632|0.8014669418334961|-0.3822468519210815|0.03787696361541748|0.3981561660766602|-0.1163486242294312|XArbitraryZVertical|-0.1337340030235054|-0.2449411784071659|0.9361855763083466|0.2137190575410917|0.1457024961709976|0.5157837867736816|-0.8442380428314209|0|0|0|-1|-1|3
2021-04-22 20:33:04.662 +0100|137022.281298125|0.27947998046875|0.73370361328125|-0.8208465576171875|137022.261336125|2.729828294338356|0.1822933452028465|-0.5409596198832112|-1.110846996307373|0.87407386302948|-0.4168801009654999|0.1006886661052704|-0.4121608734130859|-0.08823269605636597|XArbitraryZVertical|-0.1402548005596738|-0.2425343518688878|0.9344044093060739|0.2199870994431489|0.1554005444049835|0.5149588584899902|-0.8430113792419434|0|0|0|-1|-1|3
2021-04-22 20:33:04.682 +0100|137022.301260125|0.32269287109375|0.496734619140625|-0.8016357421875|137022.281298125|2.726062803870923|0.1981415376041042|-0.5664797319931275|-1.091349363327026|0.9125604629516602|-0.356168121099472|0.09668874740600586|0.1279158592224121|-0.01147466897964478|XArbitraryZVertical|-0.1502895427157945|-0.2525274771257278|0.9291978463070441|0.2241307584636159|0.1660990864038467|0.5366650223731995|-0.8272858262062073|0|0|0|-1|-1|3
2021-04-22 20:33:04.702 +0100|137022.321222125|0.2848968505859375|0.4694976806640625|-0.764984130859375|137022.301260125|2.723984213404988|0.214670986319285|-0.5924195211039099|-1.684164762496948|0.8492528200149536|-0.3835054636001587|0.1420323997735977|0.04918891191482544|0.0006745457649230957|XArbitraryZVertical|-0.160397625117569|-0.2626737876757427|0.9238084054745475|0.2277133623724997|0.1767246872186661|0.5583698749542236|-0.8105501532554626|0|0|0|-1|-1|3
2021-04-22 20:33:04.722 +0100|137022.341183125|0.29510498046875|0.6648101806640625|-0.6318511962890625|137022.321222125|2.726099963135983|0.2317858086811309|-0.6385458423771615|-2.758096933364868|0.749823272228241|-0.455471009016037|0.09939149022102356|-0.17056804895401|-0.02414333820343018|XArbitraryZVertical|-0.1717336448069838|-0.2824223723929772|0.9153307680542976|0.230032567929069|0.1844534873962402|0.5960284471511841|-0.7814903259277344|0|0|0|-1|-1|3
2021-04-22 20:33:04.742 +0100|137022.361145125|0.2866973876953125|0.64837646484375|-0.5952911376953125|137022.341183125|2.733159483936931|0.2502464327410389|-0.6958678628405426|-2.742270708084106|0.6664403080940247|-0.3763872683048248|0.116194948554039|-0.02217096090316772|0.0922238826751709|XArbitraryZVertical|-0.1834865699940661|-0.3074688057666763|0.9047187803078354|0.2308238626975264|0.1900652199983597|0.6410517692565918|-0.7435912489891052|0|0|0|-1|-1|3
2021-04-22 20:33:04.762 +0100|137022.381107125|0.327911376953125|0.875732421875|-0.7201690673828125|137022.361145125|2.740008021530207|0.2672029124109984|-0.7430349064180871|-1.921938538551331|0.5822113752365112|-0.3207628726959229|0.09085449576377869|-0.01885730028152466|0.1090587377548218|XArbitraryZVertical|-0.1933827076944512|-0.3278113528589152|0.8952759351228294|0.2315686752959537|0.1944400817155838|0.6765260100364685|-0.7102856636047363|0|0|0|-1|-1|3
2021-04-22 20:33:04.782 +0100|137022.401069125|0.3548126220703125|0.8242645263671875|-0.6068878173828125|137022.381107125|2.740018367999438|0.2787737491093227|-0.7646897397922651|0.1747027337551117|0.5534459352493286|-0.2429779917001724|0.1146817654371262|0.1177297830581665|0.01182353496551514|XArbitraryZVertical|-0.2000030844305632|-0.3363469589387686|0.8899970992908992|0.2340401740291461|0.1985669285058975|0.6923131346702576|-0.6937389969825745|0|0|0|-1|-1|3
2021-04-22 20:33:04.802 +0100|137022.421031125|0.363128662109375|0.44635009765625|-0.813507080078125|137022.401069125|2.726071171289314|0.2788022126768341|-0.740043304392132|2.059922933578491|0.4255969226360321|-0.1071164757013321|0.1671559065580368|0.2407798171043396|0.09112006425857544|XArbitraryZVertical|-0.200630715466017|-0.323704735675467|0.8930558131108349|0.2396121098697491|0.2032217085361481|0.674319863319397|-0.70992511510849|0|0|0|-1|-1|3
2021-04-22 20:33:04.822 +0100|137022.440993125|0.287933349609375|0.34765625|-0.954376220703125|137022.421031125|2.709133486569581|0.2755983569028161|-0.7048701898004381|1.533589243888855|0.382870227098465|-0.1282851547002792|0.1529862880706787|-0.1923384666442871|-0.01253223419189453|XArbitraryZVertical|-0.1992750499128156|-0.306290406089462|0.8978172624005627|0.2457641621008574|0.2072747498750687|0.6479349732398987|-0.732951283454895|0|0|0|-1|-1|3
2021-04-22 20:33:04.841 +0100|137022.460955125|0.2985992431640625|0.341033935546875|-0.957000732421875|137022.440993125|2.696818464540184|0.2760303658541728|-0.683054924483792|0.6200375556945801|0.4619064927101135|-0.210912823677063|0.09607166051864624|-0.1746991872787476|-0.2215180397033691|XArbitraryZVertical|-0.1996077160641151|-0.294980967090494|0.9001381800134945|0.2507875256532472|0.2113939523696899|0.6311655044555664|-0.7462859749794006|0|0|0|-1|-1|3
2021-04-22 20:33:04.861 +0100|137022.480917125|0.3039703369140625|0.7460174560546875|-1.070663452148438|137022.460955125|2.69211074675061|0.28267624227381|-0.6879975785963254|-0.7906321287155151|0.5387368202209473|-0.2871304452419281|0.0878237783908844|-0.3852514028549194|-0.1811750531196594|XArbitraryZVertical|-0.2036890076303506|-0.2959408018090429|0.898000044095819|0.254019209536644|0.2154761850833893|0.6349915266036987|-0.7418596744537354|0|0|0|-1|-1|3
2021-04-22 20:33:04.882 +0100|137022.500879125|0.327392578125|0.2388153076171875|-0.8894805908203125|137022.480917125|2.690894130351626|0.2941096702713752|-0.704739427237606|-0.8722304105758667|0.6857908368110657|-0.2942659556865692|0.07248982787132263|0.03049373626708984|-0.3959758281707764|XArbitraryZVertical|-0.2103296824848117|-0.3020370876433184|0.8936538459366155|0.2567448898794687|0.2208309024572372|0.647835373878479|-0.7290700674057007|0|0|0|-1|-1|3
2021-04-22 20:33:04.902 +0100|137022.520841125|0.315032958984375|0.4040374755859375|-0.72283935546875|137022.500879125|2.69125864176458|0.3086884140595088|-0.7327994421055307|-2.060668230056763|0.7028511166572571|-0.4757344722747803|0.1066213697195053|-0.2739339470863342|-0.2214709520339966|XArbitraryZVertical|-0.2189415522275695|-0.3130162851421458|0.8869408121446885|0.2596566396772159|0.2258228808641434|0.6689531207084656|-0.7081708312034607|0|0|0|-1|-1|3
2021-04-22 20:33:04.921 +0100|137022.540802125|0.292724609375|0.65643310546875|-0.61920166015625|137022.520841125|2.705786548207332|0.3320951127738463|-0.7934315958409588|-3.875314235687256|0.6320928931236267|-0.4697290360927582|0.08407050371170044|-0.4062461853027344|-0.06958621740341187|XArbitraryZVertical|-0.231225905940227|-0.3391086120960881|0.874331981570392|0.2590051226791214|0.2286746799945831|0.7127643823623657|-0.6630798578262329|0|0|0|-1|-1|3
2021-04-22 20:33:04.941 +0100|137022.560764125|0.28448486328125|1.043914794921875|-0.4048004150390625|137022.540802125|2.732179420819883|0.3637555161077667|-0.8703531977807307|-3.535343885421753|0.5853422880172729|-0.4519080221652985|0.07286153733730316|-0.2103272676467896|-0.06664013862609863|XArbitraryZVertical|-0.2448768935985437|-0.3726184672080318|0.8577173178164686|0.2559531327853581|0.2293245792388916|0.7645566463470459|-0.6023815870285034|0|0|0|-1|-1|3
2021-04-22 20:33:04.975 +0100|137022.580726125|0.265899658203125|1.148757934570312|-0.5177154541015625|137022.560764125|2.750893386625385|0.3892283577755387|-0.9195907965642949|-1.21902596950531|0.5714634656906128|-0.2294610291719437|0.06403622031211853|0.2065839171409607|0.07129013538360596|XArbitraryZVertical|-0.2545199684467864|-0.3934664574888481|0.845845190273687|0.2548527515007577|0.2300169616937637|0.7953536510467529|-0.560807466506958|0|0|0|-1|-1|3
2021-04-22 20:33:04.991 +0100|137022.600688125|0.2014007568359375|0.63525390625|-0.636260986328125|137022.580726125|2.741795523792617|0.3888343503558294|-0.9125369598465238|1.977875828742981|0.1894255727529526|0.00489722890779376|0.06949077546596527|0.3531675338745117|0.08697992563247681|XArbitraryZVertical|-0.2558197606897962|-0.3892538055147209|0.8463485565363636|0.2583253390033435|0.2319171279668808|0.7910582423210144|-0.5660754442214966|0|0|0|-1|-1|3
2021-04-22 20:33:05.001 +0100|137022.620650125|0.242401123046875|0.411376953125|-0.7958221435546875|137022.600688125|2.709228417376034|0.3673601518347247|-0.8630782323054108|2.711809635162354|0.2229357063770294|-0.07755307853221893|-0.0691630095243454|0.01377296447753906|0.01691281795501709|XArbitraryZVertical|-0.2502530208348416|-0.366074282225733|0.8558694682766076|0.2661780472084469|0.2334859669208527|0.7598473429679871|-0.6067261099815369|0|0|0|-1|-1|3
2021-04-22 20:33:05.021 +0100|137022.640612125|0.301666259765625|0.256378173828125|-0.970916748046875|137022.620650125|2.687193979241866|0.3571815499635575|-0.8322817022284731|0.4493353366851807|0.4323483109474182|-0.2355369329452515|0.02097775042057037|-0.268003523349762|-0.1052898168563843|XArbitraryZVertical|-0.2479118223519644|-0.3509820711755575|0.8608014552420942|0.2727130111377305|0.2353709638118744|0.7394692897796631|-0.6307026147842407|0|0|0|-1|-1|3
2021-04-22 20:33:05.041 +0100|137022.660574125|0.2825469970703125|0.6336212158203125|-0.787384033203125|137022.640612125|2.691024187288003|0.3690023928441106|-0.8584612133256163|-2.989506006240845|0.4247860908508301|-0.4459196627140045|0.03749531507492065|-0.4963399767875671|-0.3620723485946655|XArbitraryZVertical|-0.2539868666993105|-0.3615065549864375|0.8542115355813819|0.2740920561553908|0.2357448786497116|0.7568377256393433|-0.6096073389053345|0|0|0|-1|-1|3
2021-04-22 20:33:05.063 +0100|137022.680536125|0.308319091796875|0.86041259765625|-0.4241485595703125|137022.680536125|2.783380152587047|0.4609624838592515|-1.035573460497368|-4.609548568725586|0.3219967186450958|-0.5104728937149048|0.07211384177207947|-0.03767597675323486|-0.1030468344688416|XArbitraryZVertical|-0.2811704425145633|-0.4387984412221968|0.8122639632780441|0.261966831069084|0.2268679589033127|0.8601549863815308|-0.4567982256412506|0|0|0|-1|-1|3
2021-04-22 20:33:05.081 +0100|137022.700498125|0.1881256103515625|1.005477905273438|-0.17315673828125||||||||||||||||||||||||3
2021-04-22 20:33:05.101 +0100|137022.720459125|0.2365875244140625|0.9589996337890625|-0.2138519287109375|137022.700498125|2.845329901137867|0.5204981141133624|-1.108724216199769|-3.246651411056519|0.2008064389228821|-0.337510883808136|-0.00563831627368927|0.09304356575012207|0.2063010931015015|XArbitraryZVertical|-0.2914633304610611|-0.470813854017131|0.7926161269240117|0.2552316920315666|0.2217038422822952|0.8951306939125061|-0.3867668807506561|0|0|0|-1|-1|3
2021-04-22 20:33:05.121 +0100|137022.740421125|0.220977783203125|0.929931640625|-0.1966552734375|137022.720459125|2.896934136965761|0.5695716671789794|-1.155935007673078|-1.915169477462769|0.02742048352956772|-0.2405365854501724|0.003007993102073669|0.05727028846740723|0.1411444842815399|XArbitraryZVertical|-0.2975392581018039|-0.4916849614437532|0.7791024765868011|0.2504312961191151|0.2173605412244797|0.9151722192764282|-0.339432567358017|0|0|0|-1|-1|3
2021-04-22 20:33:05.141 +0100|137022.760383125|0.1849365234375|0.59552001953125|-0.3404083251953125|137022.740421125|2.934299360725052|0.6035507932544986|-1.184199372094572|-1.434173822402954|-0.01817863993346691|-0.1744591295719147|0.01247628033161163|0.05370640754699707|0.1237190663814545|XArbitraryZVertical|-0.3004302792686974|-0.504508483589531|0.7708600456078889|0.2469568567316309|0.2139957398176193|0.9261975288391113|-0.3104256689548492|0|0|0|-1|-1|3
2021-04-22 20:33:05.161 +0100|137022.780345125|0.2834014892578125|1.018203735351562|-0.3439788818359375|137022.760383125|2.991300486759935|0.6566674528664964|-1.22036380641778|-3.133703231811523|-0.02235846966505051|-0.2643052935600281|-0.01541158556938171|-0.2976534366607666|-0.06235134601593018|XArbitraryZVertical|-0.3042507026089331|-0.5210351424190625|0.7597031682281774|0.2424977436759886|0.2095807492733002|0.9392243027687073|-0.271907776594162|0|0|0|-1|-1|3
2021-04-22 20:33:05.181 +0100|137022.800307375|0.2033233642578125|1.00872802734375|-0.2114410400390625|137022.780345125|-3.140952794932893|0.798774530481853|-1.281866734352833|-4.203213214874268|-0.06579889357089996|-0.2425541132688522|0.06226897239685059|-0.08741003274917603|-0.1542515158653259|XArbitraryZVertical|-0.3115048640892828|-0.5509848972363216|0.7385311140042845|0.2322763601536668|0.2041505426168442|0.958549439907074|-0.1987607181072235|0|0|0|-1|-1|3
2021-04-22 20:33:05.209 +0100|137022.820269375|0.2661895751953125|0.9312744140625|-0.062530517578125|137022.800307375|-2.89464091991927|1.036967408278987|-1.336429715830072|-4.297987937927246|0.06851460039615631|-0.2366846799850464|0.02783729135990143|0.09127253293991089|-0.1363974809646606|XArbitraryZVertical|-0.3197403351679233|-0.5819652960216811|0.7143929284488232|0.2207382471843932|0.1999164670705795|0.9726616144180298|-0.118165023624897|0|0|0|-1|-1|3
2021-04-22 20:33:05.221 +0100|137022.840231375|0.2945098876953125|0.9916229248046875|-0.0843505859375|137022.820269375|-2.49964978863352|1.424889162927487|-1.372200867298037|-4.719582557678223|0.1462857723236084|-0.2433476448059082|0.05216483771800995|-0.09095579385757446|-0.06955182552337646|XArbitraryZVertical|-0.3286864407228746|-0.6145103917965883|0.6862758167543553|0.2082492478189629|0.1951964646577835|0.9803446531295776|-0.02868440374732018|0|0|0|-1|-1|3
2021-04-22 20:33:05.241 +0100|137022.860193375|0.2777099609375|0.7962493896484375|0.02264404296875|137022.840231375|-2.059579940106429|1.860595074744247|-1.372082700750134|-3.908732652664185|0.2105822563171387|-0.3571156859397888|0.08664171397686005|0.06177759170532227|-0.1524962186813354|XArbitraryZVertical|-0.3368399831226512|-0.644006635402517|0.6579405199922655|0.1972527245057469|0.1891772150993347|0.9803213477134705|0.05641144141554832|0|0|0|-1|-1|3
2021-04-22 20:33:05.260 +0100|137022.880155375|0.2886199951171875|0.774078369140625|0.108062744140625|137022.860193375|-1.708033426494925|2.208710853066878|-1.34361272049281|-4.142343044281006|0.2309486865997314|-0.4866964817047119|0.1089016050100327|-0.1492924690246582|-0.1172256618738174|XArbitraryZVertical|-0.3431757062458153|-0.6702958753893371|0.6305848558232439|0.1878742416690717|0.1809401512145996|0.9743046164512634|0.1341322511434555|0|0|0|-1|-1|3
2021-04-22 20:33:05.281 +0100|137022.900117375|0.24383544921875|0.785980224609375|0.160491943359375|137022.880155375|-1.420422002834842|2.491880655813651|-1.288515854394821|-4.727787017822266|0.2420350313186646|-0.7333109378814697|0.1255137473344803|-0.195850670337677|-0.1194088757038116|XArbitraryZVertical|-0.348684088283713|-0.699511987984594|0.5979591120588003|0.1776157676259206|0.1685089319944382|0.960422694683075|0.2217952311038971|0|0|0|-1|-1|3
2021-04-22 20:33:05.300 +0100|137022.920078375|0.176727294921875|0.8520050048828125|0.3474273681640625|137022.900117375|-1.217768147590613|2.689495231739114|-1.21798738908499|-4.511768817901611|0.2341046929359436|-0.9604978561401367|0.1046373695135117|-0.1522576808929443|-0.1725305318832397|XArbitraryZVertical|-0.3520244342644675|-0.7290330573257422|0.5624463718059254|0.1680591204639497|0.1509484201669693|0.9384058117866516|0.3108207881450653|0|0|0|-1|-1|3
2021-04-22 20:33:05.320 +0100|137022.940040375|0.088104248046875|0.975860595703125|0.5185394287109375|137022.920078375|-1.082767851100933|2.819224141442862|-1.145826254445011|-4.079971313476562|0.2360739409923553|-1.056890845298767|0.06849263608455658|-0.07393866777420044|-0.0895877480506897|XArbitraryZVertical|-0.3528691310531487|-0.7556527625609596|0.5280380175902971|0.1601504480459436|0.1306203752756119|0.9110510945320129|0.3910554349422455|0|0|0|-1|-1|3
2021-04-22 20:33:05.340 +0100|137022.960002375|0.0366668701171875|1.062744140625|0.590301513671875|137022.940040375|-0.9907530625202547|2.906001586637987|-1.079957795691269|-3.306354284286499|0.18936687707901|-1.015347957611084|9.860843420028687e-05|0.04594910144805908|0.0181562602519989|XArbitraryZVertical|-0.3517449300714194|-0.7781054080317017|0.4970987164999641|0.1540143232785274|0.1100251525640488|0.8819379210472107|0.4583450555801392|0|0|0|-1|-1|3
2021-04-22 20:33:05.360 +0100|137022.979964375|0.0482025146484375|1.04205322265625|0.581085205078125|137022.960002375|-0.9300494108775372|2.962195604672059|-1.030730047413715|-2.029707193374634|0.1559550762176514|-0.9115263223648071|-0.04727029055356979|0.1971045732498169|0.08083552122116089|XArbitraryZVertical|-0.3491682265643042|-0.7943878685372331|0.4736989739716522|0.1504620958430188|0.09175073355436325|0.8576745986938477|0.5059410929679871|0|0|0|-1|-1|3
2021-04-22 20:33:05.380 +0100|137022.999926375|0.054046630859375|0.942962646484375|0.546905517578125|137022.979964375|-0.8901699904391188|2.999484226534537|-1.00686621959508|-0.7286892533302307|0.2003374546766281|-0.7662696838378906|-0.03361848741769791|0.2229238748550415|0.05920892953872681|XArbitraryZVertical|-0.3452538132458625|-0.803344172599615|0.4611084027242389|0.1510533032811911|0.07570328563451767|0.845160961151123|0.5291240811347961|0|0|0|-1|-1|3
2021-04-22 20:33:05.400 +0100|137023.019888375|0.0545196533203125|0.9479522705078125|0.5012054443359375|137022.999926375|-0.8620588114896314|3.027676780815221|-1.002265988775469|-0.01047931239008904|0.2404077053070068|-0.6921182870864868|-0.0003154873847961426|0.1300396323204041|0.009543776512145996|XArbitraryZVertical|-0.3409905813080307|-0.8069559565375669|0.456630593810106|0.1550359349201792|0.0611991211771965|0.8426931500434875|0.534904956817627|0|0|0|-1|-1|3
2021-04-22 20:33:05.420 +0100|137023.039850375|0.047576904296875|0.8900909423828125|0.46697998046875|137023.019888375|-0.8384181986475577|3.053177323753733|-1.009984993963332|0.6217130422592163|0.3210809230804443|-0.6600315570831299|0.001574717462062836|0.1019372344017029|-0.03206974267959595|XArbitraryZVertical|-0.3363534252272548|-0.8073192781315787|0.4572203571365199|0.1614049953360623|0.04696453735232353|0.8468238711357117|0.5297960638999939|0|0|0|-1|-1|3
2021-04-22 20:33:05.441 +0100|137023.059812375|0.013397216796875|0.76220703125|0.371734619140625|137023.039850375|-0.8161447970203807|3.079617028980379|-1.028526468068526|1.089967131614685|0.4295252561569214|-0.6749279499053955|0.01948965340852737|0.04820036888122559|-0.03898680210113525|XArbitraryZVertical|-0.3313567317656577|-0.8048282440761264|0.4619909879660408|0.1703491353295599|0.03196405619382858|0.8565394282341003|0.515091598033905|0|0|0|-1|-1|3
2021-04-22 20:33:05.460 +0100|137023.079774375|0.0048370361328125|0.7217864990234375|0.298065185546875|137023.059812375|-0.7894361603728772|3.11147941050706|-1.05034867563141|1.042050957679749|0.4469987154006958|-0.7825081944465637|0.01257106568664312|-0.109143078327179|-0.09712591767311096|XArbitraryZVertical|-0.3257190965218349|-0.8015165607749221|0.4677685182400524|0.1807512010528524|0.01497211586683989|0.8675966858863831|0.4970434606075287|0|0|0|-1|-1|3
2021-04-22 20:33:05.480 +0100|137023.099736375|-0.0457305908203125|0.7608184814453125|0.2924346923828125|137023.079774375|-0.7533526683354588|-3.130977908609227|-1.071431770687371|0.9482040405273438|0.4659340679645538|-0.997089147567749|0.01500225067138672|-0.1298397779464722|-0.1836298108100891|XArbitraryZVertical|-0.3188145866978137|-0.7986101055510177|0.4729843214461796|0.1920033149064059|-0.005082973279058933|0.8778870105743408|0.4788416922092438|0|0|0|-1|-1|3
2021-04-22 20:33:05.500 +0100|137023.119697375|-0.049285888671875|0.72808837890625|0.2748565673828125|137023.099736375|-0.706424203586666|-3.07997113054222|-1.087696970733538|0.8944409489631653|0.4961588978767395|-1.156367897987366|-0.01089721918106079|-0.1520692110061646|-0.1438815593719482|XArbitraryZVertical|-0.3108217301465624|-0.7970019984951048|0.476140881703099|0.2036359847207577|-0.02860670909285545|0.8855594396591187|0.4636446535587311|0|0|0|-1|-1|3
2021-04-22 20:33:05.520 +0100|137023.139659375|-0.0114593505859375|0.742279052734375|0.255340576171875|137023.119697375|-0.6491353843922142|-3.018919964408671|-1.105288018083217|0.9907858967781067|0.487682580947876|-1.330543637275696|0.007930997759103775|-0.1398395895957947|-0.1779567301273346|XArbitraryZVertical|-0.3014148227942718|-0.7949221530078843|0.4799580947231677|0.2165369103223193|-0.05492700636386871|0.8935934901237488|0.4455042481422424|0|0|0|-1|-1|3
2021-04-22 20:33:05.540 +0100|137023.159621375|0.0361328125|0.768157958984375|0.244171142578125|137023.139659375|-0.5777359885294613|-2.945777872973554|-1.119612049347066|0.9923180341720581|0.429588109254837|-1.562604427337646|0.05836400389671326|-0.1894055008888245|-0.1607164144515991|XArbitraryZVertical|-0.28998581365163|-0.7935729028208296|0.4829865403106849|0.2299445063213419|-0.08483696728944778|0.8999313712120056|0.4276994466781616|0|0|0|-1|-1|3
2021-04-22 20:33:05.560 +0100|137023.179583375|0.094879150390625|0.897430419921875|0.20941162109375|137023.159621375|-0.4899545321600342|-2.85911869750012|-1.131787047260152|1.142094969749451|0.2981865704059601|-1.815293550491333|0.1428885608911514|-0.1565154790878296|-0.1491350531578064|XArbitraryZVertical|-0.2759090726291433|-0.7924478343635295|0.4861633556150645|0.2440206264070962|-0.1184734702110291|0.9051731824874878|0.4081987738609314|0|0|0|-1|-1|3
2021-04-22 20:33:05.580 +0100|137023.199545375|0.1300811767578125|1.063568115234375|0.1305389404296875|137023.179583375|-0.3842650010938681|-2.7587183458969|-1.143775363734862|1.455309271812439|0.152987152338028|-1.971498370170593|0.2407559454441071|-0.03656125068664551|-0.1594885587692261|XArbitraryZVertical|-0.2587181808518345|-0.7906655042908207|0.4910048478867177|0.2585098507796227|-0.1547258794307709|0.9102035760879517|0.3841740787029266|0|0|0|-1|-1|3
2021-04-22 20:33:05.600 +0100|137023.219507375|0.18865966796875|1.084075927734375|0.0733795166015625|137023.199545375|-0.2588103509117565|-2.642812693550308|-1.157900717138804|2.067571640014648|-0.01488239038735628|-2.034627437591553|0.3101266026496887|0.1213452816009521|-0.188222348690033|XArbitraryZVertical|-0.2385867472797715|-0.7869336267472249|0.499125912582482|0.2732859953259833|-0.1919462233781815|0.9159627556800842|0.3523763418197632|0|0|0|-1|-1|3
2021-04-22 20:33:05.620 +0100|137023.239469375|0.181671142578125|1.078720092773438|0.035888671875|137023.219507375|-0.1068770746899318|-2.505650143122677|-1.176356007489616|2.726650238037109|-0.2188439965248108|-1.983584642410278|0.4141437411308289|0.1337192058563232|-0.2139377593994141|XArbitraryZVertical|-0.215429206883409|-0.7798551852958348|0.5123872779655275|0.287881202595049|-0.2282449305057526|0.9232118129730225|0.3091677129268646|0|0|0|-1|-1|3
2021-04-22 20:33:05.640 +0100|137023.259431375|0.168121337890625|1.044540405273438|0.0135040283203125|137023.239469375|0.07562383723010914|-2.342631496052783|-1.197405454604817|3.264137268066406|-0.3967882096767426|-1.784484505653381|0.4582029581069946|0.159373939037323|-0.2282747328281403|XArbitraryZVertical|-0.1902697140607581|-0.7687677532946604|0.5309720322912248|0.3014337941412935|-0.2614093720912933|0.9310957789421082|0.2544128596782684|0|0|0|-1|-1|3
2021-04-22 20:33:05.660 +0100|137023.279393375|0.132659912109375|0.97021484375|0.0095367431640625|137023.259431375|0.2857230034924064|-2.156152683717318|-1.214679786041037|3.656654834747314|-0.6078183650970459|-1.578041076660156|0.4580307602882385|0.1182543039321899|-0.1724950969219208|XArbitraryZVertical|-0.1641901347260813|-0.7545543354974977|0.5529828201479512|0.3128891909424854|-0.290595144033432|0.9372578263282776|0.1926212906837463|0|0|0|-1|-1|3
2021-04-22 20:33:05.680 +0100|137023.299355375|0.1123504638671875|0.967803955078125|-0.034423828125|137023.279393375|0.5211280400785995|-1.949775609088231|-1.223656268295869|3.870731592178345|-0.85285484790802|-1.383844137191772|0.4478606581687927|0.05525624752044678|-0.1160723268985748|XArbitraryZVertical|-0.1369444410304645|-0.7376858040198543|0.5776861916748899|0.3214724572887626|-0.3160695135593414|0.9403495192527771|0.1258682459592819|0|0|0|-1|-1|3
2021-04-22 20:33:05.700 +0100|137023.319316375|0.102325439453125|0.9980010986328125|-0.1322479248046875|137023.299355375|0.7559280926435241|-1.748505652166166|-1.219691344762421|3.744134426116943|-1.102952003479004|-1.191173315048218|0.4536325633525848|0.01668041944503784|-0.06530106067657471|XArbitraryZVertical|-0.1094759963607961|-0.7200102203448047|0.602399451600914|0.3266730705375043|-0.3385193347930908|0.9389932155609131|0.06079942360520363|0|0|0|-1|-1|3
2021-04-22 20:33:05.720 +0100|137023.339278375|0.08160400390625|1.020462036132812|-0.195465087890625|137023.319316375|0.9703256407792644|-1.572316579026426|-1.205569856495697|3.616009950637817|-1.360556364059448|-0.8795376420021057|0.467360645532608|0.06759023666381836|-0.1095215082168579|XArbitraryZVertical|-0.08250377794740214|-0.7024703652555281|0.6263302618400789|0.3277789486228301|-0.3571607768535614|0.9340428709983826|0.0005429748562164605|0|0|0|-1|-1|3
2021-04-22 20:33:05.740 +0100|137023.359240375|0.022308349609375|1.012435913085938|-0.2007904052734375|137023.339278375|1.160605828084828|-1.424171221216777|-1.185314878822066|3.463793277740479|-1.518498301506042|-0.6624349355697632|0.4626853764057159|0.1154361367225647|-0.1371892690658569|XArbitraryZVertical|-0.05646077228290493|-0.6850875260179097|0.6494918586428646|0.3250041611730658|-0.3719709813594818|0.9266175031661987|-0.05493452399969101|0|0|0|-1|-1|3
2021-04-22 20:33:05.760 +0100|137023.379202375|-0.1300048828125|1.043991088867188|-0.11065673828125|137023.359240375|1.322887818032951|-1.305413183697914|-1.159937135685587|3.247047901153564|-1.545619130134583|-0.5209071040153503|0.4280034303665161|0.08335971832275391|-0.10540621727705|XArbitraryZVertical|-0.03148073156137281|-0.6683054627802449|0.6708259925709087|0.3199520934729976|-0.3854152858257294|0.916778028011322|-0.1047535464167595|0|0|0|-1|-1|3
2021-04-22 20:33:05.780 +0100|137023.399164375|-0.2086029052734375|1.0679931640625|-0.071868896484375|137023.379202375|1.465977265759987|-1.204838892590088|-1.131868531873847|3.240703582763672|-1.42621374130249|-0.3049088418483734|0.3130586743354797|0.1367236971855164|0.02232658863067627|XArbitraryZVertical|-0.008325084259965348|-0.6510717508181926|0.6911577290777933|0.313587937420982|-0.3968285918235779|0.9052078127861023|-0.1520725339651108|0|0|0|-1|-1|3
2021-04-22 20:33:05.800 +0100|137023.419126375|-0.335601806640625|1.036102294921875|-0.0230865478515625|137023.399164375|1.594288393754685|-1.116415139020605|-1.103090808273172|3.052895307540894|-1.298541784286499|-0.08595810830593109|0.2186174392700195|0.1753731966018677|0.1172636747360229|XArbitraryZVertical|0.0121486882272804|-0.6331778499818481|0.7107372947242845|0.3062530138604456|-0.4050942957401276|0.8926050662994385|-0.197876438498497|0|0|0|-1|-1|3
2021-04-22 20:33:05.820 +0100|137023.439088375|-0.4629669189453125|1.038421630859375|-0.01556396484375|137023.419126375|1.702874645248405|-1.045474789931621|-1.075801148933692|2.677209138870239|-1.243997931480408|0.06544783711433411|0.1000790596008301|0.156848669052124|0.2127698361873627|XArbitraryZVertical|0.03002288023596054|-0.6164313298715787|0.7282704933771796|0.2978810967226764|-0.4109760224819183|0.8799710273742676|-0.2382220774888992|0|0|0|-1|-1|3
2021-04-22 20:33:05.840 +0100|137023.459050375|-0.5836334228515625|0.9206390380859375|0.00555419921875|137023.439088375|1.794112881777225|-0.9904161251658392|-1.051713384245311|2.332938671112061|-1.245227932929993|0.2041822820901871|-0.01043963432312012|0.1769680380821228|0.2543229758739471|XArbitraryZVertical|0.04564819500043073|-0.6015848713093092|0.7435380978191486|0.2883800712086799|-0.4148525297641754|0.8682745099067688|-0.2720237672328949|0|0|0|-1|-1|3
2021-04-22 20:33:05.860 +0100|137023.479012375|-0.6878814697265625|0.8149871826171875|0.042694091796875|137023.459050375|1.866694153075531|-0.9526325990531306|-1.03212853038678|1.774709582328796|-1.267309188842773|0.2145439237356186|-0.135512113571167|0.08045017719268799|0.2970246076583862|XArbitraryZVertical|0.05948677076036616|-0.5897553377671461|0.7558144307778204|0.2781991318606774|-0.4180607795715332|0.8583928346633911|-0.2972999215126038|0|0|0|-1|-1|3
2021-04-22 20:33:05.880 +0100|137023.498974375|-0.79620361328125|0.834808349609375|0.08111572265625|137023.479012375|1.915640189727069|-0.9367480230490601|-1.01760573428489|1.091330766677856|-1.350454211235046|0.06485351175069809|-0.2353905141353607|-0.002585709095001221|0.3469604551792145|XArbitraryZVertical|0.07240669791209595|-0.5823482506068841|0.7639134416579562|0.268447603703328|-0.4232848882675171|0.8508524894714355|-0.3112555742263794|0|0|0|-1|-1|3
2021-04-22 20:33:05.899 +0100|137023.518936375|-0.9248199462890625|0.9486083984375|0.0889892578125|137023.498974375|1.935904656506694|-0.9479295146736008|-1.008315280169481|0.3408728241920471|-1.498419523239136|-0.1867325752973557|-0.3385109901428223|-0.01576471328735352|0.3832290172576904|XArbitraryZVertical|0.08548438262800634|-0.5806390697446336|0.766744802370689|0.2601023089161664|-0.4331405460834503|0.8459346294403076|-0.3111013770103455|0|0|0|-1|-1|3
2021-04-22 20:33:05.919 +0100|137023.538897375|-1.014083862304688|1.017242431640625|0.096221923828125|137023.518936375|1.931268204578115|-0.9834717632100289|-1.003008408972927|-0.1651977002620697|-1.659371972084045|-0.3725079298019409|-0.4500822424888611|0.07353353500366211|0.4027172923088074|XArbitraryZVertical|0.0994017133094568|-0.5840555175142859|0.7648261772256643|0.2530603901781992|-0.4476526975631714|0.8430926203727722|-0.2979969084262848|0|0|0|-1|-1|3
2021-04-22 20:33:05.939 +0100|137023.558859375|-1.057479858398438|1.009902954101562|0.0773773193359375|137023.538897375|1.914546781773868|-1.031801154291303|-0.9993221517996116|-0.3576533794403076|-1.751587986946106|-0.419025719165802|-0.5231898427009583|0.1734830737113953|0.3837095499038696|XArbitraryZVertical|0.11408242152524|-0.5900654693612993|0.7603471823133595|0.2463336800518389|-0.4641904830932617|0.8411045670509338|-0.277615875005722|0|0|0|-1|-1|3
2021-04-22 20:33:05.959 +0100|137023.578821375|-1.057464599609375|0.9984893798828125|0.0135040283203125|137023.558859375|1.893590002560229|-1.084672612000945|-0.9961796874392631|-0.4817089438438416|-1.75838577747345|-0.4044874310493469|-0.5623902082443237|0.1698615550994873|0.3399283289909363|XArbitraryZVertical|0.1288897037233485|-0.5970110334721985|0.754714061477084|0.2395246332638561|-0.4805474281311035|0.8394007086753845|-0.253930538892746|0|0|0|-1|-1|3
2021-04-22 20:33:05.979 +0100|137023.598783375|-1.044387817382812|0.9468536376953125|-0.023162841796875|137023.578821375|1.871822551023878|-1.136790916033366|-0.9935013807839908|-0.4648572504520416|-1.614872813224792|-0.3727423846721649|-0.5671243667602539|0.1779426336288452|0.2583194375038147|XArbitraryZVertical|0.1428039682748911|-0.6040354720000215|0.7486761683964749|0.2328783443285229|-0.4951614141464233|0.8379420042037964|-0.2294963449239731|0|0|0|-1|-1|3
2021-04-22 20:33:05.999 +0100|137023.618745375|-1.041397094726562|0.8880615234375|-0.0359344482421875|137023.598783375|1.848420899524378|-1.186352178981715|-0.9909200468960923|-0.5981065630912781|-1.372753381729126|-0.3839235007762909|-0.5420305132865906|0.1175407767295837|0.1912723481655121|XArbitraryZVertical|0.1550081276247615|-0.6109217207964812|0.7423323457516545|0.2273540882301255|-0.5079261660575867|0.8365304470062256|-0.2054942697286606|0|0|0|-1|-1|3
2021-04-22 20:33:06.019 +0100|137023.638707375|-0.996246337890625|0.8755340576171875|-0.0306854248046875|137023.618745375|1.820503725766535|-1.234561266779296|-0.9880528053896013|-0.7253443598747253|-1.121790409088135|-0.4080794453620911|-0.5265035629272461|0.05934667587280273|0.1456490159034729|XArbitraryZVertical|0.1651790860647331|-0.6180059567110141|0.7353320147851723|0.2237666521336954|-0.5195012092590332|0.8349559903144836|-0.1815690100193024|0|0|0|-1|-1|3
2021-04-22 20:33:06.040 +0100|137023.658669375|-0.9518280029296875|0.769622802734375|0.0030975341796875|137023.638707375|1.792558412685888|-1.277809750234987|-0.9846948775037011|-0.6487012505531311|-0.8848268985748291|-0.3912208378314972|-0.4765867590904236|0.06238949298858643|0.120790958404541|XArbitraryZVertical|0.1734336989182516|-0.6245374563941634|0.7285256051199586|0.2216400171731256|-0.5295467376708984|0.833103358745575|-0.1597474366426468|0|0|0|-1|-1|3
2021-04-22 20:33:06.059 +0100|137023.678631375|-0.95550537109375|0.78765869140625|0.0304718017578125|137023.658669375|1.76442831438678|-1.316679246122151|-0.9808256313377177|-0.7903043031692505|-0.6669306755065918|-0.4113322198390961|-0.4247094392776489|-0.04657858610153198|0.1271466612815857|XArbitraryZVertical|0.1799859637328139|-0.6306155766566093|0.7218943400136069|0.2209023601831997|-0.5384706258773804|0.8309569954872131|-0.1398580968379974|0|0|0|-1|-1|3
2021-04-22 20:33:06.079 +0100|137023.698593375|-0.91357421875|0.8049163818359375|0.0541839599609375|137023.678631375|1.730435310235799|-1.356101784988556|-0.9761539783327687|-0.9049103260040283|-0.4516466856002808|-0.4743521809577942|-0.4176295399665833|-0.05854278802871704|0.14907605946064|XArbitraryZVertical|0.1849273788103819|-0.6372797618838717|0.7143725002704819|0.222144934889712|-0.5473510026931763|0.8283489346504211|-0.1193527430295944|0|0|0|-1|-1|3
2021-04-22 20:33:06.099 +0100|137023.718555375|-0.8893585205078125|0.831451416015625|0.0969085693359375|137023.698593375|1.694222700534284|-1.39296012106504|-0.970463538503967|-1.009155035018921|-0.2385774254798889|-0.4680708646774292|-0.3603123426437378|-0.01572948694229126|0.1489749997854233|XArbitraryZVertical|0.1883347318778723|-0.6438656567835217|0.7066147775875852|0.2250841150649713|-0.5560081005096436|0.8251476883888245|-0.09993408620357513|0|0|0|-1|-1|3
2021-04-22 20:33:06.119 +0100|137023.738516375|-0.8468017578125|0.851959228515625|0.1374969482421875|137023.718555375|1.654360147964275|-1.428098978391709|-0.9652645779937005|-1.133135318756104|0.009604789316654205|-0.404305100440979|-0.3339087963104248|0.002767264842987061|0.1691581606864929|XArbitraryZVertical|0.1895311022904703|-0.6508486810972348|0.6984501012139416|0.229437571230301|-0.5634143352508545|0.8221995234489441|-0.08094791322946548|0|0|0|-1|-1|3
2021-04-22 20:33:06.139 +0100|137023.758478375|-0.7704620361328125|0.801239013671875|0.18170166015625|137023.738516375|1.612021800443495|-1.460254891708353|-0.9607958278208713|-1.206979870796204|0.2525964975357056|-0.345473051071167|-0.2959998250007629|0.03177773952484131|0.1902406215667725|XArbitraryZVertical|0.1883572958892549|-0.6579689614597248|0.6901641540242976|0.2350996039273963|-0.5693714022636414|0.8196477293968201|-0.06319674849510193|0|0|0|-1|-1|3
2021-04-22 20:33:06.159 +0100|137023.778440375|-0.6788177490234375|0.822418212890625|0.215545654296875|137023.758478375|1.565905665017034|-1.490648920919954|-0.9567908983950416|-1.439023971557617|0.4757815301418304|-0.3054090738296509|-0.2137887477874756|-0.001779437065124512|0.2193289399147034|XArbitraryZVertical|0.1848871959468626|-0.6653969659106526|0.681474770021104|0.2421898898211089|-0.574296772480011|0.8173468708992004|-0.04612720385193825|0|0|0|-1|-1|3
2021-04-22 20:33:06.179 +0100|137023.798402|-0.6326751708984375|0.87744140625|0.2509002685546875|137023.778440375|1.511834537072102|-1.523514649096911|-0.9531249089786595|-1.637995839118958|0.6359943151473999|-0.247622475028038|-0.1250449419021606|-0.0007907748222351074|0.2313359379768372|XArbitraryZVertical|0.1791522749915672|-0.6739571457911543|0.6714468119218965|0.2506904163284747|-0.5784916281700134|0.8152292370796204|-0.0273724552243948|0|0|0|-1|-1|3
2021-04-22 20:33:06.199 +0100|137023.818364|-0.579010009765625|0.8452911376953125|0.3041534423828125|137023.798402|1.453423899266123|-1.556989460212333|-0.9504560321505731|-1.690221548080444|0.7734863758087158|-0.1222991570830345|-0.06553208827972412|0.04421472549438477|0.2510213255882263|XArbitraryZVertical|0.1714001052607988|-0.6830879007421371|0.6607459858643159|0.2596687157541234|-0.5812569856643677|0.8136807084083557|-0.008025847375392914|0|0|0|-1|-1|3
2021-04-22 20:33:06.219 +0100|137023.838326|-0.540618896484375|0.8534393310546875|0.3371429443359375|137023.818364|1.394536919004066|-1.587594106304801|-0.9491428588847654|-1.787145137786865|0.9490945935249329|9.173993021249771e-06|-0.01102399826049805|0.04401755332946777|0.2828806638717651|XArbitraryZVertical|0.161639014660458|-0.6919277045209854|0.6502408456433878|0.2688790514229291|-0.5822983384132385|0.81291663646698|0.009782238863408566|0|0|0|-1|-1|3
2021-04-22 20:33:06.239 +0100|137023.858288|-0.541961669921875|0.8329315185546875|0.37469482421875|137023.838326|1.33213582368264|-1.617946866143348|-0.9492160301009924|-1.849050164222717|1.078480243682861|0.1159717291593552|0.02778023481369019|0.03973311185836792|0.3071017265319824|XArbitraryZVertical|0.1496698880961242|-0.700943802114158|0.6393498304580361|0.2784039271614892|-0.5816738605499268|0.8129592537879944|0.02744657732546329|0|0|0|-1|-1|3
2021-04-22 20:33:06.259 +0100|137023.87825|-0.480926513671875|0.920013427734375|0.3551788330078125|137023.858288|1.26464426576459|-1.650727301472245|-0.9501383053949284|-2.074192762374878|1.15009331703186|0.2179032415151596|0.04643505811691284|0.004451930522918701|0.3139301538467407|XArbitraryZVertical|0.1359211999858633|-0.7104529840999422|0.6276026536294577|0.2879183280071627|-0.5797138810157776|0.813495934009552|0.04643603041768074|0|0|0|-1|-1|3
2021-04-22 20:33:06.279 +0100|137023.898212|-0.4371337890625|0.8582916259765625|0.330169677734375|137023.87825|1.195125427769949|-1.684258799046112|-0.9528011423112188|-1.928508281707764|1.175276517868042|0.3967399895191193|0.1047912240028381|0.117392897605896|0.2823613882064819|XArbitraryZVertical|0.120573683474661|-0.7199039630209106|0.6157690949827535|0.2966963143309397|-0.5756767988204956|0.8150416612625122|0.06559945642948151|0|0|0|-1|-1|3
2021-04-22 20:33:06.299 +0100|137023.918174|-0.413116455078125|0.8338775634765625|0.2924041748046875|137023.898212|1.125713235231395|-1.717112175380691|-0.9569594755549052|-2.003196954727173|1.207558512687683|0.5373918414115906|0.1069636940956116|0.02235472202301025|0.2589161396026611|XArbitraryZVertical|0.1040408884917382|-0.7288105951494332|0.6043014333830441|0.3046811341165205|-0.5698537826538086|0.8174439668655396|0.08397877961397171|0|0|0|-1|-1|3
2021-04-22 20:33:06.319 +0100|137023.938136|-0.40283203125|0.7675933837890625|0.26715087890625|137023.938136|0.982611967346837|-1.785226148005914|-0.9674110372311624|-1.945966243743896|1.259181022644043|0.6976665854454041|0.1509506702423096|-0.02037906646728516|0.1438119560480118|XArbitraryZVertical|0.06797369910681732|-0.7454876137882506|0.5813423515245685|0.3188559280327509|-0.5544382929801941|0.8234193921089172|0.120744414627552|0|0|0|-1|-1|3
2021-04-22 20:33:06.339 +0100|137023.958097|-0.3947906494140625|0.7806549072265625|0.2459716796875||||||||||||||||||||||||3
2021-04-22 20:33:06.359 +0100|137023.978059|-0.3826751708984375|0.8351287841796875|0.2287445068359375|137023.958097|0.9079825275615608|-1.821892415158974|-0.9725285984587843|-2.00937819480896|1.243781685829163|0.7885398864746094|0.172916054725647|-0.05871838331222534|0.1072529554367065|XArbitraryZVertical|0.04887981154042933|-0.7533792278466523|0.5694980733422833|0.3251193718771636|-0.5455502867698669|0.8263124823570251|0.1399389952421188|0|0|0|-1|-1|3
2021-04-22 20:33:06.379 +0100|137023.998021|-0.3998260498046875|0.8610992431640625|0.227508544921875|137023.978059|0.8330035033423411|-1.859087154669852|-0.9784301251045678|-1.875361442565918|1.24686586856842|0.897758424282074|0.1483374834060669|-3.135204315185547e-05|0.07450556755065918|XArbitraryZVertical|0.0290869165883545|-0.7606075744489925|0.5580083068468634|0.3305403268221528|-0.5352844595909119|0.8296219110488892|0.1587398648262024|0|0|0|-1|-1|3
2021-04-22 20:33:06.398 +0100|137024.017983|-0.4089813232421875|0.8431243896484375|0.234375|137023.998021|0.761413029613539|-1.893539588319336|-0.98526108461978|-1.732251048088074|1.27560830116272|0.9480198621749878|0.1281014680862427|0.027790367603302|0.05629992485046387|XArbitraryZVertical|0.009130138456346082|-0.7665231907204286|0.5476286049331153|0.3353533528272375|-0.5241121053695679|0.8334164023399353|0.1752823293209076|0|0|0|-1|-1|3
2021-04-22 20:33:06.419 +0100|137024.037945|-0.4361419677734375|0.8387298583984375|0.2538604736328125|137024.017983|0.6929064597274913|-1.925161647005365|-0.9918852927836004|-1.635767817497253|1.287930727005005|0.9293742179870605|0.1010866761207581|0.009224534034729004|0.04288122057914734|XArbitraryZVertical|-0.01065716599794658|-0.7712387233519259|0.537972263093044|0.3400927833565077|-0.5131189227104187|0.837058961391449|0.1898454874753952|0|0|0|-1|-1|3
2021-04-22 20:33:06.439 +0100|137024.057907|-0.3896942138671875|0.9367828369140625|0.2401123046875|137024.037945|0.6252660262301405|-1.956479449421259|-0.9970134762121866|-1.634305834770203|1.254938006401062|0.8839467763900757|0.07830309867858887|0.005148410797119141|0.03806141018867493|XArbitraryZVertical|-0.02999594640475064|-0.7753717311095011|0.5282440364413165|0.3447569647811054|-0.5029392242431641|0.8398535847663879|0.2042021602392197|0|0|0|-1|-1|3
2021-04-22 20:33:06.458 +0100|137024.077869|-0.35791015625|0.919189453125|0.211669921875|137024.057907|0.5596799814275989|-1.987161525754225|-1.000778345108186|-1.443285465240479|1.188570737838745|0.8609491586685181|0.09142869710922241|0.08259367942810059|0.028312087059021|XArbitraryZVertical|-0.04854511168419053|-0.7789548109989334|0.5186405564724658|0.3491202004585721|-0.4935427904129028|0.8418912887573242|0.2182544469833374|0|0|0|-1|-1|3
2021-04-22 20:33:06.478 +0100|137024.097831|-0.3421478271484375|0.9449462890625|0.176513671875|137024.077869|0.5013129011086651|-2.013481255982057|-1.004604685134606|-1.295076370239258|1.099802374839783|0.7950976490974426|0.1137582361698151|0.08267134428024292|-0.01146313548088074|XArbitraryZVertical|-0.06562130426723928|-0.7814004857886028|0.5103778143727803|0.3530182268132754|-0.4847139120101929|0.8439499735832214|0.22978575527668|0|0|0|-1|-1|3
2021-04-22 20:33:06.498 +0100|137024.117793|-0.348388671875|0.928924560546875|0.1611175537109375|137024.097831|0.4481711134159978|-2.037235675765252|-1.007501913557627|-1.104193449020386|1.023158311843872|0.7120285630226135|0.1341603398323059|0.08890247344970703|-0.05557826161384583|XArbitraryZVertical|-0.08118506281705003|-0.783246806241364|0.5027813265587567|0.356573186650376|-0.4769329428672791|0.8455005884170532|0.2401331514120102|0|0|0|-1|-1|3
2021-04-22 20:33:06.518 +0100|137024.137755|-0.355804443359375|0.9423370361328125|0.1553192138671875|137024.117793|0.4034918501312434|-2.055292952165251|-1.010176439097551|-0.9060183167457581|0.9497513175010681|0.6255431175231934|0.1226933300495148|0.08470034599304199|-0.08072055876255035|XArbitraryZVertical|-0.09489411546842923|-0.7841051432369304|0.4964763819478017|0.3601187648081477|-0.470516562461853|0.846925675868988|0.247651532292366|0|0|0|-1|-1|3
2021-04-22 20:33:06.539 +0100|137024.157717|-0.354217529296875|0.9377288818359375|0.137786865234375|137024.157717|0.330298888914285|-2.083387838569535|-1.01465019627429|-0.7185132503509521|0.7194486856460571|0.5032657384872437|0.09961012005805969|0.08612966537475586|-0.1166833341121674|XArbitraryZVertical|-0.1178512318136914|-0.78458034374071|0.4862310505076369|0.3662298881574567|-0.4600676894187927|0.8492959141731262|0.2589104473590851|0|0|0|-1|-1|3
2021-04-22 20:33:06.558 +0100|137024.177679|-0.347686767578125|0.9154205322265625|0.109527587890625||||||||||||||||||||||||3
2021-04-22 20:33:06.578 +0100|137024.19764|-0.3368682861328125|0.905914306640625|0.0856781005859375|137024.177679|0.2979471825622719|-2.098085701560708|-1.015775613425585|-0.7001610994338989|0.5630975961685181|0.4527345895767212|0.1060830354690552|0.08108043670654297|-0.1485402584075928|XArbitraryZVertical|-0.1272713114563032|-0.7851009959971482|0.4815912494570832|0.3680876114958587|-0.4553864002227783|0.8498895168304443|0.2651631236076355|0|0|0|-1|-1|3
2021-04-22 20:33:06.598 +0100|137024.217602|-0.31072998046875|0.94061279296875|0.078765869140625|137024.19764|0.26689888205886|-2.114051731897108|-1.015410701952099|-0.7255906462669373|0.4712022840976715|0.3664588034152985|0.09374091029167175|0.06596815586090088|-0.1714095175266266|XArbitraryZVertical|-0.1355526725435595|-0.7860696147329691|0.4767854378909474|0.3693179995254903|-0.4513602256774902|0.8496971726417542|0.2725599408149719|0|0|0|-1|-1|3
2021-04-22 20:33:06.618 +0100|137024.237564|-0.2747039794921875|0.94256591796875|0.051055908203125|137024.217602|0.2373830955797729|-2.130886864032589|-1.013817373822522|-0.6713277101516724|0.3646830320358276|0.3070423305034637|0.1454107165336609|0.08904129266738892|-0.2056889832019806|XArbitraryZVertical|-0.1427911532302918|-0.7874198021766076|0.4719223949777944|0.3699595547239211|-0.4478542804718018|0.8488559722900391|0.2808385193347931|0|0|0|-1|-1|3
2021-04-22 20:33:06.638 +0100|137024.257526|-0.2889862060546875|0.93963623046875|0.05126953125|137024.237564|0.2118666537138245|-2.146112258683634|-1.011609182402898|-0.5878183245658875|0.269268125295639|0.2465638369321823|0.1537325382232666|0.09652775526046753|-0.2250754237174988|XArbitraryZVertical|-0.1487563887560409|-0.7887923165087838|0.4674973812503723|0.3703031682379047|-0.4450981318950653|0.8476865887641907|0.2886435687541962|0|0|0|-1|-1|3
2021-04-22 20:33:06.658 +0100|137024.277488|-0.2801971435546875|0.960479736328125|0.07415771484375|137024.257526|0.1896338728557388|-2.160656304184473|-1.009382001364326|-0.531023383140564|0.1678348034620285|0.2106985002756119|0.1627435386180878|0.09498006105422974|-0.2468652129173279|XArbitraryZVertical|-0.1536399326554179|-0.7902294805808422|0.4636536810181609|0.3700775466397346|-0.4424209296703339|0.8465030193328857|0.2961357235908508|0|0|0|-1|-1|3
2021-04-22 20:33:06.678 +0100|137024.29745|-0.2830963134765625|0.9474029541015625|0.1035003662109375|137024.277488|0.1730690211546692|-2.171023881190048|-1.011015623517741|-0.4459958970546722|0.09696824103593826|0.2016231566667557|0.160308837890625|0.09543931484222412|-0.2331681847572327|XArbitraryZVertical|-0.1581524151631941|-0.7905381415424534|0.4620106382029736|0.3695723372796574|-0.4381858706474304|0.8473715782165527|0.2999254763126373|0|0|0|-1|-1|3
2021-04-22 20:33:06.697 +0100|137024.317412|-0.269439697265625|0.906982421875|0.114410400390625|137024.29745|0.1623745129265105|-2.177622646339178|-1.015111615883434|-0.2453820705413818|0.03924997895956039|0.1469742953777313|0.1541528403759003|0.1013888120651245|-0.2048352360725403|XArbitraryZVertical|-0.1617573870851848|-0.7900940965943103|0.4621054538893594|0.368842057688488|-0.433341920375824|0.8495394587516785|0.3008282780647278|0|0|0|-1|-1|3
2021-04-22 20:33:06.717 +0100|137024.337374|-0.2906494140625|0.8805999755859375|0.1518096923828125|137024.317412|0.1575703828531022|-2.180393084431669|-1.019751068195547|-0.1557757556438446|-0.02830456383526325|0.07096981257200241|0.1616630554199219|0.04728430509567261|-0.1879209578037262|XArbitraryZVertical|-0.1640283099183293|-0.7892899537740291|0.4631941788981357|0.3681946399285917|-0.4292707443237305|0.8519777059555054|0.2997678220272064|0|0|0|-1|-1|3
2021-04-22 20:33:06.738 +0100|137024.357336|-0.3403167724609375|0.9426727294921875|0.1811981201171875|137024.337374|0.1566525761208673|-2.180803911666239|-1.024174858942948|-0.1720434874296188|-0.06395986676216125|-0.03646858781576157|0.1457816958427429|0.03173184394836426|-0.1571265757083893|XArbitraryZVertical|-0.1652593270800758|-0.788403715098086|0.4647255295484616|0.3676128388698576|-0.4260542094707489|0.8542855978012085|0.2977821230888367|0|0|0|-1|-1|3
2021-04-22 20:33:06.757 +0100|137024.377298|-0.3951263427734375|1.000839233398438|0.2010498046875|137024.357336|0.1557795801138097|-2.181474821785742|-1.026095657419786|-0.1852180510759354|-0.04254602640867233|-0.08983389288187027|0.1010541617870331|0.06323611736297607|-0.1237712502479553|XArbitraryZVertical|-0.1658654532367986|-0.788068390644751|0.4653438017532882|0.3672764479098918|-0.4245089888572693|0.8552824258804321|0.2971262633800507|0|0|0|-1|-1|3
2021-04-22 20:33:06.777 +0100|137024.39726|-0.403076171875|0.9906158447265625|0.228973388671875|137024.377298|0.1571218676351566|-2.180039796726158|-1.028655649616751|-0.02568304911255836|-0.024443618953228|-0.06739259511232376|0.03727489709854126|0.1345596313476562|-0.09644106030464172|XArbitraryZVertical|-0.1662282947695768|-0.7874005866022434|0.466433908551639|0.3671620753753101|-0.4231382310390472|0.856606125831604|0.2952630519866943|0|0|0|-1|-1|3
2021-04-22 20:33:06.797 +0100|137024.417222|-0.3904266357421875|0.9264678955078125|0.2404937744140625|137024.39726|0.1621984298583172|-2.175249225193866|-1.03353119575436|0.1460070759057999|-0.00418181112036109|-0.006088932510465384|0.02018278837203979|0.1432694792747498|-0.06610894203186035|XArbitraryZVertical|-0.1664164652886192|-0.785960183149978|0.4687963379242639|0.3671543411165238|-0.4211065173149109|0.8591115474700928|0.2908557057380676|0|0|0|-1|-1|3
2021-04-22 20:33:06.817 +0100|137024.437183|-0.34747314453125|0.880645751953125|0.223724365234375|137024.417222|0.1697340630363262|-2.168168405291223|-1.040333672705263|0.2342868149280548|0.002047963440418243|0.05174152180552483|0.02303561568260193|0.07251662015914917|-0.04656627774238586|XArbitraryZVertical|-0.1666205919812245|-0.7839158056358715|0.4721297270143637|0.3671610424163819|-0.4183136224746704|0.8625730872154236|0.2845728099346161|0|0|0|-1|-1|3
2021-04-22 20:33:06.838 +0100|137024.457145|-0.3390960693359375|0.816741943359375|0.216400146484375|137024.437183|0.1779767915457219|-2.16071704435375|-1.047543761229312|0.2835783660411835|0.005164925940334797|0.09239707142114639|0.05417561531066895|0.02259600162506104|-0.04853442311286926|XArbitraryZVertical|-0.1667588572829134|-0.7817812448705034|0.4756974195760391|0.3670444172343643|-0.4152433574199677|0.8661984801292419|0.2779808640480042|0|0|0|-1|-1|3
2021-04-22 20:33:06.857 +0100|137024.477107|-0.339080810546875|0.8607177734375|0.2379150390625|137024.457145|0.1891025388882746|-2.14976994499773|-1.054958550861246|0.3473408818244934|0.08712738752365112|0.05430907383561134|0.07380956411361694|-0.02892154455184937|-0.06077530980110168|XArbitraryZVertical|-0.1666934176674999|-0.7792058442169516|0.4795601962943385|0.3675237138621296|-0.4128741919994354|0.8698797821998596|0.2698968946933746|0|0|0|-1|-1|3
2021-04-22 20:33:06.877 +0100|137024.497069|-0.343505859375|0.8855133056640625|0.2564544677734375|137024.477107|0.2012980080907776|-2.136002612287193|-1.060869196572124|0.3585964739322662|0.1960287839174271|-0.005393669474869967|0.06685018539428711|-0.03140997886657715|-0.02603155374526978|XArbitraryZVertical|-0.1666061357229118|-0.77650294937088|0.4828183629189521|0.3690149601282866|-0.4122014045715332|0.8727800846099854|0.2614288628101349|0|0|0|-1|-1|3
2021-04-22 20:33:06.898 +0100|137024.517031|-0.2933349609375|0.889190673828125|0.2135467529296875|137024.497069|0.2157118264810296|-2.118421619153328|-1.065178640446523|0.3992442786693573|0.2817899286746979|-0.09960157424211502|0.06828954815864563|-2.747774124145508e-05|0.007767289876937866|XArbitraryZVertical|-0.166273450966264|-0.7735914936780761|0.4855838593926828|0.3716419528592833|-0.4135186970233917|0.8748754858970642|0.2521813213825226|0|0|0|-1|-1|3
2021-04-22 20:33:06.917 +0100|137024.536993|-0.2656097412109375|0.943817138671875|0.1716766357421875|137024.517031|0.2342482951256049|-2.096383108205573|-1.068097977301801|0.4727663397789001|0.3057475984096527|-0.212007999420166|0.1141685247421265|0.01318025588989258|-0.01473546028137207|XArbitraryZVertical|-0.1651735848676046|-0.7704416048777691|0.4882630058093655|0.3751490997402087|-0.4167646467685699|0.87628573179245|0.2417251616716385|0|0|0|-1|-1|3
2021-04-22 20:33:06.938 +0100|137024.556955|-0.2154388427734375|1.008087158203125|0.08245849609375|137024.556955|0.2913071231654134|-2.03572963018738|-1.070812097179225|0.9171936511993408|0.2578919231891632|-0.4421862661838531|0.207180380821228|0.124165415763855|-0.1093295514583588|XArbitraryZVertical|-0.1588790953558143|-0.7630418634623596|0.4951266480551715|0.3838938089031589|-0.4285235404968262|0.8775901198387146|0.214950904250145|0|0|0|-1|-1|3
2021-04-22 20:33:06.958 +0100|137024.576917|-0.2414093017578125|0.9954071044921875|0.0563507080078125||||||||||||||||||||||||3
2021-04-22 20:33:06.977 +0100|137024.596879|-0.267669677734375|0.9385223388671875|0.0565643310546875|137024.576917|0.3339480420494368|-1.994266901077415|-1.07151131400102|1.080298662185669|0.2195283025503159|-0.5318901538848877|0.2035962343215942|0.09288561344146729|-0.129292219877243|XArbitraryZVertical|-0.1531622269891945|-0.758232789389842|0.500367512836308|0.3889177281519439|-0.4365055561065674|0.8779250979423523|0.1967512667179108|0|0|0|-1|-1|3
2021-04-22 20:33:06.997 +0100|137024.616841|-0.2627716064453125|0.87823486328125|0.0615234375|137024.596879|0.3856161459496392|-1.946103699003615|-1.069438363934436|1.116442918777466|0.04733448475599289|-0.6230659484863281|0.183767557144165|0.06502556800842285|-0.115368127822876|XArbitraryZVertical|-0.1451965434965762|-0.7529974389654834|0.5062173999685545|0.39453383883933|-0.4471639096736908|0.8769307136535645|0.1761743575334549|0|0|0|-1|-1|3
2021-04-22 20:33:07.017 +0100|137024.636803|-0.3007049560546875|0.827056884765625|0.06292724609375|137024.616841|0.4393677435484236|-1.900381670471274|-1.064165990779724|1.112174868583679|-0.1876676976680756|-0.7793813347816467|0.1956445574760437|0.03468900918960571|-0.1003447771072388|XArbitraryZVertical|-0.1351603585471155|-0.7485017420391931|0.5120139821404069|0.3991474607473287|-0.4591171443462372|0.8743845224380493|0.1570463627576828|0|0|0|-1|-1|3
2021-04-22 20:33:07.037 +0100|137024.656765|-0.326446533203125|0.828857421875|0.048065185546875|137024.636803|0.4912824036893749|-1.861154876208187|-1.053977570060713|0.9992280006408691|-0.4092830717563629|-0.9626600742340088|0.1812598705291748|-0.04841083288192749|-0.07488976418972015|XArbitraryZVertical|-0.1228578130474886|-0.7454111811998987|0.5167855844147767|0.4027418934233593|-0.4734343290328979|0.8693954944610596|0.1414637416601181|0|0|0|-1|-1|3
2021-04-22 20:33:07.057 +0100|137024.676726|-0.3364715576171875|0.8228607177734375|0.031341552734375|137024.656765|0.5396449371427606|-1.829327998108961|-1.039556011327644|0.9377065896987915|-0.591914176940918|-1.079473257064819|0.1690893471240997|-0.02843844890594482|-0.07820367813110352|XArbitraryZVertical|-0.1087279498892589|-0.7435977938022926|0.5204546033941017|0.4054228768373928|-0.4897671937942505|0.8621793985366821|0.1295188963413239|0|0|0|-1|-1|3
2021-04-22 20:33:07.077 +0100|137024.696688|-0.3317108154296875|0.8094635009765625|-0.0083160400390625|137024.676726|0.5845165644325999|-1.804294515250851|-1.022489159519993|0.8946636319160461|-0.7600324153900146|-1.142343401908875|0.1703838109970093|-0.02796798944473267|-0.08465695381164551|XArbitraryZVertical|-0.09327953906887781|-0.7426992528003841|0.5233983945401672|0.407125345093468|-0.5070986747741699|0.8534080982208252|0.120606504380703|0|0|0|-1|-1|3
2021-04-22 20:33:07.097 +0100|137024.71665|-0.3376617431640625|0.77899169921875|-0.0484466552734375|137024.696688|0.6289448793909372|-1.783551638112445|-1.003851220316671|1.010710000991821|-0.9322077035903931|-1.192986369132996|0.1889816522598267|-0.04065793752670288|-0.112257607281208|XArbitraryZVertical|-0.07632114036132359|-0.7422102259178005|0.526335966857693|0.4077617849300153|-0.5249488353729248|0.8435455560684204|0.1134018748998642|0|0|0|-1|-1|3
2021-04-22 20:33:07.117 +0100|137024.736612|-0.3663177490234375|0.767913818359375|-0.07122802734375|137024.71665|0.6761986352754905|-1.763942785216503|-0.9844390393735025|1.104091167449951|-1.063679695129395|-1.229099750518799|0.2119114995002747|-0.04556185007095337|-0.1440831422805786|XArbitraryZVertical|-0.05771486773169828|-0.7414676680682358|0.5299828760925048|0.4074469217447888|-0.5430416464805603|0.8329617977142334|0.1062106192111969|0|0|0|-1|-1|3
2021-04-22 20:33:07.137 +0100|137024.756574|-0.371002197265625|0.6869354248046875|-0.0626373291015625|137024.736612|0.7240646134602577|-1.746219089843545|-0.9644536878944668|1.203193187713623|-1.114419221878052|-1.230217337608337|0.2033635377883911|-0.06050658226013184|-0.1638325452804565|XArbitraryZVertical|-0.03815978347978033|-0.7404536519944762|0.5339428749517109|0.4064201649246606|-0.561120331287384|0.8217377066612244|0.09945555776357651|0|0|0|-1|-1|3
2021-04-22 20:33:07.157 +0100|137024.776536|-0.369110107421875|0.633544921875|-0.020050048828125|137024.756574|0.7740256728408429|-1.728103968852774|-0.9444260339683783|1.317824006080627|-1.16333794593811|-1.222870945930481|0.2104558348655701|-0.1037389636039734|-0.1623311042785645|XArbitraryZVertical|-0.01790964610385459|-0.7386452709077985|0.5385905839461506|0.4049724971645558|-0.5789701342582703|0.8101605772972107|0.09183518588542938|0|0|0|-1|-1|3
2021-04-22 20:33:07.177 +0100|137024.796498375|-0.3907623291015625|0.6131591796875|0.0204010009765625|137024.776536|0.8259227727834485|-1.710254981904312|-0.9244718236132555|1.444413661956787|-1.243849039077759|-1.213988661766052|0.2239280343055725|-0.1442949175834656|-0.116387240588665|XArbitraryZVertical|0.003076402836735553|-0.7361042743593054|0.5439320180755113|0.4028389756857579|-0.5964096784591675|0.7983027696609497|0.08371793478727341|0|0|0|-1|-1|3
2021-04-22 20:33:07.197 +0100|137024.816460375|-0.4405517578125|0.677734375|0.0422210693359375|137024.796498375|0.8798099134357724|-1.69338959524618|-0.9039511823798025|1.551124572753906|-1.338386654853821|-1.25860333442688|0.2270283699035645|-0.1807345747947693|-0.06344401836395264|XArbitraryZVertical|0.02519184728195568|-0.7329277507739429|0.5497979572224072|0.399880903895568|-0.6138684749603271|0.7857768535614014|0.07563543319702148|0|0|0|-1|-1|3
2021-04-22 20:33:07.217 +0100|137024.836422375|-0.5018768310546875|0.7969207763671875|0.0911865234375|137024.816460375|0.9351792928867241|-1.677321832039849|-0.8825035668320313|1.703488826751709|-1.356384515762329|-1.261960983276367|0.2005590200424194|-0.127448558807373|-0.02560841292142868|XArbitraryZVertical|0.04828881878459827|-0.7289978051888911|0.5559778831543566|0.396382659597743|-0.6316192150115967|0.7723315954208374|0.06753922253847122|0|0|0|-1|-1|3
2021-04-22 20:33:07.237 +0100|137024.856384375|-0.569000244140625|0.8937530517578125|0.1068267822265625|137024.836422375|0.9953393235930084|-1.658186531843718|-0.8615832709564826|1.969331622123718|-1.337929844856262|-1.193196892738342|0.1723120212554932|3.725290298461914e-05|0.02383339032530785|XArbitraryZVertical|0.07194091481275289|-0.7233561813692241|0.5635751972797999|0.3923817725002406|-0.6487517952919006|0.7588745951652527|0.05683932080864906|0|0|0|-1|-1|3
2021-04-22 20:33:07.257 +0100|137024.876346375|-0.566375732421875|1.01397705078125|0.0902099609375|137024.856384375|1.06118503725793|-1.63504504415141|-0.8423855080941083|2.222495079040527|-1.299673676490784|-1.049640536308289|0.1046347618103027|0.1202683448791504|0.0660395622253418|XArbitraryZVertical|0.09566060812923542|-0.7156947919242314|0.5731281815531123|0.3874973881671419|-0.6643112897872925|0.7462332248687744|0.04273997247219086|0|0|0|-1|-1|3
2021-04-22 20:33:07.277 +0100|137024.896308375|-0.53472900390625|1.069549560546875|0.0673065185546875|137024.876346375|1.13412968853692|-1.606228160811861|-0.8263334113414192|2.606916666030884|-1.224880337715149|-0.7873159646987915|0.1113107800483704|0.2483744621276855|0.07559084892272949|XArbitraryZVertical|0.1187810044399476|-0.7056149537689634|0.5853291352822283|0.38129858122574|-0.6771519184112549|0.7354519367218018|0.02400277927517891|0|0|0|-1|-1|3
2021-04-22 20:33:07.297 +0100|137024.916269375|-0.5904388427734375|1.187210083007812|0.0563201904296875|137024.896308375|1.215852355551918|-1.570250469952396|-0.8148459703877943|2.964896678924561|-1.153835773468018|-0.4347881674766541|0.1507637500762939|0.3110312223434448|0.07073211669921875|XArbitraryZVertical|0.1406651185684425|-0.6928391594248938|0.6008420996176185|0.3730630793043428|-0.685980498790741|0.7276199460029602|-0.0003744471760001034|0|0|0|-1|-1|3
2021-04-22 20:33:07.317 +0100|137024.936231375|-0.6361236572265625|1.480865478515625|0.0377960205078125|137024.916269375|1.308160775797129|-1.525192356080729|-0.8080503687317628|3.396713495254517|-1.036427855491638|-0.1393414437770844|0.1133026480674744|0.4675194025039673|0.08416998386383057|XArbitraryZVertical|0.1608840364700677|-0.6770285644522069|0.6200218332899582|0.3623835372774875|-0.6901912689208984|0.722941517829895|-0.0314972996711731|0|0|0|-1|-1|3
2021-04-22 20:33:07.337 +0100|137024.956193375|-0.67181396484375|1.671737670898438|-0.0036163330078125|137024.936231375|1.414534492092624|-1.467230769682553|-0.8009152072161576|3.982294082641602|-0.8554348349571228|-0.08110928535461426|0.0706627368927002|0.6942386627197266|0.1144225597381592|XArbitraryZVertical|0.1805281316070285|-0.6568337584794868|0.6428433822633483|0.3503305752327998|-0.6923205256462097|0.717993438243866|-0.07195801287889481|0|0|0|-1|-1|3
2021-04-22 20:33:07.357 +0100|137024.976155375|-0.73565673828125|2.006668090820312|-0.0712890625|137024.956193375|1.532625969187927|-1.400099957310949|-0.7871811248640621|4.67486047744751|-0.9003440737724304|-0.1334466338157654|0.0170137882232666|0.7895284295082092|0.1444058418273926|XArbitraryZVertical|0.2012973402596886|-0.6320829886028612|0.6678409022327203|0.3375487869841413|-0.6955868601799011|0.7083663940429688|-0.1199009492993355|0|0|0|-1|-1|3
2021-04-22 20:33:07.377 +0100|137024.996117375|-0.789337158203125|2.118118286132812|-0.1570587158203125|137024.976155375|1.682599187036602|-1.315901394883711|-0.7621678215701518|6.366880416870117|-1.223901033401489|-0.07117374241352081|-0.01371383666992188|1.255355834960938|0.1264769434928894|XArbitraryZVertical|0.2270330405042964|-0.5977148488300111|0.6991477767165336|0.319977380327307|-0.6999697685241699|0.6904911398887634|-0.1823859214782715|0|0|0|-1|-1|3
2021-04-22 20:33:07.397 +0100|137025.016079375|-0.793670654296875|2.083480834960938|-0.1888580322265625|137024.996117375|1.865363818043452|-1.222480540765718|-0.7189665553195477|7.671534061431885|-1.849010825157166|-0.01096624508500099|-0.07317209243774414|1.433800220489502|0.1192611455917358|XArbitraryZVertical|0.2598775292900258|-0.5514037027315519|0.7360006476425537|0.2944840877542097|-0.7072992920875549|0.6586073637008667|-0.2568352520465851|0|0|0|-1|-1|3
2021-04-22 20:33:07.417 +0100|137025.036041375|-0.936981201171875|1.754257202148438|-0.4597015380859375|137025.016079375|2.052066199421786|-1.149841584036157|-0.6606681064652541|7.336549758911133|-2.865239858627319|1.893891021609306e-05|-0.08615666627883911|1.545214891433716|0.1195838451385498|XArbitraryZVertical|0.2988486742023446|-0.4993646987279384|0.7703508534436134|0.2605457931021597|-0.720651388168335|0.613644540309906|-0.3226487338542938|0|0|0|-1|-1|3
2021-04-22 20:33:07.436 +0100|137025.056003375|-1.537033081054688|2.543685913085938|-1.586883544921875|137025.036041375|2.186593221041047|-1.139994731189035|-0.6077274674488128|4.965275764465332|-4.175176620483398|-0.2722825407981873|-0.1266040802001953|1.064860939979553|0.04000043869018555|XArbitraryZVertical|0.3415484359179214|-0.4603596773447389|0.7876790356442134|0.2257776811984492|-0.7459389567375183|0.5710033178329468|-0.3428272604942322|0|0|0|-1|-1|3
2021-04-22 20:33:07.456 +0100|137025.075965375|-3.1802978515625|-1.125274658203125|-5.398818969726562|137025.056003375|2.295447892470483|-1.168441556757553|-0.5602588342076398|5.904532909393311|-4.209191799163818|-0.4479336142539978|-0.5435449481010437|1.825970411300659|-0.8702313899993896|XArbitraryZVertical|0.3886306701477775|-0.4279093595014071|0.7935569722281021|0.1900717622743406|-0.7794681191444397|0.531405508518219|-0.3317195773124695|0|0|0|-1|-1|3
2021-04-22 20:33:07.477 +0100|137025.095927375|-4.1630859375|3.557037353515625|-4.25738525390625|137025.075965375|2.438447259356143|-1.135235564131139|-0.4926558064620158|5.123449802398682|-0.02588747814297676|-1.556794047355652|-1.418697118759155|0.2652219533920288|-2.999167442321777|XArbitraryZVertical|0.4186983103037021|-0.3725850076650935|0.812859788095011|0.1585284756337075|-0.7988166809082031|0.4729675352573395|-0.3717442750930786|0|0|0|-1|-1|3
2021-04-22 20:33:07.497 +0100|137025.115889375|-4.797134399414062|-5.964599609375|-2.507705688476562|137025.095927375|2.529015105459533|-1.037587526228565|-0.4391735229752308|10.53201007843018|7.493481159210205|-0.3874083459377289|-2.571891307830811|3.950326919555664|-3.948506832122803|XArbitraryZVertical|0.4043671728858864|-0.3262751092355182|0.8406848258732813|0.1525810103375664|-0.7794574499130249|0.4251915514469147|-0.4600634872913361|0|0|0|-1|-1|3
2021-04-22 20:33:07.516 +0100|137025.135851375|-8.930694580078125|-2.406265258789062|0.5149078369140625|137025.115889375|2.674311086826364|-0.7476783345974467|-0.3236584643436325|-0.1762319952249527|14.39875793457031|-1.231290578842163|-3.994875907897949|-4.382308006286621|-2.533105850219727|XArbitraryZVertical|0.3159008679181005|-0.2293648556211872|0.907428785120987|0.1554717996703925|-0.6446346044540405|0.3180371820926666|-0.695196807384491|0|0|0|-1|-1|3
2021-04-22 20:33:07.536 +0100|137025.155813375|-5.7425537109375|-0.1554412841796875|6.776626586914062|137025.135851375|2.566653110626657|-0.4649950322095927|-0.3909494561005459|-10.7236499786377|17.45855522155762|-3.224435329437256|-7.361598968505859|-2.536035060882568|-0.2947268486022949|XArbitraryZVertical|0.1631573231761206|-0.245333096537565|0.9280795188305828|0.2277275661064005|-0.4145841598510742|0.3810664117336273|-0.8263826966285706|0|0|0|-1|-1|3
2021-04-22 20:33:07.556 +0100|137025.175774375|-1.260391235351562|0.3123321533203125|7.52880859375|137025.155813375|2.43850510299069|-0.2020277036742646|-0.6742827951874001|-15.69935417175293|14.32845020294189|2.643986225128174|-6.763055324554443|-2.192239046096802|6.281243324279785|XArbitraryZVertical|-0.0239813104459986|-0.3417470972651817|0.8929596068237438|0.2919882566951429|-0.1567436009645462|0.6243372559547424|-0.7652676105499268|0|0|0|-1|-1|3
2021-04-22 20:33:07.576 +0100|137025.195736375|0.9733428955078125|0.1017913818359375|-3.637863159179688|137025.175774375|2.451891293043773|0.06045659000187701|-0.9125411338496573|-9.630814552307129|11.02897453308105|0.8609209656715393|-2.875552415847778|0.0327763557434082|8.311715126037598|XArbitraryZVertical|-0.1744151129274894|-0.4053015511670111|0.839962939702424|0.3158677950514837|0.03696104884147644|0.7910608053207397|-0.6106200218200684|0|0|0|-1|-1|3
2021-04-22 20:33:07.596 +0100|137025.215698375|-5.610275268554688|0.223114013671875|-2.806243896484375|137025.195736375|2.613144697463258|0.3999156147158163|-1.095326903534132|-8.41996955871582|10.46529769897461|4.575844764709473|1.93721079826355|-1.573297500610352|-2.594080209732056|XArbitraryZVertical|-0.2969672672972852|-0.4483216328382089|0.7806840047456913|0.3183564380491636|0.1782230287790298|0.8890779614448547|-0.4216363131999969|0|0|0|-1|-1|3
2021-04-22 20:33:07.616 +0100|137025.235660375|-2.215057373046875|0.3047637939453125|2.415298461914062|137025.215698375|2.811364470863858|0.8005754708670096|-1.056168750813967|2.79561185836792|9.772891044616699|2.796039342880249|-5.02117919921875|1.466468214988708|-3.45804238319397|XArbitraryZVertical|-0.4082935092563059|-0.4024111689454857|0.7523990998357223|0.3244338756118102|0.3532876968383789|0.8704760670661926|-0.3427233099937439|0|0|0|-1|-1|3
2021-04-22 20:33:07.636 +0100|137025.255622375|-0.97039794921875|0.37994384765625|2.442535400390625|137025.235660375|2.762987023717554|0.9130868762470093|-0.9879923765527173|3.17904806137085|5.560125350952148|0.7934656143188477|-2.922891855239868|-0.4625933170318604|2.370271921157837|XArbitraryZVertical|-0.4612931443683168|-0.3449453383919396|0.7368202838905702|0.3540018874706111|0.4355576932430267|0.834922730922699|-0.3364427089691162|0|0|0|-1|-1|3
2021-04-22 20:33:07.656 +0100|137025.275584375|-0.813018798828125|0.5356597900390625|1.456192016601562|137025.255622375|2.710108321029541|0.9377718353240727|-0.9574568231782176|1.602699398994446|1.54388439655304|0.09682662039995193|-1.519309997558594|-0.8216063976287842|3.003940105438232|XArbitraryZVertical|-0.47976299367685|-0.3155448463682717|0.7288691890135683|0.3728388080699802|0.4640741944313049|0.8177303671836853|-0.3405178487300873|0|0|0|-1|-1|3
2021-04-22 20:33:07.676 +0100|137025.295546375|-0.5346527099609375|0.9888763427734375|0.9620361328125|137025.275584375|2.65043299973813|0.8979222605628001|-0.9278548618981097|2.884354114532471|-0.4006312191486359|0.2140062302350998|-1.342053294181824|-0.1019411087036133|1.99568784236908|XArbitraryZVertical|-0.4745137153604714|-0.2966569861087306|0.7342856762253077|0.384260452260274|0.4688701629638672|0.8003356456756592|-0.3736627399921417|0|0|0|-1|-1|3
2021-04-22 20:33:07.696 +0100|137025.315508375|-0.33624267578125|0.5947723388671875|0.767425537109375|137025.295546375|2.569081788477691|0.8178007068808231|-0.8751715384430196|4.337135314941406|-1.103342413902283|0.4906114637851715|-1.063900470733643|0.1234595775604248|1.458764910697937|XArbitraryZVertical|-0.4552705852827028|-0.2713080351505521|0.7497107504487796|0.3963009657770737|0.4676032364368439|0.7676534652709961|-0.4382413029670715|0|0|0|-1|-1|3
2021-04-22 20:33:07.716 +0100|137025.335470375|-0.0195159912109375|0.3702392578125|0.646697998046875|137025.315508375|2.49310441853194|0.7350102615935022|-0.8104147019041754|3.360414743423462|-1.498122692108154|0.3532653450965881|-0.8774853944778442|-0.02750599384307861|1.340747237205505|XArbitraryZVertical|-0.4301934293724669|-0.2435195753515188|0.7678401313743493|0.4074967433202923|0.4621726870536804|0.7245730757713318|-0.5112636685371399|0|0|0|-1|-1|3
2021-04-22 20:33:07.736 +0100|137025.355432375|0.04608154296875|0.3318023681640625|0.627471923828125|137025.335470375|2.455658864364601|0.6754728736746888|-0.7717749471090342|1.421440124511719|-1.731102108955383|0.1970213949680328|-0.5150667428970337|-0.2890070676803589|1.221364736557007|XArbitraryZVertical|-0.4085278595227727|-0.2312026858123079|0.7812786711121072|0.4114051621787033|0.4481122493743896|0.6974083781242371|-0.5593006014823914|0|0|0|-1|-1|3
2021-04-22 20:33:07.756 +0100|137025.375394375|0.1847076416015625|0.403167724609375|0.606597900390625|137025.355432375|2.446472925080044|0.6349218709309224|-0.7572045733172368|0.1952916830778122|-1.707586169242859|0.1796013116836548|-0.3923235833644867|-0.3237029910087585|1.211363315582275|XArbitraryZVertical|-0.3923103270347505|-0.2313637623258436|0.7906704771733283|0.4091499958434183|0.4310514330863953|0.6868925094604492|-0.5851268172264099|0|0|0|-1|-1|3
2021-04-22 20:33:07.776 +0100|137025.395356375|0.3212127685546875|0.4138031005859375|0.428924560546875|137025.375394375|2.452639193640717|0.6049097215331198|-0.7626539977717363|-0.8497599959373474|-1.75183641910553|-0.1403735131025314|-0.2839964330196381|-0.3543255925178528|1.197783946990967|XArbitraryZVertical|-0.3802001736986836|-0.2410242011423981|0.7965525217206464|0.4035582839362643|0.4111641943454742|0.6908427476882935|-0.5947103500366211|0|0|0|-1|-1|3
2021-04-22 20:33:07.796 +0100|137025.415318375|0.425323486328125|0.6363677978515625|0.01141357421875|137025.395356375|2.465426662434018|0.5762076281271457|-0.7893714910432561|-1.95315146446228|-2.019022703170776|-0.5726256966590881|-0.08543670177459717|-0.3044239282608032|1.041898012161255|XArbitraryZVertical|-0.3697222159943608|-0.260804290552225|0.7987311888171684|0.3966298267835845|0.3837318122386932|0.7099107503890991|-0.5905731916427612|0|0|0|-1|-1|3
2021-04-22 20:33:07.816 +0100|137025.435279375|0.4664764404296875|1.067123413085938|-0.21807861328125|137025.415318375|2.48750817694048|0.5521247978580373|-0.8394281405761312|-2.938974142074585|-1.9717937707901|-0.7111704349517822|0.03229406476020813|-0.1730030179023743|0.6893151998519897|XArbitraryZVertical|-0.361668467793192|-0.2913275851062107|0.7963767043475903|0.3874381153712258|0.3503058552742004|0.7442613244056702|-0.5686483383178711|0|0|0|-1|-1|3
2021-04-22 20:33:07.836 +0100|137025.455241375|0.46527099609375|1.22552490234375|-0.3667755126953125|137025.435279375|2.515916730945079|0.5361083674636974|-0.894492918387336|-2.567945718765259|-1.80515718460083|-0.6605049967765808|0.1560261249542236|0.2978974580764771|0.3960110545158386|XArbitraryZVertical|-0.3555622721035508|-0.3233034830287977|0.7919903247314313|0.3765660079452449|0.3197135627269745|0.7798917889595032|-0.5381006598472595|0|0|0|-1|-1|3
2021-04-22 20:33:07.856 +0100|137025.475203375|0.41925048828125|1.425384521484375|-0.5093536376953125|137025.455241375|2.539703697844577|0.5191531389825116|-0.9358101671878504|-1.181955814361572|-1.730520486831665|-0.09566888213157654|0.225785106420517|0.2024272084236145|0.2009392380714417|XArbitraryZVertical|-0.3480001873431117|-0.3484114958238017|0.7895313886673894|0.3662588286253016|0.2942965626716614|0.8050798773765564|-0.5150105953216553|0|0|0|-1|-1|3
2021-04-22 20:33:07.876 +0100|137025.495165375|0.5361785888671875|0.4752349853515625|-0.6319580078125|137025.475203375|2.532130197575712|0.4810164461653913|-0.9185100479500294|2.885984659194946|-1.488171696662903|0.4208836853504181|0.1278126239776611|0.7703651785850525|0.08849459886550903|XArbitraryZVertical|-0.33285021067933|-0.3466239525229292|0.7987925001009731|0.3619298700943834|0.2808493673801422|0.7946981191635132|-0.5381251573562622|0|0|0|-1|-1|3
2021-04-22 20:33:07.896 +0100|137025.515127375|0.5294342041015625|0.246124267578125|-0.7522735595703125|137025.495165375|2.495901728100838|0.4241499542519631|-0.8476762690238606|3.971940755844116|-1.475327491760254|0.5593565106391907|0.24591925740242|-0.04443788528442383|-0.008267581462860107|XArbitraryZVertical|-0.3095081418361793|-0.3204048394454653|0.8175942997098883|0.3648085198787982|0.2723313570022583|0.7497447729110718|-0.6030908823013306|0|0|0|-1|-1|3
2021-04-22 20:33:07.916 +0100|137025.535089375|0.567779541015625|0.2631683349609375|-0.591339111328125|137025.515127375|2.468647726787689|0.3752722117432609|-0.7754921000129766|3.36461067199707|-1.435539722442627|0.5507420897483826|0.2619094252586365|-0.5993444919586182|-0.07725536823272705|XArbitraryZVertical|-0.2856487446059431|-0.2936213202946612|0.8352276533041813|0.3668601184990898|0.2617275416851044|0.7000675797462463|-0.6643826365470886|0|0|0|-1|-1|3
2021-04-22 20:33:07.936 +0100|137025.555051375|0.5308380126953125|-0.6920166015625|-0.6201019287109375|137025.535089375|2.448424390159563|0.3340584880870078|-0.7123898857979845|2.739127159118652|-1.305631518363953|0.1504849642515182|0.2893060743808746|-0.1670417189598083|0.1040342450141907|XArbitraryZVertical|-0.2633567887960584|-0.2704818822728258|0.8495404245237097|0.3684615854892903|0.2481401115655899|0.653644323348999|-0.7149655222892761|0|0|0|-1|-1|3
2021-04-22 20:33:07.956 +0100|137025.575013375|0.4789276123046875|0.6602783203125|-1.448776245117188|137025.555051375|2.434897667285209|0.296365201761069|-0.7010655057352939|-1.397557735443115|-1.58838939666748|-0.7222980856895447|0.3805314898490906|-1.440076351165771|0.1474218368530273|XArbitraryZVertical|-0.2476236031282419|-0.2706691824365176|0.8539656078277|0.3690034330770282|0.2231683731079102|0.6450322866439819|-0.7308415174484253|0|0|0|-1|-1|3
2021-04-22 20:33:07.976 +0100|137025.594975375|0.39239501953125|1.222976684570312|-0.7389984130859375|137025.575013375|2.422863483864342|0.2596572875011053|-0.7388404678565804|-0.2563945353031158|-1.373690962791443|-0.8941594958305359|0.2152284532785416|-0.3837738037109375|-0.4203577041625977|XArbitraryZVertical|-0.2389319098525694|-0.2927064949225421|0.8491804394366113|0.3689543197359652|0.189801961183548|0.6734311580657959|-0.7144688963890076|0|0|0|-1|-1|3
2021-04-22 20:33:07.995 +0100|137025.614937375|0.362823486328125|0.2113800048828125|-0.9000244140625|137025.594975375|2.405163367749321|0.219893882633825|-0.7204450649739969|1.935814380645752|-1.477824687957764|-0.2484581619501114|0.3929767310619354|0.9511662721633911|-0.06765484809875488|XArbitraryZVertical|-0.2219105919300825|-0.2899095445268641|0.853898605569014|0.3708982432842082|0.1639244109392166|0.6597192287445068|-0.7334163188934326|0|0|0|-1|-1|3
2021-04-22 20:33:08.015 +0100|137025.634899375|0.616851806640625|-0.097991943359375|-1.2664794921875|137025.614937375|2.397706050900337|0.1859657699241669|-0.7152758345031718|-2.063428401947021|-1.320565819740295|-0.3166319727897644|0.1590507626533508|-0.3693268299102783|0.03475832939147949|XArbitraryZVertical|-0.2076994855853329|-0.2931088161503532|0.857093447909075|0.3692411187161928|0.1395800858736038|0.655825674533844|-0.7418962717056274|0|0|0|-1|-1|3
2021-04-22 20:33:08.035 +0100|137025.654861375|0.5589752197265625|-0.0479278564453125|-1.182144165039062|137025.634899375|2.402123734195676|0.1647380225314135|-0.7989545956714877|-5.858306407928467|-1.114879488945007|-0.8614665269851685|0.4607720375061035|-0.8555587530136108|-0.6045888066291809|XArbitraryZVertical|-0.210748450238461|-0.3340332520605889|0.8445323551977058|0.3616244401972903|0.1143785938620567|0.7166273593902588|-0.6880137324333191|0|0|0|-1|-1|3
2021-04-22 20:33:08.055 +0100|137025.674823375|0.529998779296875|-0.0423736572265625|-0.8084259033203125|137025.654861375|2.394516345466456|0.1428966864561787|-0.9355330618474235|-7.722880840301514|-0.4259177148342133|-1.674629211425781|0.5234977006912231|-0.9010459780693054|-0.6422269940376282|XArbitraryZVertical|-0.2234417627628046|-0.3954782122857565|0.8171612591070535|0.3548498632631311|0.08450512588024139|0.8049154877662659|-0.5873415470123291|0|0|0|-1|-1|3
2021-04-22 20:33:08.075 +0100|137025.694785375|0.2902069091796875|0.940093994140625|-0.2880859375|137025.674823375|2.359474352539979|0.1074052125110334|-1.114005770108558|-9.696386337280273|-0.1594660431146622|-2.247511148452759|0.4866544306278229|-0.979290246963501|-0.5849394202232361|XArbitraryZVertical|-0.2433352413972202|-0.4706629365456552|0.7728134762301835|0.3493192873244916|0.04728222265839577|0.8974726796150208|-0.4385287165641785|0|0|0|-1|-1|3
2021-04-22 20:33:08.095 +0100|137025.714746375|0.25042724609375|1.446685791015625|-0.1912689208984375|137025.694785375|2.262045971440616|0.0127506665702024|-1.313201185908579|-9.334613800048828|-0.1982140243053436|-2.25207257270813|0.2997314035892487|-0.3671519160270691|-0.1911113560199738|XArbitraryZVertical|-0.2644440444632338|-0.5501833617981988|0.7150334899460449|0.340726839463905|0.003248220076784492|0.9670054316520691|-0.2547352313995361|0|0|0|-1|-1|3
2021-04-22 20:33:08.115 +0100|137025.734708375|0.1331787109375|1.2542724609375|-0.2598724365234375|137025.714746375|1.868814263536207|-0.3801032275506532|-1.464167324419223|-6.682938575744629|-0.283550888299942|-2.003995656967163|0.3146193027496338|0.4382511973381042|-0.07775701582431793|XArbitraryZVertical|-0.2770843651439489|-0.6113981991208901|0.6624571693137461|0.3325165450210384|-0.03948698565363884|0.9943205118179321|-0.09883299469947815|0|0|0|-1|-1|3
2021-04-22 20:33:08.135 +0100|137025.754670375|0.115570068359375|1.43658447265625|-0.0763092041015625|137025.734708375|0.3754767121649147|-1.877704667609343|-1.489125235312203|-5.769667625427246|-0.6452823281288147|-1.837622284889221|0.2201191335916519|0.2990334033966064|-0.2703436613082886|XArbitraryZVertical|-0.282519579570899|-0.6576518882343908|0.6182507747408085|0.3247194251993514|-0.07776878774166107|0.9966667890548706|0.02464663796126842|0|0|0|-1|-1|3
2021-04-22 20:33:08.155 +0100|137025.774632375|0.0645599365234375|1.350936889648438|-0.0682220458984375|137025.754670375|-0.1747587239021793|-2.439723198881278|-1.39969446084079|-4.684109210968018|-0.8382682204246521|-1.550350546836853|0.2406259924173355|0.4055478572845459|-0.2164644151926041|XArbitraryZVertical|-0.2832678709124288|-0.6962549885487085|0.5795875682432774|0.3147485106917419|-0.1099333688616753|0.9853977560997009|0.1300233900547028|0|0|0|-1|-1|3
2021-04-22 20:33:08.175 +0100|137025.7945945417|-0.0005950927734375|1.309219360351562|0.0186614990234375|137025.774632375|-0.3014535560088295|-2.580890372298452|-1.313539019639925|-3.968748807907104|-0.8758676052093506|-1.363526821136475|0.2017694115638733|0.4263873100280762|-0.2765226364135742|XArbitraryZVertical|-0.2812994154325573|-0.7270534603174639|0.5471676471714196|0.304748541178664|-0.1353010833263397|0.96709144115448|0.2154721915721893|0|0|0|-1|-1|3
2021-04-22 20:33:08.195 +0100|137025.8145565417|-0.1248931884765625|1.551773071289062|0.205322265625|137025.8145565417|-0.3769063564679749|-2.680981216555913|-1.160913270383244|-2.847135066986084|-0.4924346208572388|-1.244840621948242|0.07254993915557861|0.5676045417785645|-0.2157658934593201|XArbitraryZVertical|-0.2754905346508833|-0.7762669035827269|0.4887123755022631|0.2875324675017307|-0.1771326065063477|0.9171674251556396|0.3569706678390503|0|0|0|-1|-1|3
2021-04-22 20:33:08.215 +0100|137025.8345185417|-0.1804962158203125|1.396804809570312|0.44390869140625||||||||||||||||||||||||3
2021-04-22 20:33:08.235 +0100|137025.8544805417|-0.2225341796875|1.108154296875|0.6263885498046875|137025.8345185417|-0.3735600251834403|-2.686738333678493|-1.109583581447864|-1.809529781341553|-0.4011858403682709|-1.175017952919006|0.02567322552204132|0.5606637001037598|-0.006917864084243774|XArbitraryZVertical|-0.2704840058797155|-0.7916636500185434|0.468686696439108|0.2836193596477419|-0.1955177634954453|0.8955134153366089|0.3997858762741089|0|0|0|-1|-1|3
2021-04-22 20:33:08.255 +0100|137025.8744425417|-0.3150177001953125|0.9926300048828125|0.7505035400390625|137025.8544805417|-0.3567890906227267|-2.679455083636133|-1.070704098995114|-1.450423955917358|-0.3634488880634308|-1.267922639846802|0.01634639501571655|0.2739513516426086|0.1514812409877777|XArbitraryZVertical|-0.263544277082206|-0.8032110891234613|0.4537510583304538|0.2819688970974943|-0.2137940973043442|0.8775383234024048|0.4292072653770447|0|0|0|-1|-1|3
2021-04-22 20:33:08.275 +0100|137025.8944045417|-0.384368896484375|1.022872924804688|0.8586883544921875|137025.8744425417|-0.3339978310072676|-2.666922556652378|-1.032766977132493|-1.428606033325195|-0.3385186195373535|-1.462662577629089|-0.06426569819450378|0.1617422103881836|0.2700696587562561|XArbitraryZVertical|-0.2549673693987025|-0.8141787819266824|0.4392359815400636|0.2813829962150073|-0.2342104464769363|0.8587201833724976|0.4557909071445465|0|0|0|-1|-1|3
2021-04-22 20:33:08.295 +0100|137025.9143665417|-0.4272613525390625|1.001876831054688|0.8661346435546875|137025.8944045417|-0.3078957477040676|-2.650849904008926|-0.9934231641983994|-1.332951664924622|-0.2741006016731262|-1.611823558807373|-0.1000768840312958|0.1914134621620178|0.3665069937705994|XArbitraryZVertical|-0.2451617600444321|-0.8249849230650574|0.4240487650370707|0.2819192856595443|-0.2572372257709503|0.8378993272781372|0.4814088344573975|0|0|0|-1|-1|3
2021-04-22 20:33:08.315 +0100|137025.9343285417|-0.406890869140625|0.96112060546875|0.77813720703125|137025.9143665417|-0.2762713756703556|-2.629951874442906|-0.9560822712037981|-1.100227832794189|-0.2416681349277496|-1.722185730934143|-0.1486443877220154|0.1930109262466431|0.3697179555892944|XArbitraryZVertical|-0.233581323296143|-0.8347906254243271|0.4098928842636419|0.2838174629651782|-0.2823696732521057|0.8169384002685547|0.5028712749481201|0|0|0|-1|-1|3
2021-04-22 20:33:08.335 +0100|137025.9542905417|-0.3563079833984375|0.867919921875|0.71295166015625|137025.9343285417|-0.2408010402904718|-2.606007844854993|-0.9225135626160286|-0.7336903214454651|-0.182735413312912|-1.752693295478821|-0.1001841723918915|0.1679512858390808|0.2788600325584412|XArbitraryZVertical|-0.2206393808334141|-0.843179319585463|0.3976429421284848|0.2867875643638909|-0.3081552982330322|0.7971218824386597|0.5192661881446838|0|0|0|-1|-1|3
2021-04-22 20:33:08.355 +0100|137025.9742525417|-0.3783416748046875|0.835968017578125|0.7087554931640625|137025.9542905417|-0.2026791243863693|-2.578567734596342|-0.8932831586472186|-0.5262953042984009|-0.07184149324893951|-1.733450055122375|-0.03237441182136536|0.1124683022499084|0.1774359345436096|XArbitraryZVertical|-0.2070313169993101|-0.8498161600850612|0.3874595510897247|0.2912487860147993|-0.3345833420753479|0.7791340351104736|0.5300989151000977|0|0|0|-1|-1|3
2021-04-22 20:33:08.375 +0100|137025.9942145417|-0.3604583740234375|0.83685302734375|0.61358642578125|137025.9742525417|-0.1667599909976704|-2.551619122881451|-0.8668273421761484|-0.3809368908405304|-0.005438609514385462|-1.645985841751099|0.004713386297225952|0.06441205739974976|0.143195629119873|XArbitraryZVertical|-0.1939909834027733|-0.8551519608818722|0.378460993698242|0.2963951105405681|-0.3600896894931793|0.7622792720794678|0.5378347635269165|0|0|0|-1|-1|3
2021-04-22 20:33:08.395 +0100|137026.0141755417|-0.3521728515625|0.8049163818359375|0.591217041015625|137025.9942145417|-0.1301964237704469|-2.5232183630315|-0.8453755489608028|-0.08758273720741272|0.07048247009515762|-1.532755613327026|0.01489013433456421|0.1130015254020691|0.09830677509307861|XArbitraryZVertical|-0.1810708466997392|-0.8587842025875164|0.3718813862635115|0.3023363658297299|-0.3846096396446228|0.7482203245162964|0.5405939221382141|0|0|0|-1|-1|3
2021-04-22 20:33:08.415 +0100|137026.0341375417|-0.3684234619140625|0.8387603759765625|0.6725921630859375|137026.0141755417|-0.09445737710482661|-2.495015478309971|-0.8275845529216566|0.1302735656499863|0.05822489410638809|-1.470877766609192|0.05228078365325928|0.07043367624282837|0.08733725547790527|XArbitraryZVertical|-0.1685816762503656|-0.8611719067513003|0.3670971051925065|0.3085497414558689|-0.4076570570468903|0.7362990975379944|0.5400736927986145|0|0|0|-1|-1|3
2021-04-22 20:33:08.435 +0100|137026.0540995417|-0.421966552734375|0.8238983154296875|0.6328582763671875|137026.0341375417|-0.05931918403825025|-2.468188245796429|-0.8138527494255852|0.3214406073093414|0.05563762784004211|-1.268511414527893|0.06363984942436218|0.07231783866882324|0.08109152317047119|XArbitraryZVertical|-0.1564061063506017|-0.8625173093481718|0.3644030610667367|0.3143431025449797|-0.4282630085945129|0.7269382476806641|0.5367979407310486|0|0|0|-1|-1|3
2021-04-22 20:33:08.455 +0100|137026.0740615417|-0.4674224853515625|0.8964996337890625|0.611175537109375|137026.0540995417|-0.02118702154141105|-2.440000241452707|-0.8073192249998028|0.7560251355171204|0.06078105419874191|-1.153336048126221|0.04707849025726318|0.1176524758338928|0.1092745065689087|XArbitraryZVertical|-0.1441204211425919|-0.8621454384017239|0.3654970065633747|0.3199165989523424|-0.4462780952453613|0.7224361896514893|0.5281308889389038|0|0|0|-1|-1|3
2021-04-22 20:33:08.475 +0100|137026.0940235417|-0.491546630859375|0.7743377685546875|0.611572265625|137026.0740615417|0.01633375656206532|-2.411699579819804|-0.8055608388271398|0.9455854892730713|0.09749256074428558|-0.923822283744812|0.02310925722122192|0.09616434574127197|0.05172562599182129|XArbitraryZVertical|-0.1328735210457163|-0.8605016827718691|0.3688324406406644|0.3253371362519465|-0.4618901908397675|0.7212192416191101|0.5162370204925537|0|0|0|-1|-1|3
2021-04-22 20:33:08.495 +0100|137026.1139855417|-0.50030517578125|0.792083740234375|0.546844482421875|137026.0940235417|0.05475517148558106|-2.381373588066093|-0.8103119725397684|1.075217366218567|0.1621084213256836|-0.7129731774330139|0.008320808410644531|0.09318655729293823|0.08399039506912231|XArbitraryZVertical|-0.1228258113651137|-0.8571270298250591|0.3752253253624201|0.3308372462934356|-0.4749643802642822|0.7245022654533386|0.4995058476924896|0|0|0|-1|-1|3
2021-04-22 20:33:08.514 +0100|137026.1339475417|-0.5164947509765625|0.6822662353515625|0.4765472412109375|137026.1139855417|0.09212833743940625|-2.350865760914422|-0.8178417981907738|1.272669553756714|0.1980708390474319|-0.6113322377204895|-0.01307201385498047|0.08319532871246338|0.09160548448562622|XArbitraryZVertical|-0.1139863265395041|-0.852921212713041|0.3828291927506778|0.3361169742411562|-0.4860880076885223|0.7296717762947083|0.4809349477291107|0|0|0|-1|-1|3
2021-04-22 20:33:08.534 +0100|137026.1539095417|-0.53009033203125|0.7751922607421875|0.4182586669921875|137026.1339475417|0.1290402076644918|-2.319926150900469|-0.8266008854758036|1.157165288925171|0.2081941515207291|-0.5040960907936096|-0.008635014295578003|-0.07150876522064209|0.02765530347824097|XArbitraryZVertical|-0.1059350489186199|-0.8481901147060986|0.3910288350036869|0.3412446986106966|-0.4960334300994873|0.7356331348419189|0.4612974226474762|0|0|0|-1|-1|3
2021-04-22 20:33:08.554 +0100|137026.1738715417|-0.5184326171875|0.7786102294921875|0.4200592041015625|137026.1539095417|0.1644364369185325|-2.289012248757861|-0.8367798749617902|1.321642160415649|0.2873374819755554|-0.3393341898918152|-0.01135635375976562|0.02589768171310425|-0.01240420341491699|XArbitraryZVertical|-0.09910564653656474|-0.8429563343736632|0.3997090949067257|0.3461726184809406|-0.5043899416923523|0.7424899339675903|0.4407946169376373|0|0|0|-1|-1|3
2021-04-22 20:33:08.574 +0100|137026.1938335417|-0.4533843994140625|0.671630859375|0.4362945556640625|137026.1738715417|0.2022638708987509|-2.253751306211449|-0.8516220378485344|1.601080417633057|0.4126511812210083|-0.1632177531719208|-0.007451653480529785|0.01608359813690186|0.004519402980804443|XArbitraryZVertical|-0.09346320516894784|-0.836142158712054|0.410606147222882|0.3514736801699905|-0.5110107660293579|0.7523499131202698|0.4157381653785706|0|0|0|-1|-1|3
2021-04-22 20:33:08.594 +0100|137026.2137955417|-0.4131317138671875|0.7513885498046875|0.40057373046875|137026.1938335417|0.2468641991406177|-2.210607676540512|-0.8680704329475725|1.574385166168213|0.4714908003807068|-0.3524214923381805|0.04665142297744751|-0.06741905212402344|0.03237339854240417|XArbitraryZVertical|-0.08750886048111542|-0.8278146741575708|0.4230707628396821|0.3578775174097133|-0.5184676647186279|0.763083279132843|0.3858698606491089|0|0|0|-1|-1|3
2021-04-22 20:33:08.614 +0100|137026.2337575417|-0.4250946044921875|0.816864013671875|0.2604827880859375|137026.2137955417|0.2904478341426932|-2.169508571044085|-0.8770901553397136|1.225223183631897|0.2766792476177216|-0.5062890648841858|0.09719330072402954|-0.03984642028808594|0.05553054809570312|XArbitraryZVertical|-0.08041984812885256|-0.8207962659414044|0.4326976291657104|0.3641415174565089|-0.52817702293396|0.768881618976593|0.360347718000412|0|0|0|-1|-1|3
2021-04-22 20:33:08.634 +0100|137026.2537195417|-0.4553985595703125|0.8423004150390625|0.0991363525390625|137026.2337575417|0.3302828891625826|-2.13515454407076|-0.8805684275348824|1.128224611282349|0.1097947731614113|-0.6000556945800781|0.1102457642555237|0.04271203279495239|-0.03434780240058899|XArbitraryZVertical|-0.07245771242119277|-0.8154939786406251|0.4400003936799496|0.3689433708260569|-0.5379793643951416|0.7711009383201599|0.3405610918998718|0|0|0|-1|-1|3
2021-04-22 20:33:08.654 +0100|137026.2736805417|-0.4701385498046875|0.8701171875|0.02642822265625|137026.2537195417|0.3709688098246556|-2.102034073487289|-0.8815534317691042|1.159415602684021|0.08818721771240234|-0.6602060198783875|0.1062145233154297|0.06091457605361938|-0.1845250427722931|XArbitraryZVertical|-0.06350666792576351|-0.8105887585341328|0.4467887603946037|0.3732192830579265|-0.5483065843582153|0.7717277407646179|0.322174459695816|0|0|0|-1|-1|3
2021-04-22 20:33:08.674 +0100|137026.2936425417|-0.470428466796875|0.8456878662109375|0.0834197998046875|137026.2736805417|0.4136764911395616|-2.066995092360922|-0.882159158667187|1.246949553489685|0.1228664666414261|-0.6114956736564636|0.1037986278533936|0.07810777425765991|-0.2693887948989868|XArbitraryZVertical|-0.05430222032869574|-0.8051858941674417|0.4539937365549604|0.3776464939155485|-0.5588455200195312|0.7721127867698669|0.3025461137294769|0|0|0|-1|-1|3
2021-04-22 20:33:08.694 +0100|137026.3136045417|-0.42694091796875|0.773956298828125|0.1080474853515625|137026.2936425417|0.4570858997855595|-2.031370204726609|-0.8831279457269918|1.237437725067139|0.06094478070735931|-0.5664903521537781|0.08977615833282471|0.0691763162612915|-0.2129946053028107|XArbitraryZVertical|-0.0453036587324023|-0.7993784967107039|0.4616917273211195|0.3818146534726958|-0.5685961842536926|0.7727280855178833|0.2821168005466461|0|0|0|-1|-1|3
2021-04-22 20:33:08.714 +0100|137026.3335665417|-0.37939453125|0.658843994140625|0.0688934326171875|137026.3136045417|0.4986555528710881|-1.999703299530889|-0.8828337801445555|1.130426526069641|-0.1290808171033859|-0.6160974502563477|0.1279727816581726|0.02404457330703735|-0.1535937786102295|XArbitraryZVertical|-0.03602778507882842|-0.7941886575747285|0.4689143787401414|0.3848191903984312|-0.577450156211853|0.772541344165802|0.2640672624111176|0|0|0|-1|-1|3
2021-04-22 20:33:08.734 +0100|137026.3535285417|-0.3701629638671875|0.692535400390625|0.0032806396484375|137026.3335665417|0.5381453817714087|-1.973844442362786|-0.8790888840043443|0.9924596548080444|-0.3373986482620239|-0.7549312114715576|0.2045101523399353|-0.0827333927154541|-0.170652836561203|XArbitraryZVertical|-0.02542144783625466|-0.7902180061125128|0.4748725829387068|0.3865300927090345|-0.5867421627044678|0.770158052444458|0.2501814961433411|0|0|0|-1|-1|3
2021-04-22 20:33:08.754 +0100|137026.3734905417|-0.4090118408203125|0.7259979248046875|-0.0443878173828125|137026.3535285417|0.5740548204998528|-1.955121775953912|-0.8711658103600738|0.8757615089416504|-0.5315659642219543|-0.8556052446365356|0.2332531809806824|-0.0943489670753479|-0.218300998210907|XArbitraryZVertical|-0.01342101644037996|-0.7877413188232336|0.4790217645160407|0.3870679212658109|-0.5969608426094055|0.7650801539421082|0.2414330244064331|0|0|0|-1|-1|3
2021-04-22 20:33:08.774 +0100|137026.3934525417|-0.4260101318359375|0.7689208984375|-0.0701904296875|137026.3734905417|0.6092122843061023|-1.940234473754455|-0.8609698449292321|0.8549657464027405|-0.6641373634338379|-0.9226178526878357|0.1996978521347046|-0.04562920331954956|-0.2718693912029266|XArbitraryZVertical|-0.0001636945918462427|-0.7859148345012468|0.4824621711872973|0.3867406620389724|-0.6077324748039246|0.7584749460220337|0.2353243082761765|0|0|0|-1|-1|3
2021-04-22 20:33:08.794 +0100|137026.4134145417|-0.4109649658203125|0.792236328125|-0.0651397705078125|137026.3934525417|0.6449075419095696|-1.927652278535825|-0.8498004528358833|0.9639291763305664|-0.7752339839935303|-0.9488527178764343|0.1855925321578979|-0.001224219799041748|-0.2810806035995483|XArbitraryZVertical|0.01413596194257931|-0.7842846079851903|0.4858247781079694|0.385580370182281|-0.6185446977615356|0.7511487007141113|0.230604350566864|0|0|0|-1|-1|3
2021-04-22 20:33:08.814 +0100|137026.4333765417|-0.4331817626953125|0.6885223388671875|-0.069000244140625|137026.4134145417|0.6834700016972907|-1.91568214263073|-0.8391275251683408|1.067456483840942|-0.9184857606887817|-0.9561644196510315|0.2122820615768433|0.04347687959671021|-0.3079588413238525|XArbitraryZVertical|0.02954010713588552|-0.7823478723652176|0.4900049614497771|0.3833463748236205|-0.6287700533866882|0.7440605163574219|0.2258816212415695|0|0|0|-1|-1|3
2021-04-22 20:33:08.834 +0100|137026.4533385417|-0.4389495849609375|0.720733642578125|0.0169219970703125|137026.4333765417|0.7244263245557925|-1.904575290407047|-0.8281947872287979|1.161619663238525|-0.9973071813583374|-1.007341742515564|0.2055692672729492|-0.02206569910049438|-0.2990662157535553|XArbitraryZVertical|0.04613796486808062|-0.7801533827429158|0.4946438151687194|0.3802098376652506|-0.6388877034187317|0.736711859703064|0.2215360254049301|0|0|0|-1|-1|3
2021-04-22 20:33:08.854 +0100|137026.4733005417|-0.452392578125|0.68804931640625|0.0413818359375|137026.4533385417|0.7674797700064677|-1.893379756673683|-0.8164930730208131|1.198655605316162|-1.038134574890137|-1.050631523132324|0.2276467680931091|-0.02592813968658447|-0.2355208396911621|XArbitraryZVertical|0.06372163906662422|-0.7774853745543198|0.4995335382060173|0.3767260395870392|-0.6494601368904114|0.7287488579750061|0.217087909579277|0|0|0|-1|-1|3
2021-04-22 20:33:08.874 +0100|137026.4932625417|-0.5693359375|0.7975006103515625|0.1114349365234375|137026.4733005417|0.8158658020885806|-1.879876323557454|-0.8043241945620015|1.526388168334961|-1.149892807006836|-1.14602530002594|0.2052876353263855|0.06564944982528687|-0.2023901045322418|XArbitraryZVertical|0.08287176524776858|-0.7737069605337469|0.5054624606516932|0.3728506199793398|-0.6607313752174377|0.7203620672225952|0.2109803855419159|0|0|0|-1|-1|3
2021-04-22 20:33:08.894 +0100|137026.5132245417|-0.619415283203125|0.825469970703125|0.15972900390625|137026.4932625417|0.8684193439002375|-1.865992471050479|-0.7910925822588424|1.723698616027832|-1.198270082473755|-1.230841875076294|0.1061453223228455|0.02856403589248657|-0.09268033504486084|XArbitraryZVertical|0.1037547465828919|-0.7690942859245467|0.5119880710537856|0.3682354068234336|-0.6726579070091248|0.7111218571662903|0.2045421302318573|0|0|0|-1|-1|3
2021-04-22 20:33:08.914 +0100|137026.5331865417|-0.73223876953125|0.886138916015625|0.217254638671875|137026.5132245417|0.9275687010397168|-1.848091990121993|-0.7773520769722534|1.918962359428406|-1.18461275100708|-1.275513887405396|0.09149032831192017|0.093131422996521|-0.04417099058628082|XArbitraryZVertical|0.1261278161893097|-0.7626628651853099|0.5199401362751902|0.3634549432865977|-0.685545027256012|0.7013944983482361|0.1951257437467575|0|0|0|-1|-1|3
2021-04-22 20:33:08.934 +0100|137026.5531485417|-0.80010986328125|1.05560302734375|0.2502288818359375|137026.5331865417|0.9895278252105608|-1.828182992608916|-0.7627945577343636|1.991644740104675|-1.136496424674988|-1.299219250679016|-0.008653402328491211|0.1708118319511414|0.02337765693664551|XArbitraryZVertical|0.1490504212092961|-0.7548467579620814|0.5285027321603299|0.3587135096685871|-0.6990945935249329|0.6909443736076355|0.1840193122625351|0|0|0|-1|-1|3
