loggingTime(txt)|accelerometerTimestamp_sinceReboot(s)|accelerometerAccelerationX(G)|accelerometerAccelerationY(G)|accelerometerAccelerationZ(G)|motionTimestamp_sinceReboot(s)|motionYaw(rad)|motionRoll(rad)|motionPitch(rad)|motionRotationRateX(rad/s)|motionRotationRateY(rad/s)|motionRotationRateZ(rad/s)|motionUserAccelerationX(G)|motionUserAccelerationY(G)|motionUserAccelerationZ(G)|motionAttitudeReferenceFrame(txt)|motionQuaternionX(R)|motionQuaternionY(R)|motionQuaternionZ(R)|motionQuaternionW(R)|motionGravityX(G)|motionGravityY(G)|motionGravityZ(G)|motionMagneticFieldX(µT)|motionMagneticFieldY(µT)|motionMagneticFieldZ(µT)|motionHeading(°)|motionMagneticFieldCalibrationAccuracy(Z)|label
2021-04-22 22:29:21.082 +0100|142131.6347927917|-0.046875|0.12176513671875|-1.028900146484375|142131.6098327917|1.035186032129389|-0.05474854195998855|0.03695049435471348|-0.2861835062503815|-0.1438737362623215|0.05454140156507492|0.09156486392021179|-0.08904877305030823|-0.08149516582489014|XArbitraryZVertical|0.02958880380043639|-0.01464413715084423|0.4940806642162291|0.868789035386764|-0.05468384176492691|-0.03694208711385727|-0.9978200793266296|0|0|0|-1|-1|3
2021-04-22 22:29:21.094 +0100|142131.6547527917|-0.0803985595703125|-0.1162872314453125|-0.9830474853515625|142131.6297927917|1.033725538040055|-0.05598417757244906|0.02804288945927597|-0.2958028614521027|-0.04294515401124954|-0.05273072421550751|-0.06303931772708893|-0.06078123301267624|-0.01148080825805664|XArbitraryZVertical|0.02601396760836975|-0.01740418948278666|0.493571826451266|0.8691417234253555|-0.05593293905258179|-0.02803921326994896|-0.9980407357215881|0|0|0|-1|-1|3
2021-04-22 22:29:21.095 +0100|142131.6747137917|-0.060028076171875|-0.0107574462890625|-0.98468017578125|142131.6497527917|1.032649512456548|-0.05767024800049154|0.0253115710925178|-0.08056094497442245|-0.1089273691177368|-0.02984325215220451|0.0626099705696106|0.07203225046396255|-0.02155929803848267|XArbitraryZVertical|0.02523352244432931|-0.01882544228695444|0.4931252736442391|0.8693885541192332|-0.05761982500553131|-0.02530886791646481|-0.9980177283287048|0|0|0|-1|-1|3
2021-04-22 22:29:21.100 +0100|142131.6946737917|-0.0648193359375|-0.003387451171875|-0.9800262451171875|142131.6697137917|1.031352588639777|-0.05847596839769655|0.02082583375864806|-0.2283372581005096|-0.03881517797708511|-0.06601297855377197|-0.048884566873312|-0.07187184691429138|0.0247771143913269|XArbitraryZVertical|0.02346987350251006|-0.02029829261128785|0.4926209945497362|0.8696906389509765|-0.05842997506260872|-0.02082432806491852|-0.9980742931365967|0|0|0|-1|-1|3
2021-04-22 22:29:21.120 +0100|142131.7146347917|-0.0502166748046875|-0.0245819091796875|-0.992462158203125|142131.6896737917|1.029878640888624|-0.05816720147098106|0.01914743851491777|-0.08101367950439453|-0.06726508587598801|-0.0618911124765873|0.003009527921676636|0.0251439418643713|0.01396435499191284|XArbitraryZVertical|0.02264904496800977|-0.02059456815997961|0.4920088914875952|0.8700519140604138|-0.05812374874949455|-0.0191462691873312|-0.9981257915496826|0|0|0|-1|-1|3
2021-04-22 22:29:21.140 +0100|142131.7345947917|-0.0445709228515625|-0.0258026123046875|-1.016311645507812|142131.7096347917|1.028616155199089|-0.05911185603402035|0.02177370919124905|-0.04142734035849571|-0.06587018072605133|-0.05671437084674835|-0.001101452857255936|0.009398084133863449|0.02105748653411865|XArbitraryZVertical|0.02401067168716953|-0.02037395104921842|0.4914084404703665|0.8703599035789478|-0.05906343460083008|-0.0217719879001379|-0.9980167746543884|0|0|0|-1|-1|3
2021-04-22 22:29:21.162 +0100|142131.7545547917|-0.041748046875|-0.024932861328125|-1.022018432617188|142131.7295947917|1.027412390509604|-0.06029320227922821|0.01883214610379243|-0.03142306208610535|-0.06025011092424393|-0.04795807600021362|0.01038078963756561|-0.008862696588039398|0.001469612121582031|XArbitraryZVertical|0.02300827416138974|-0.0216254485362788|0.4909161712910142|0.8706345704670772|-0.06024599447846413|-0.0188310332596302|-0.9980059266090393|0|0|0|-1|-1|3
2021-04-22 22:29:21.180 +0100|142131.7745157917|-0.0420074462890625|-0.0386962890625|-1.021560668945312|142131.7495547917|1.026542776810998|-0.06167272022371942|0.02027207421388309|0.004926941357553005|-0.05940279737114906|-0.04284338653087616|0.02268106117844582|-0.003425240516662598|-0.01696830987930298|XArbitraryZVertical|0.02396397263355975|-0.02188259275273925|0.4904987940434943|0.8708375923387925|-0.06162096932530403|-0.020270686596632|-0.997893750667572|0|0|0|-1|-1|3
2021-04-22 22:29:21.199 +0100|142131.7944757917|-0.046966552734375|-0.016998291015625|-1.00994873046875|142131.7695157917|1.025727262336612|-0.0630453617760222|0.02026204376774388|-0.003372866660356522|-0.06194345280528069|-0.03949863091111183|0.0200682133436203|-0.01555074565112591|-0.02861982583999634|XArbitraryZVertical|0.02428707327989381|-0.0224926291565942|0.4901272822098608|0.871022195087332|-0.06299067288637161|-0.02026065811514854|-0.9978084564208984|0|0|0|-1|-1|3
2021-04-22 22:29:21.219 +0100|142131.8144367917|-0.0619964599609375|-0.0166473388671875|-1.000778198242188|142131.7894757917|1.024844296350128|-0.06420468333984629|0.0197119222804525|-0.01409924775362015|-0.04275750741362572|-0.04865236207842827|0.01815865188837051|-0.01605498045682907|-0.02463895082473755|XArbitraryZVertical|0.0243214702750745|-0.0231432283814057|0.4897375912153084|0.8712233085247003|-0.06414811313152313|-0.01971064507961273|-0.99774569272995|0|0|0|-1|-1|3
2021-04-22 22:29:21.239 +0100|142131.8343967917|-0.061279296875|-0.017822265625|-0.995391845703125|142131.8094367917|1.023777814187007|-0.06455203711699033|0.01974237807091129|-0.005232851952314377|-0.01806137710809708|-0.06123349070549011|0.01626212894916534|0.006711062043905258|-0.01160037517547607|XArbitraryZVertical|0.0244073654713076|-0.02330009155639125|0.4892682096638048|0.8714804520324368|-0.06449464708566666|-0.01974109560251236|-0.9977227449417114|0|0|0|-1|-1|3
2021-04-22 22:29:21.259 +0100|142131.8543567917|-0.0676116943359375|-0.0139007568359375|-0.99786376953125|142131.8293967917|1.022442781038864|-0.06435409700392954|0.01964594211179122|-0.01775550097227097|-0.005157774779945612|-0.07039263099431992|0.003018490970134735|-0.001396216452121735|-0.0004773736000061035|XArbitraryZVertical|0.02430142104241396|-0.02325368616164727|0.4886903786751872|0.8718087655482386|-0.06429727375507355|-0.01964467763900757|-0.9977374076843262|0|0|0|-1|-1|3
2021-04-22 22:29:21.279 +0100|142131.8743177917|-0.0781707763671875|-0.0164642333984375|-1.003829956054688|142131.8493567917|1.021017381649873|-0.06387808777529079|0.01972036292484571|0.003984198905527592|-0.006313906516879797|-0.07124395668506622|-0.001561149954795837|0.006322843953967094|0.001962542533874512|XArbitraryZVertical|0.02420111730154979|-0.02304523985766777|0.4880734474552073|0.8721627098654923|-0.06382223963737488|-0.0197190847247839|-0.9977664351463318|0|0|0|-1|-1|3
2021-04-22 22:29:21.299 +0100|142131.8942777917|-0.0826873779296875|-0.013214111328125|-1.0032958984375|142131.8693177917|1.019634849820966|-0.06356687662374977|0.02048272562502551|0.01723620481789112|-0.0123510267585516|-0.07146890461444855|-0.007411584258079529|0.007161349058151245|-0.005280792713165283|XArbitraryZVertical|0.02444179313374635|-0.0227401715597173|0.4874617612877904|0.8725059850397725|-0.06351075321435928|-0.0204812940210104|-0.9977709650993347|0|0|0|-1|-1|3
2021-04-22 22:29:21.319 +0100|142131.9142387917|-0.0784454345703125|-0.011077880859375|-1.014114379882812|142131.8892777917|1.018235763662242|-0.06344184068648649|0.0209706111604293|0.01497351657599211|-0.0005797478370368481|-0.06710540503263474|-0.01672278344631195|-0.001078898087143898|-0.007526040077209473|XArbitraryZVertical|0.02460829012446122|-0.02258379221766528|0.4868448299708876|0.8728497370752382|-0.06338535249233246|-0.02096907421946526|-0.9977688193321228|0|0|0|-1|-1|3
2021-04-22 22:29:21.339 +0100|142131.9341987917|-0.0662384033203125|-0.021881103515625|-1.016265869140625|142131.9092387917|1.01700099537365|-0.06317682875112518|0.02133373773299931|0.02136382274329662|0.02371525764465332|-0.05995596572756767|-0.01628578454256058|0.01301705650985241|-0.009515821933746338|XArbitraryZVertical|0.02468837464536582|-0.02239488153304213|0.4863031487281457|0.8731543273724032|-0.06312044709920883|-0.02133211866021156|-0.9977778792381287|0|0|0|-1|-1|3
2021-04-22 22:29:21.359 +0100|142131.9541587917|-0.0639495849609375|-0.007476806640625|-1.015625|142131.9291987917|1.015766346893678|-0.06255312683262074|0.02147572633697441|-0.009894332848489285|0.03448343276977539|-0.06678653508424759|-0.01350559294223785|0.004751419648528099|-0.02060335874557495|XArbitraryZVertical|0.02458504994990751|-0.02210320106732577|0.4857694246571765|0.8734615996662282|-0.06249792501330376|-0.0214740764349699|-0.9978140592575073|0|0|0|-1|-1|3
2021-04-22 22:29:21.379 +0100|142131.9741197917|-0.0550079345703125|-0.02392578125|-1.009597778320312|142131.9491587917|1.01441585660137|-0.061728796692523|0.02107271833748098|-0.02028582058846951|0.05339784175157547|-0.07107760012149811|-0.00859031081199646|0.005096185952425003|-0.01715618371963501|XArbitraryZVertical|0.02419413184529316|-0.02185753351487862|0.4851960639856767|0.873797363596268|-0.06167590618133545|-0.02107115834951401|-0.9978737831115723|0|0|0|-1|-1|3
2021-04-22 22:29:21.399 +0100|142131.9940797917|-0.0578460693359375|-0.0123748779296875|-0.995819091796875|142131.9691197917|1.012943038091424|-0.06113791306904399|0.02045748086706605|-0.04030608385801315|0.03985081985592842|-0.07189802825450897|0.002524323761463165|0.008143188431859016|-0.01721394062042236|XArbitraryZVertical|0.0237660588118467|-0.02176631353350065|0.4845693577170382|0.8741590565166326|-0.06108704954385757|-0.02045605331659317|-0.9979227781295776|0|0|0|-1|-1|3
2021-04-22 22:29:21.419 +0100|142132.0140407917|-0.0615234375|-0.00567626953125|-0.992889404296875|142131.9890797917|1.011594557178223|-0.06073562576312951|0.01959501946504339|-0.02998210676014423|0.04197932407259941|-0.05924374982714653|0.005694471299648285|-0.001569194719195366|-0.00908505916595459|XArbitraryZVertical|0.02327704459391633|-0.02181537609595842|0.4839981427851488|0.8744874889038863|-0.06068664044141769|-0.01959376595914364|-0.9979645609855652|0|0|0|-1|-1|3
2021-04-22 22:29:21.439 +0100|142132.0340007917|-0.0628509521484375|-0.00323486328125|-0.997955322265625|142132.0090407917|1.010588694724991|-0.0602557990286153|0.01927838983387653|0.007805452682077885|0.04039128124713898|-0.03954283893108368|0.002530436962842941|0.01041282340884209|0.002302646636962891|XArbitraryZVertical|0.0230116227493994|-0.02169385692490066|0.483568785336271|0.8747349159914815|-0.06020815297961235|-0.01927719637751579|-0.9979996681213379|0|0|0|-1|-1|3
2021-04-22 22:29:21.459 +0100|142132.0539607917|-0.067962646484375|0.0058441162109375|-0.9991455078125|142132.0290007917|1.009965181617553|-0.05980019144531069|0.0196569535428012|0.0283625740557909|0.0220983475446701|-0.02164817415177822|-0.0004881806671619415|0.01715422980487347|0.003512799739837646|XArbitraryZVertical|0.02306030868839178|-0.02141015106968393|0.483295441317659|0.8748916815941988|-0.05975301191210747|-0.01965568773448467|-0.9980196356773376|0|0|0|-1|-1|3
2021-04-22 22:29:21.479 +0100|142132.0739217917|-0.0562591552734375|-0.0043182373046875|-1.001373291015625|142132.0489607917|1.009722143103696|-0.05951098407435849|0.02017555529085298|0.0471293218433857|0.01979061216115952|-0.009679040871560574|-0.007125094532966614|0.02020568586885929|0.0006205439567565918|XArbitraryZVertical|0.0232146389458621|-0.0211610063184237|0.4831844586050618|0.8749549244114617|-0.05946375802159309|-0.02017418667674065|-0.9980266094207764|0|0|0|-1|-1|3
2021-04-22 22:29:21.499 +0100|142132.0938817917|-0.0566558837890625|-0.0112762451171875|-0.99664306640625|142132.0689217917|1.009743674254903|-0.05909944468091169|0.02132800317522655|0.06346800178289413|0.01468107011169195|0.004519869107753038|-0.003829348832368851|0.02564560621976852|-0.00265955924987793|XArbitraryZVertical|0.0236194387902404|-0.02070198310974458|0.4831808524587684|0.8749570705708816|-0.05905161425471306|-0.02132638543844223|-0.9980270862579346|0|0|0|-1|-1|3
2021-04-22 22:29:21.519 +0100|142132.1138427917|-0.0626220703125|-0.027069091796875|-0.98968505859375|142132.0888817917|1.010022007342904|-0.05884873056075846|0.02259981365006685|0.08557235449552536|0.008714684285223484|0.00824589841067791|0.003899130970239639|0.01666320487856865|-0.003511905670166016|XArbitraryZVertical|0.02411788386656392|-0.0202813322428192|0.4832858149938237|0.874895378090939|-0.05879975110292435|-0.02259789034724236|-0.998013973236084|0|0|0|-1|-1|3
2021-04-22 22:29:21.539 +0100|142132.1338027917|-0.0687103271484375|-0.0246734619140625|-0.98651123046875|142132.1088427917|1.010356822902826|-0.0587046625139956|0.02375885793549857|0.05610053241252899|0.00919000618159771|0.009837491437792778|0.0002289973199367523|0.01077237725257874|0.006632089614868164|XArbitraryZVertical|0.02459323913972264|-0.01993377759379374|0.4834158708180019|0.8748183070959437|-0.05865439027547836|-0.02375662326812744|-0.9979956150054932|0|0|0|-1|-1|3
2021-04-22 22:29:21.559 +0100|142132.1537627917|-0.0678863525390625|-0.028289794921875|-0.9840545654296875|142132.1288027917|1.010628743747112|-0.05859882282408405|0.02383996028467972|0.004376349505037069|0.01290298439562321|0.008609774522483349|-0.005385175347328186|-0.007991153746843338|0.007643401622772217|XArbitraryZVertical|0.02460581996996478|-0.01986450922327803|0.4835348404225377|0.8747537529914875|-0.05854865163564682|-0.02383770234882832|-0.997999906539917|0|0|0|-1|-1|3
2021-04-22 22:29:21.579 +0100|142132.1737237917|-0.0705718994140625|-0.017791748046875|-0.9877471923828125|142132.1487627917|1.010701673567946|-0.05851385974730955|0.02304792266955868|-0.02565615251660347|0.01405107323080301|0.006105248816311359|-0.009680308401584625|-0.005838023498654366|0.010093092918396|XArbitraryZVertical|0.02423972186312784|-0.02001819380766589|0.4835801693749966|0.8747353936667638|-0.05846494436264038|-0.02304588258266449|-0.9980233907699585|0|0|0|-1|-1|3
2021-04-22 22:29:21.599 +0100|142132.1936837917|-0.074859619140625|-0.0137176513671875|-0.9835968017578125|142132.1687237917|1.010650683155326|-0.05819050608177648|0.02199556479695964|-0.04045839980244637|0.01694651506841183|-0.005779994651675224|-0.009437069296836853|0.0003730691969394684|0.01247018575668335|XArbitraryZVertical|0.02370092037970119|-0.02013213104226412|0.483578023769937|0.8747488044642052|-0.05814360454678535|-0.02199379168450832|-0.9980659484863281|0|0|0|-1|-1|3
2021-04-22 22:29:21.619 +0100|142132.213643375|-0.0838775634765625|-0.0161590576171875|-0.9714508056640625|142132.1886837917|1.010360045163919|-0.05792504237582553|0.02072175858553373|-0.06414427608251572|0.00140547938644886|-0.01579330302774906|-0.01293531060218811|0.001846132799983025|0.01133781671524048|XArbitraryZVertical|0.02307684112145652|-0.02032772276803196|0.4834734784831055|0.8748187223805522|-0.0578802265226841|-0.02072027511894703|-0.9981085062026978|0|0|0|-1|-1|3
2021-04-22 22:29:21.639 +0100|142132.233603375|-0.10662841796875|-0.033050537109375|-0.9703826904296875|142132.208643375|1.009842385213604|-0.0580242974979161|0.01940251241053184|-0.08034611493349075|0.002184986602514982|-0.02623653411865234|-0.01922814175486565|0.00315166637301445|0.01830124855041504|XArbitraryZVertical|0.0225186134392178|-0.02069621892336727|0.4832658182343819|0.8749394254301115|-0.05798082798719406|-0.01940129511058331|-0.99812912940979|0|0|0|-1|-1|3
2021-04-22 22:29:21.667 +0100|142132.253563375|-0.1882781982421875|-0.1440887451171875|-0.961944580078125|142132.228603375|1.009123459351559|-0.05810812300985324|0.01768171101883772|-0.1137022525072098|0.01426753401756287|-0.03678487241268158|-0.03000687435269356|0.0007750336080789566|0.02943664789199829|XArbitraryZVertical|0.02177869580248105|-0.0211569382039774|0.4829760832821279|0.8751070388088649|-0.05806634947657585|-0.01768079027533531|-0.9981561303138733|0|0|0|-1|-1|3
2021-04-22 22:29:21.683 +0100|142132.273524375|-0.293121337890625|-0.348876953125|-0.8955230712890625|142132.248563375|1.007294389384677|-0.05742645939342867|0.01439161628699068|-0.304121345281601|0.082159124314785|-0.1570231318473816|-0.06431464105844498|-0.03309324756264687|0.02630907297134399|XArbitraryZVertical|0.02015503971450011|-0.02167234719049669|0.4822306757684782|0.8755443119714232|-0.05738895758986473|-0.01439111959189177|-0.9982481598854065|0|0|0|-1|-1|3
2021-04-22 22:29:21.699 +0100|142132.293484375|-0.4490509033203125|-0.22332763671875|-0.6546630859375|142132.268524375|0.999947302184401|-0.05508268420500196|0.00178313807487282|-1.114707827568054|0.1782902926206589|-0.5468236207962036|-0.1606582552194595|-0.1992198973894119|0.04714202880859375|XArbitraryZVertical|0.01398384988213433|-0.02373982562209566|0.4791988583156996|0.8772738554181861|-0.05505474656820297|-0.001783137093298137|-0.9984817504882812|0|0|0|-1|-1|3
2021-04-22 22:29:21.719 +0100|142132.313445375|-0.582977294921875|0.0410308837890625|-0.2688140869140625|142132.288484375|0.9816206472584056|-0.04999575352811365|-0.03133862521321064|-2.236985921859741|0.3825378715991974|-1.055405020713806|-0.2784487903118134|-0.3914704322814941|0.1501765847206116|XArbitraryZVertical|-0.002034843932877678|-0.02942487886378636|0.4714809980336119|0.8813829011205807|-0.04995039105415344|0.03133349493145943|-0.9982600808143616|0|0|0|-1|-1|3
2021-04-22 22:29:21.739 +0100|142132.333405375|-0.6417694091796875|0.1131439208984375|0.0182037353515625|142132.308445375|0.9541037120366065|-0.04217546954449459|-0.08212903955936918|-2.868756294250488|0.5261724591255188|-1.436386108398438|-0.4522719085216522|-0.2146803736686707|0.4345096349716187|XArbitraryZVertical|-0.0267875962074034|-0.03756194591055492|0.4594420969042224|0.8870087252072775|-0.04202084988355637|0.08203674107789993|-0.9957430362701416|0|0|0|-1|-1|3
2021-04-22 22:29:21.759 +0100|142132.353365375|-0.6928863525390625|0.136749267578125|0.3133697509765625|142132.328405375|0.9229993452761929|-0.03878404877573728|-0.1431648657016236|-3.463873386383057|0.0672074481844902|-1.482905149459839|-0.5638558268547058|-0.08315074443817139|0.7846032381057739|XArbitraryZVertical|-0.05541467560241161|-0.04915962277047739|0.4453092787133544|0.8923072977336938|-0.03837764263153076|0.1426763087511063|-0.9890251159667969|0|0|0|-1|-1|3
2021-04-22 22:29:21.778 +0100|142132.373326375|-0.60845947265625|0.2498931884765625|0.3400421142578125|142132.348365375|0.8864188387288774|-0.04807242322469516|-0.2204394216391623|-4.425687789916992|-0.2638923525810242|-1.799324870109558|-0.606032133102417|-0.08940018713474274|1.087040185928345|XArbitraryZVertical|-0.0890959175558466|-0.06873745105129866|0.4285038586402186|0.8965051981057169|-0.04689107462763786|0.2186584323644638|-0.9746741652488708|0|0|0|-1|-1|3
2021-04-22 22:29:21.799 +0100|142132.393286375|-0.1577301025390625|-0.2686004638671875|-0.1702880859375|142132.368326375|0.8423601875671713|-0.05766850655204064|-0.3008994240380443|-4.144326686859131|0.4313044548034668|-2.275294542312622|-0.668219268321991|-0.1487189829349518|1.369101762771606|XArbitraryZVertical|-0.1250734810875447|-0.08726573953462434|0.4079948622052168|0.9001564156703751|-0.05504695698618889|0.2963793277740479|-0.9534826278686523|0|0|0|-1|-1|3
2021-04-22 22:29:21.819 +0100|142132.413247375|-0.45831298828125|-0.2461700439453125|0.367523193359375|142132.388286375|0.7833962750856428|-0.07554371194660077|-0.4055444969340077|-6.516952514648438|-0.594860851764679|-2.484058141708374|-0.3329474925994873|-0.2454397678375244|0.9570541381835938|XArbitraryZVertical|-0.1718793250993355|-0.1110134908729897|0.3806992109234113|0.9017770271120708|-0.06935018301010132|0.3945191502571106|-0.9162669777870178|0|0|0|-1|-1|3
2021-04-22 22:29:21.839 +0100|142132.433207375|-0.770599365234375|0.3427886962890625|0.63763427734375|142132.408247375|0.7014920510919492|-0.132689140469774|-0.5463062499632715|-8.548677444458008|-1.140076398849487|-3.156438827514648|-0.1213615089654922|-0.859163761138916|0.8780670166015625|XArbitraryZVertical|-0.2308525456633025|-0.1524395985065654|0.346927409853044|0.8961644901226145|-0.1130437552928925|0.5195346474647522|-0.8469385504722595|0|0|0|-1|-1|3
2021-04-22 22:29:21.858 +0100|142132.453167375|-0.971160888671875|0.7282257080078125|0.8003082275390625|142132.428207375|0.5810816614757141|-0.2268399418587768|-0.7229486614291595|-10.37163543701172|-1.084238529205322|-3.481831789016724|-0.3839998543262482|-0.750403881072998|1.207928657531738|XArbitraryZVertical|-0.3063280259370075|-0.2020865867680448|0.3045839377320326|0.8789498845299536|-0.1686427742242813|0.6615986227989197|-0.7306482791900635|0|0|0|-1|-1|3
2021-04-22 22:29:21.879 +0100|142132.473128375|-1.832962036132812|3.439971923828125|0.9233245849609375|142132.448167375|0.3930077966727796|-0.3852712145517364|-0.8914557629126288|-8.746067047119141|-1.241225719451904|-3.159374713897705|-0.5854035019874573|-0.4072741866111755|1.124721765518188|XArbitraryZVertical|-0.3812708218133485|-0.2520318129310859|0.2538544789044243|0.85244969221081|-0.2361142784357071|0.7779871821403503|-0.5822250247001648|0|0|0|-1|-1|3
2021-04-22 22:29:21.898 +0100|142132.493088375|-0.2725982666015625|3.484512329101562|-2.587158203125|142132.468128375|0.239917246145105|-0.5211440718454426|-0.9890656345498688|-4.475814819335938|0.3909347057342529|-1.210901498794556|-0.932213306427002|0.3989390730857849|1.342252492904663|XArbitraryZVertical|-0.4281654717993083|-0.2800177046493285|0.2231768393958945|0.8297329549976002|-0.2735666036605835|0.8355129361152649|-0.4765288233757019|0|0|0|-1|-1|3
2021-04-22 22:29:21.918 +0100|142132.513049375|-0.0048675537109375|1.580673217773438|-2.728744506835938|142132.488088375|0.09968009885539056|-0.6443965365330788|-1.03671204571892|-3.808300733566284|-2.157737970352173|-2.031705379486084|-1.33641529083252|2.973265171051025|0.9041776657104492|XArbitraryZVertical|-0.4556708657177335|-0.2981267913528078|0.1977394842981648|0.8150973866708288|-0.3057965040206909|0.8607351183891296|-0.4069689512252808|0|0|0|-1|-1|3
2021-04-22 22:29:21.938 +0100|142132.533009375|0.306640625|3.688705444335938|-2.980453491210938|142132.508049375|-0.04667566730821954|-0.8483888386187833|-1.069119173246651|-3.599542140960693|-4.054480075836182|-1.225139379501343|0.2949044406414032|2.376961708068848|-2.716701507568359|XArbitraryZVertical|-0.4724471103751491|-0.3432361177116|0.1913302296206036|0.7889077432915061|-0.360776424407959|0.8767772316932678|-0.3179653882980347|0|0|0|-1|-1|3
2021-04-22 22:29:21.958 +0100|142132.552969375|2.204483032226562|5.159194946289062|-3.744537353515625|142132.528009375|-0.1721858309983127|-1.01972524834495|-1.094340548426491|-2.665340900421143|-2.533609390258789|-0.407954603433609|0.2617868781089783|0.6642614603042603|-2.456468105316162|XArbitraryZVertical|-0.4882574593035949|-0.3762108115501847|0.1888895847419162|0.7644546682724012|-0.3907387256622314|0.8886259794235229|-0.2401401549577713|0|0|0|-1|-1|3
2021-04-22 22:29:21.978 +0100|142132.572930375|0.4739532470703125|3.64599609375|-4.00677490234375|142132.547969375|-0.1887897812888555|-1.081128574725315|-1.079986198242321|3.926264047622681|-1.377741694450378|-0.587552547454834|1.168623566627502|3.578574657440186|-3.045432329177856|XArbitraryZVertical|-0.4804657280958557|-0.3978809103213129|0.1940869506827179|0.7570824242615702|-0.4159530401229858|0.8819512724876404|-0.2216869294643402|0|0|0|-1|-1|3
2021-04-22 22:29:21.998 +0100|142132.592890375|-0.964141845703125|4.033599853515625|-3.14501953125|142132.567930375|0.06576471430979175|-0.8485000661596249|-1.041286698620747|7.653257369995117|2.423085927963257|4.161584377288818|2.60660982131958|3.942136764526367|-3.523823499679565|XArbitraryZVertical|-0.4413541898974294|-0.3718063006096557|0.2306453878343318|0.7834343313123703|-0.3789790272712708|0.8630548715591431|-0.3339331150054932|0|0|0|-1|-1|3
2021-04-22 22:29:22.018 +0100|142132.612851375|-0.7743072509765625|2.889617919921875|-0.93634033203125|142132.587890375|0.3864371813596009|-0.499195747106218|-1.00848790428043|4.729001522064209|4.225705623626709|6.155025959014893|0.10668084025383|2.843717098236084|-3.478848695755005|XArbitraryZVertical|-0.4179336748755108|-0.30214444868551|0.2800332518088698|0.8097046352282224|-0.255224883556366|0.8460266590118408|-0.4680803418159485|0|0|0|-1|-1|3
2021-04-22 22:29:22.038 +0100|142132.632811375|-0.4288787841796875|1.04510498046875|-0.09075927734375|142132.607851375|0.6426786729277454|-0.2119973997464953|-0.9795257902760004|3.200896739959717|3.101969003677368|6.233771324157715|-0.8451143503189087|3.004133462905884|-1.971068143844604|XArbitraryZVertical|-0.4143448829921719|-0.2363252410778647|0.3243674462180259|0.8168565964611344|-0.1172876805067062|0.8302331566810608|-0.5449373722076416|0|0|0|-1|-1|3
2021-04-22 22:29:22.058 +0100|142132.652771375|-0.0304718017578125|0.3463592529296875|0.5198211669921875|142132.627811375|0.8645640674703698|0.01541306880167877|-0.9666351945018118|-0.6979848742485046|1.60745632648468|5.860881328582764|-0.638790488243103|1.770329236984253|-0.153338611125946|XArbitraryZVertical|-0.4248169783891219|-0.1884895292568001|0.3676944164017022|0.8054831424080739|0.00875538494437933|0.8229789137840271|-0.5680044889450073|0|0|0|-1|-1|3
2021-04-22 22:29:22.078 +0100|142132.672732375|0.032470703125|0.8698272705078125|1.043731689453125|142132.647771375|1.082509105962842|0.2133518814300742|-0.9823500695563958|-2.615640878677368|0.1158858835697174|6.040596008300781|-0.4261372983455658|-0.1795207262039185|0.4810532331466675|XArbitraryZVertical|-0.4503176837823044|-0.1611579540184766|0.4086790228059571|0.7773183161045214|0.1175287216901779|0.831804096698761|-0.5424842238426208|0|0|0|-1|-1|3
2021-04-22 22:29:22.098 +0100|142132.692692375|-0.038421630859375|-0.153167724609375|1.787124633789062|142132.667732375|1.317389618673951|0.3973508397941931|-1.010631704500229|-3.508974075317383|-1.462772846221924|4.982921600341797|-0.214445173740387|-0.3576957583427429|1.156938314437866|XArbitraryZVertical|-0.480988699315443|-0.1538991453697188|0.4494967152381472|0.7368295084770236|0.2056108117103577|0.8471676707267761|-0.4899298548698425|0|0|0|-1|-1|3
2021-04-22 22:29:22.118 +0100|142132.712653375|-0.2393798828125|-1.0745849609375|2.062026977539062|142132.687692375|1.505819212605563|0.5137162719122035|-1.023863109957936|-1.93164074420929|-2.964020729064941|3.368910551071167|-0.2220474481582642|-0.09623426198959351|1.683121919631958|XArbitraryZVertical|-0.4971631147541535|-0.1623509518102665|0.4857410621857047|0.7003762051664457|0.2555716037750244|0.8541234731674194|-0.4529420137405396|0|0|0|-1|-1|3
2021-04-22 22:29:22.138 +0100|142132.732613375|-0.369598388671875|-0.706298828125|1.648590087890625|142132.707653375|1.612613060105214|0.5318165385340208|-1.017446327602188|-0.4581698179244995|-4.098887920379639|1.826833605766296|-0.3695128858089447|-1.337554216384888|2.428696155548096|XArbitraryZVertical|-0.4909251691048624|-0.1803168714488953|0.5195935625865896|0.6756485614361563|0.2665014564990997|0.8507687449455261|-0.4529566168785095|0|0|0|-1|-1|3
2021-04-22 22:29:22.168 +0100|142132.752573375|-0.3694305419921875|-0.4318695068359375|1.351486206054688|142132.727613375|1.661084884618429|0.4972063062721409|-1.010262678242243|-0.323340505361557|-3.355114936828613|0.8164623975753784|-0.5520378351211548|-1.896684408187866|2.452848196029663|XArbitraryZVertical|-0.4753305534145904|-0.2010658409272271|0.5459200525258358|0.6600036230078294|0.2535766065120697|0.8469715118408203|-0.4672667980194092|0|0|0|-1|-1|3
2021-04-22 22:29:22.182 +0100|142132.772534375|-0.4763336181640625|-0.30169677734375|1.08868408203125|142132.747573375|1.679464986385896|0.4519328432564911|-1.006333852744975|0.1087155863642693|-2.748307228088379|0.2901469171047211|-0.6015702486038208|-1.459515333175659|1.974281787872314|XArbitraryZVertical|-0.459886944973708|-0.2188079882021354|0.56348346419641|0.6504717283849765|0.2336205542087555|0.8448762893676758|-0.4812541306018829|0|0|0|-1|-1|3
2021-04-22 22:29:22.198 +0100|142132.792494375|-0.46624755859375|-0.1958160400390625|0.7582855224609375|142132.767534375|1.68481195017925|0.4076776112749003|-0.999359865551525|0.3478286862373352|-2.053194284439087|0.3127677142620087|-0.6042777299880981|-1.252348899841309|1.792750835418701|XArbitraryZVertical|-0.4449417816416014|-0.2318810924272816|0.5768814725537676|0.644566500450216|0.2144317775964737|0.841124951839447|-0.4965159296989441|0|0|0|-1|-1|3
2021-04-22 22:29:22.218 +0100|142132.812455375|-0.321044921875|-0.195648193359375|0.454498291015625|142132.787494375|1.690048283835802|0.3814278340163341|-0.9893512620830404|0.4330052137374878|-0.9621687531471252|0.3022918999195099|-0.6963157653808594|-1.102499842643738|1.507824182510376|XArbitraryZVertical|-0.4341735197489598|-0.2379342973389142|0.5866551987302857|0.6408717212009077|0.2044495791196823|0.8356698751449585|-0.5097612738609314|0|0|0|-1|-1|3
2021-04-22 22:29:22.238 +0100|142132.832415375|-0.206756591796875|-0.1375579833984375|0.246978759765625|142132.807455375|1.695433400571972|0.3773859537615686|-0.9834658611388452|-0.03297851234674454|0.03376911580562592|0.1873389482498169|-0.639894962310791|-1.024561285972595|1.199671983718872|XArbitraryZVertical|-0.4308526100120336|-0.2383121393354096|0.5906013558083474|0.6393462443840546|0.2041963338851929|0.8324229121208191|-0.5151467323303223|0|0|0|-1|-1|3
2021-04-22 22:29:22.258 +0100|142132.852375375|-0.17333984375|0.04388427734375|0.2003021240234375|142132.827415375|1.705636159782824|0.3923849116772325|-0.9906787326616232|-0.931685745716095|0.5687123537063599|0.03719889745116234|-0.4933956265449524|-1.020403623580933|0.903957188129425|XArbitraryZVertical|-0.4358712906580663|-0.2382934907541692|0.5889471104618591|0.6374745091032921|0.2095982283353806|0.836398184299469|-0.5064648389816284|0|0|0|-1|-1|3
2021-04-22 22:29:22.278 +0100|142132.872336375|-0.232330322265625|0.3332977294921875|0.1104278564453125|142132.867336375|1.739138002717451|0.4508618025154964|-1.045821233746913|-1.841403126716614|1.013309597969055|-0.3033097684383392|-0.3976646661758423|-0.7476602792739868|0.6501449942588806|XArbitraryZVertical|-0.4620045351488618|-0.2469768331021722|0.5731828465176292|0.6300919280071298|0.2183899283409119|0.8653364181518555|-0.4511085152626038|0|0|0|-1|-1|3
2021-04-22 22:29:22.299 +0100|142132.892296375|-0.26519775390625|0.548065185546875|0.237640380859375|142132.887296375|1.758376978576305|0.4917198920330696|-1.081176611414753|-1.745377898216248|1.410248756408691|-0.5408765077590942|-0.4682593047618866|-0.4908641576766968|0.5567538738250732|XArbitraryZVertical|-0.4790885384095445|-0.2513729808259265|0.5606466722230157|0.626866297212227|0.2220442891120911|0.8825117945671082|-0.4145715832710266|0|0|0|-1|-1|3
2021-04-22 22:29:22.317 +0100|142132.912257375|-0.26324462890625|0.5965728759765625|0.3359222412109375||||||||||||||||||||||||3
2021-04-22 22:29:22.337 +0100|142132.932217375|-0.362579345703125|0.8848876953125|0.225799560546875|142132.907257375|1.771364977565521|0.5322404922273111|-1.122862564584689|-2.22114896774292|1.476410627365112|-0.9739571809768677|-0.478070080280304|-0.3244546055793762|0.6629896759986877|XArbitraryZVertical|-0.4974071108040278|-0.2568837021925467|0.5438098142400982|0.6251942840486167|0.219785287976265|0.9013439416885376|-0.3731938600540161|0|0|0|-1|-1|3
2021-04-22 22:29:22.357 +0100|142132.952177375|-0.4697113037109375|1.558074951171875|0.105224609375|142132.927217375|1.783360295493358|0.5734717240960389|-1.169262108624288|-2.018198251724243|1.697975635528564|-0.9836218953132629|-0.4877564609050751|-0.3026795983314514|0.6561889052391052|XArbitraryZVertical|-0.516015275079088|-0.2637701355926991|0.5243610279932237|0.623858371757585|0.2120461910963058|0.920462429523468|-0.3283070921897888|0|0|0|-1|-1|3
2021-04-22 22:29:22.377 +0100|142132.972138375|-0.21661376953125|1.688369750976562|-0.147552490234375|142132.947177375|1.796361014103018|0.6278812917088774|-1.208969961561204|-1.712642192840576|2.626680850982666|-0.9036458730697632|-0.6093685626983643|0.08310472965240479|0.4431019425392151|XArbitraryZVertical|-0.5355326185856999|-0.2645185312501185|0.5027824902436715|0.6248557854259953|0.2079409807920456|0.9352518916130066|-0.2864695191383362|0|0|0|-1|-1|3
2021-04-22 22:29:22.397 +0100|142132.992098375|0.173797607421875|1.308212280273438|-0.0403289794921875|142132.967138375|1.81178259428094|0.7086907478023731|-1.258196668458424|-2.576387882232666|3.737229108810425|-1.771068215370178|-0.667195737361908|0.7551127076148987|0.2838239073753357|XArbitraryZVertical|-0.5612754464067931|-0.2612045488645388|0.4708162813941622|0.6285493159104324|0.2001553624868393|0.9515373110771179|-0.2334841191768646|0|0|0|-1|-1|3
2021-04-22 22:29:22.417 +0100|142133.012059375|0.094512939453125|2.05194091796875|0.1951751708984375|142132.987098375|1.885006455222057|0.8508638669027501|-1.331410405522894|-3.908907890319824|3.312085390090942|-1.873352408409119|-0.2626795768737793|0.5826392769813538|-0.002434298396110535|XArbitraryZVertical|-0.5932583343091337|-0.2643452176601606|0.4297502258030465|0.6272806320833507|0.1782685369253159|0.9714837670326233|-0.1563323140144348|0|0|0|-1|-1|3
2021-04-22 22:29:22.437 +0100|142133.032019375|0.1753997802734375|2.50274658203125|0.2383575439453125|142133.007059375|2.15955595367571|1.184175085571332|-1.410600309332766|-4.789939880371094|3.286064147949219|-2.064154624938965|0.03883063793182373|0.4257679581642151|0.1196718215942383|XArbitraryZVertical|-0.6283761771526876|-0.2739895874778657|0.3865677347528371|0.6169592316645741|0.1477390974760056|0.9871960282325745|-0.06014617159962654|0|0|0|-1|-1|3
2021-04-22 22:29:22.459 +0100|142133.051979375|0.4378509521484375|1.956344604492188|-0.1505279541015625|142133.027019375|2.796656241303199|1.88281028540901|-1.461300144483389|-3.463840007781982|3.111598968505859|-2.33902907371521|-0.009917542338371277|1.219276189804077|0.1140836477279663|XArbitraryZVertical|-0.6605236200649534|-0.283692999977287|0.3393083773668034|0.606709913712872|0.1040036827325821|0.9940112829208374|0.03354634344577789|0|0|0|-1|-1|3
2021-04-22 22:29:22.477 +0100|142133.071940375|0.4074859619140625|1.902694702148438|-0.0309295654296875|142133.046979375|-2.743777077021643|2.685828535135282|-1.451388124447666|-3.335181951522827|3.358157396316528|-2.459819793701172|0.1688809096813202|1.54436731338501|0.2803950309753418|XArbitraryZVertical|-0.6847065005296272|-0.2909637339450829|0.2934083802353795|0.6003571683604741|0.05243292450904846|0.992879331111908|0.1069657728075981|0|0|0|-1|-1|3
2021-04-22 22:29:22.497 +0100|142133.091900375|0.4078521728515625|2.352676391601562|-0.172576904296875|142133.066940375|-2.358776208680726|3.126038364538806|-1.396221702352793|-3.698127269744873|2.646275758743286|-1.701291799545288|0.4990840554237366|0.7554948329925537|-0.2878191471099854|XArbitraryZVertical|-0.706194800483629|-0.2968561755012807|0.250711078620415|0.5918694435840509|0.002701521385461092|0.9848005175590515|0.1736693680286407|0|0|0|-1|-1|3
2021-04-22 22:29:22.517 +0100|142133.111861375|0.5048370361328125|2.252639770507812|-0.0924835205078125|142133.086900375|-2.236120586469336|-2.98490253642167|-1.311930878829952|-4.201762676239014|2.567671775817871|-1.485107660293579|0.4047537446022034|1.102059841156006|-0.3232974708080292|XArbitraryZVertical|-0.7313172534013932|-0.3026541206866644|0.2102061356172843|0.5739243243490101|-0.03994637727737427|0.9666810035705566|0.252848893404007|0|0|0|-1|-1|3
2021-04-22 22:29:22.537 +0100|142133.131821375|0.5266265869140625|1.460769653320312|-0.2866363525390625|142133.106861375|-2.214114655525722|-2.915588838256998|-1.230917145890585|-3.61156153678894|2.249904155731201|-0.748319149017334|0.523739755153656|1.444915294647217|-0.4524730741977692|XArbitraryZVertical|-0.7547360405131893|-0.3046658536329059|0.1742444626551427|0.5542482599454168|-0.0747038871049881|0.9427949786186218|0.3248955607414246|0|0|0|-1|-1|3
2021-04-22 22:29:22.557 +0100|142133.151782375|0.391448974609375|1.285720825195312|0.0800018310546875|142133.126821375|-2.225497976142237|-2.885841677039714|-1.162214412706353|-3.165250062942505|1.73818564414978|-0.4477666318416595|0.6167893409729004|1.14705753326416|-0.5601658821105957|XArbitraryZVertical|-0.7745288365586777|-0.3038058212081253|0.1451558784973131|0.5354782945814659|-0.1005080193281174|0.9176851511001587|0.3843857944011688|0|0|0|-1|-1|3
2021-04-22 22:29:22.577 +0100|142133.171742375|0.338958740234375|1.365203857421875|-0.3011474609375|142133.146782375|-2.254967146995573|-2.883451084182779|-1.103060597462439|-2.797464847564697|1.219014883041382|0.1092044711112976|0.6214926242828369|0.4720321893692017|-0.6589490175247192|XArbitraryZVertical|-0.7919217434630174|-0.3013698811643785|0.1238576909397532|0.5164257140958156|-0.1150991171598434|0.8925914764404297|0.4359277188777924|0|0|0|-1|-1|3
2021-04-22 22:29:22.597 +0100|142133.191702375|0.175048828125|1.001296997070312|-0.1431732177734375|142133.166742375|-2.289326596068482|-2.893727441298442|-1.052522602057701|-2.601113796234131|0.6653293371200562|0.2114172130823135|0.4876387119293213|0.4609442949295044|-0.382508397102356|XArbitraryZVertical|-0.8069899075784764|-0.2981414795167006|0.1087059631816558|0.4980583506317279|-0.1215344741940498|0.8686756491661072|0.4802421033382416|0|0|0|-1|-1|3
2021-04-22 22:29:22.617 +0100|142133.211664|0.1368865966796875|0.99676513671875|0.03668212890625|142133.186702375|-2.32028746585895|-2.911601561585123|-1.026559687459566|-0.4507282674312592|0.3179126381874084|0.691706657409668|0.4221421480178833|0.4071261882781982|-0.8300279378890991|XArbitraryZVertical|-0.8159298472205719|-0.2938100625519733|0.1030850147216699|0.4871423413614795|-0.1180343627929688|0.8555227518081665|0.5041317343711853|0|0|0|-1|-1|3
2021-04-22 22:29:22.637 +0100|142133.231624|0.1380157470703125|1.035293579101562|0.036590576171875|142133.226624|-2.368079136890425|-2.940862755011418|-1.065287366196546|1.941112756729126|0.211399033665657|0.8418655395507812|0.2416790723800659|0.1561840772628784|-0.4396472275257111|XArbitraryZVertical|-0.8130139788384619|-0.2761762392325908|0.110635720834289|0.5004945970994367|-0.09655265510082245|0.8749281167984009|0.4745301008224487|0|0|0|-1|-1|3
2021-04-22 22:29:22.657 +0100|142133.251585|0.0700531005859375|0.9408111572265625|0.13507080078125||||||||||||||||||||||||3
2021-04-22 22:29:22.677 +0100|142133.271545|0.0110321044921875|0.83062744140625|0.27178955078125|142133.246585|-2.386360814391836|-2.954814893301183|-1.113640015793226|2.493273496627808|0.03485520929098129|0.9356220960617065|0.2065377235412598|0.1200527548789978|-0.3720443546772003|XArbitraryZVertical|-0.803861418924828|-0.2658337623021009|0.1204189357826761|0.5183035695326964|-0.08196490257978439|0.8973113298416138|0.4337215423583984|0|0|0|-1|-1|3
2021-04-22 22:29:22.697 +0100|142133.291505|-0.0206451416015625|0.7578277587890625|0.2981719970703125|142133.266545|-2.410725887044066|-2.977288275989899|-1.163864090199791|2.252310514450073|-0.0715104341506958|0.9124999642372131|0.1162827685475349|0.0009412765502929688|-0.2244775593280792|XArbitraryZVertical|-0.7937262785096256|-0.255402603771237|0.1317269794385951|0.5361120958141058|-0.06473851948976517|0.9183393716812134|0.390463799238205|0|0|0|-1|-1|3
2021-04-22 22:29:22.717 +0100|142133.311466|0.011932373046875|0.7705841064453125|0.2607879638671875|142133.286505|-2.438539848105456|-3.00594392795048|-1.209393369619171|2.101954460144043|-0.1896829307079315|0.7889272570610046|0.04841191321611404|-0.1325911283493042|-0.05733916163444519|XArbitraryZVertical|-0.783857839335195|-0.2464482294887849|0.1429614588968638|0.5517176947494852|-0.04781677573919296|0.9354016780853271|0.3503396809101105|0|0|0|-1|-1|3
2021-04-22 22:29:22.737 +0100|142133.331426|0.08795166015625|0.8753509521484375|0.218017578125|142133.306466|-2.463599343382477|-3.032528578630385|-1.252308123889181|2.112483024597168|-0.08810927718877792|0.532097339630127|0.01543765887618065|-0.198763906955719|-0.01807305216789246|XArbitraryZVertical|-0.7736592215864507|-0.2389297252163326|0.1529390110978181|0.5665456558315521|-0.03408384323120117|0.9497098922729492|0.311271995306015|0|0|0|-1|-1|3
2021-04-22 22:29:22.757 +0100|142133.351387|0.112884521484375|0.9062652587890625|0.3734893798828125|142133.326426|-2.475659914962044|-3.045555701275332|-1.293815646339055|1.813740730285645|-0.0866997167468071|0.2545464634895325|0.05943972989916801|-0.1726093888282776|-0.02040717005729675|XArbitraryZVertical|-0.7627123522089473|-0.233166698686444|0.1605732990419159|0.5814805331186598|-0.02622131444513798|0.9618854522705078|0.2721936702728271|0|0|0|-1|-1|3
2021-04-22 22:29:22.777 +0100|142133.371347|0.056365966796875|1.04132080078125|0.3469696044921875|142133.346387|-2.477267330691372|-3.050102041084408|-1.325911754905657|1.391640186309814|-0.2181816846132278|0.1058251857757568|0.1190438568592072|-0.06505995988845825|-0.06401565670967102|XArbitraryZVertical|-0.7534923533678737|-0.230140631634743|0.1664081609706945|0.5929527710427908|-0.02215049602091312|0.9701653122901917|0.2414308786392212|0|0|0|-1|-1|3
2021-04-22 22:29:22.797 +0100|142133.391307|0.037811279296875|1.040603637695312|0.3341064453125|142133.366347|-2.482180729293979|-3.062266359679083|-1.352923170733979|0.7816751599311829|-0.4266978800296783|0.1313190907239914|0.1335075795650482|-0.09963530302047729|0.2857779264450073|XArbitraryZVertical|-0.7452483475104047|-0.2287840935169797|0.1732741642314333|0.6018628823017433|-0.01712873950600624|0.9763593673706055|0.2154745161533356|0|0|0|-1|-1|3
2021-04-22 22:29:22.816 +0100|142133.411268|0.063140869140625|1.061721801757812|0.4203643798828125|142133.386307|-2.481965489690338|-3.070842406155459|-1.36052216122868|0.2292094975709915|-0.4582469165325165|-0.04559097066521645|0.05964666977524757|0.06081384420394897|0.1251542270183563|XArbitraryZVertical|-0.7422529430370853|-0.2305719948279221|0.1775701156363561|0.6036273363942142|-0.01475523598492146|0.9779736995697021|0.2082057595252991|0|0|0|-1|-1|3
2021-04-22 22:29:22.836 +0100|142133.431228|0.1056060791015625|1.058822631835938|0.52032470703125|142133.406268|-2.474710088022069|-3.071985184404456|-1.359045041045669|-0.2597028613090515|-0.3188231885433197|-0.1883896738290787|0.06369021534919739|0.08283674716949463|0.1857374012470245|XArbitraryZVertical|-0.7417411157018511|-0.2337788476595087|0.1799792521799849|0.6023082979888525|-0.01461785659193993|0.9776643514633179|0.2096648663282394|0|0|0|-1|-1|3
2021-04-22 22:29:22.856 +0100|142133.451189|-0.0518646240234375|1.096725463867188|0.574005126953125|142133.426228|-2.450607162720124|-3.054721255387528|-1.358774273271478|0.3310866057872772|-0.41996830701828|-0.2278353422880173|0.09899246692657471|0.05761003494262695|0.2100642174482346|XArbitraryZVertical|-0.7405370292576071|-0.237544943721033|0.1808008104107214|0.6020703399030952|-0.01825813949108124|0.9776073694229126|0.2096453905105591|0|0|0|-1|-1|3
2021-04-22 22:29:22.876 +0100|142133.471149|-0.065460205078125|0.9940032958984375|0.53558349609375|142133.446189|-2.426350577656449|-3.041027797891362|-1.361932599320618|-0.0188324823975563|-0.4751747846603394|-0.3089223802089691|0.1015665531158447|0.1170849204063416|0.3746472597122192|XArbitraryZVertical|-0.7379643482693564|-0.2419907888240459|0.183510853895084|0.6026383795213501|-0.02081693895161152|0.9782671332359314|0.2063018381595612|0|0|0|-1|-1|3
2021-04-22 22:29:22.896 +0100|142133.491109|-0.0021820068359375|0.9329833984375|0.3571624755859375|142133.466149|-2.395968642904244|-3.018276008653971|-1.360115410795949|-0.1070996671915054|-0.2042177319526672|-0.3269307613372803|-0.04910555109381676|0.08613693714141846|0.3469826877117157|XArbitraryZVertical|-0.7368626464021397|-0.2465817556445333|0.183989930949869|0.6019789632887692|-0.02572344429790974|0.9778887629508972|0.2075382471084595|0|0|0|-1|-1|3
2021-04-22 22:29:22.916 +0100|142133.51107|-0.053436279296875|0.95416259765625|0.30145263671875|142133.486109|-2.369155515279519|-2.994115535919484|-1.354920347854809|-0.2786527276039124|-0.07199885696172714|-0.2945624589920044|-0.01777958124876022|-0.002820909023284912|0.2864448428153992|XArbitraryZVertical|-0.7372073936471693|-0.2499283849731887|0.1822982680456923|0.6006899250744112|-0.03147566318511963|0.976789116859436|0.2118778824806213|0|0|0|-1|-1|3
2021-04-22 22:29:22.936 +0100|142133.53103|-0.0211639404296875|0.705322265625|0.4485015869140625|142133.50607|-2.342517586074476|-2.970768774316365|-1.351257953289226|0.05028723180294037|-0.1811891049146652|-0.352754533290863|0.03314558416604996|-0.03979533910751343|0.1045903712511063|XArbitraryZVertical|-0.7369895328786157|-0.253280740326565|0.1810600727220433|0.5999271278265886|-0.0370212160050869|0.9759981036186218|0.2146094143390656|0|0|0|-1|-1|3
2021-04-22 22:29:22.956 +0100|142133.550991|-0.0459136962890625|0.823516845703125|0.4151458740234375|142133.52603|-2.306164788197822|-2.938619081031705|-1.353448813835477|0.4167903363704681|-0.1145925968885422|-0.3583048582077026|-0.01390358060598373|-0.06814795732498169|0.1299894601106644|XArbitraryZVertical|-0.7346666156191825|-0.2566548855806351|0.1805470582136069|0.6014947997642861|-0.04346936568617821|0.9764728546142578|0.2112135291099548|0|0|0|-1|-1|3
2021-04-22 22:29:22.976 +0100|142133.570951|-0.0629425048828125|0.9410858154296875|0.326873779296875|142133.545991|-2.262380431691077|-2.896684731739978|-1.36110498856247|0.3848505318164825|0.05468883365392685|-0.4156064987182617|0.03150507807731628|-0.2783882617950439|0.2531931400299072|XArbitraryZVertical|-0.7307693270369237|-0.2587466370134284|0.1798712215283703|0.6055351748213941|-0.05047163739800453|0.9780952334403992|0.2019472569227219|0|0|0|-1|-1|3
2021-04-22 22:29:22.996 +0100|142133.590911|-0.089385986328125|0.8638916015625|0.33270263671875|142133.565951|-2.211529170621417|-2.844199671631014|-1.365372729355547|0.2886711955070496|0.1915330141782761|-0.4469975233078003|0.006489276885986328|-0.1161359548568726|0.1931102275848389|XArbitraryZVertical|-0.727749661779498|-0.2605664004818657|0.1770570159238549|0.6092097970535354|-0.05977284163236618|0.9789746403694153|0.1950288414955139|0|0|0|-1|-1|3
2021-04-22 22:29:23.016 +0100|142133.610872|-0.1034088134765625|0.816497802734375|0.350738525390625|142133.585911|-2.168418572339376|-2.797963495593719|-1.367236336173926|0.2009941786527634|0.2080079168081284|-0.3395143747329712|-0.0006324946880340576|-0.04075455665588379|0.126556396484375|XArbitraryZVertical|-0.7257124121774421|-0.2617463567631608|0.173828675580475|0.6120572336640187|-0.06810824573040009|0.979353129863739|0.1903393268585205|0|0|0|-1|-1|3
2021-04-22 22:29:23.036 +0100|142133.630832|-0.1329803466796875|0.82147216796875|0.3360137939453125|142133.605872|-2.136256367023645|-2.761373696620417|-1.367245911086667|0.0002224007621407509|0.3042310774326324|-0.2421319037675858|-0.0186820849776268|-0.1428530812263489|0.1450228542089462|XArbitraryZVertical|-0.7246461956730392|-0.2621900652045698|0.1704224883322466|0.6140851095222749|-0.07502201199531555|0.9793550372123718|0.1877114772796631|0|0|0|-1|-1|3
2021-04-22 22:29:23.056 +0100|142133.650793|-0.1424102783203125|0.8480987548828125|0.35870361328125|142133.625832|-2.136813256768441|-2.755458316218705|-1.357355731480318|-0.09786604344844818|0.4164648354053497|-0.2074644714593887|-0.0304846316576004|-0.1534401774406433|0.1561288833618164|XArbitraryZVertical|-0.7275430965718125|-0.2622884107671564|0.1657681565597102|0.6118879917144961|-0.07977530360221863|0.977307915687561|0.1962283402681351|0|0|0|-1|-1|3
2021-04-22 22:29:23.076 +0100|142133.670753|-0.1558837890625|0.895233154296875|0.3451995849609375|142133.645793|-2.128373847432652|-2.738289638939009|-1.352668897019037|0.02196028642356396|0.4980562925338745|-0.173378050327301|-0.0518353283405304|-0.1518568396568298|0.1409873962402344|XArbitraryZVertical|-0.7289292239861344|-0.261117864132698|0.1609813683403196|0.6120170085741415|-0.08492910116910934|0.9763044118881226|0.1990407109260559|0|0|0|-1|-1|3
2021-04-22 22:29:23.096 +0100|142133.690713|-0.154876708984375|0.8614959716796875|0.2584075927734375|142133.665753|-2.106296201690673|-2.705672561442368|-1.353146521491394|0.2045585811138153|0.623451292514801|-0.2793183326721191|-0.05304784327745438|-0.116254448890686|0.1714153587818146|XArbitraryZVertical|-0.7285343232494512|-0.2590543764998237|0.1559835684852222|0.6146527041226041|-0.09117817878723145|0.9764076471328735|0.1957428604364395|0|0|0|-1|-1|3
2021-04-22 22:29:23.116 +0100|142133.710674|-0.1708831787109375|0.885650634765625|0.229248046875|142133.685713|-2.070456657373637|-2.657596983569712|-1.353198951285126|0.1374501436948776|0.6755591630935669|-0.402712345123291|-0.05670984089374542|-0.08233028650283813|0.1257302761077881|XArbitraryZVertical|-0.7275682853404246|-0.2572722127222922|0.149541400729458|0.6181366614888015|-0.1004556119441986|0.9764189720153809|0.1910891979932785|0|0|0|-1|-1|3
2021-04-22 22:29:23.136 +0100|142133.730634|-0.166748046875|1.015426635742188|0.1868438720703125|142133.705674|-2.033368142148084|-2.607375578275695|-1.348752431832819|-0.1151038110256195|0.7422971129417419|-0.5241390466690063|-0.04080814123153687|-0.1187907457351685|0.06780143082141876|XArbitraryZVertical|-0.7273856151847744|-0.2562806903690564|0.1415898008088109|0.6206308525741887|-0.1121306344866753|0.9754493832588196|0.1895392537117004|0|0|0|-1|-1|3
2021-04-22 22:29:23.156 +0100|142133.750595|-0.114715576171875|1.109527587890625|0.14227294921875|142133.725634|-1.997936037234694|-2.556200955748284|-1.339105672374418|-0.2745674252510071|0.9331194162368774|-0.6725253462791443|-0.04867911338806152|-0.05880516767501831|0.03056490421295166|XArbitraryZVertical|-0.7282264074473619|-0.2556983148955219|0.131336861154828|0.6221377960422414|-0.1268732249736786|0.973279595375061|0.1913906633853912|0|0|0|-1|-1|3
2021-04-22 22:29:23.176 +0100|142133.770555|-0.083404541015625|1.086990356445312|0.070343017578125|142133.745595|-1.960970017447059|-2.501391146722676|-1.326870784196624|-0.2146419584751129|0.9263597726821899|-0.7302803993225098|-0.009797319769859314|0.07598936557769775|-0.009758442640304565|XArbitraryZVertical|-0.7291581525661268|-0.2552898683369274|0.1194083896230246|0.6236163403223136|-0.144270658493042|0.9703973531723022|0.1936890631914139|0|0|0|-1|-1|3
2021-04-22 22:29:23.196 +0100|142133.790516|-0.100189208984375|1.012176513671875|-0.031005859375|142133.765555|-1.930792423593986|-2.455968307399372|-1.312630415215777|-0.1921897679567337|0.6988387703895569|-0.683767557144165|0.05738723278045654|0.1505718231201172|-0.07780203223228455|XArbitraryZVertical|-0.7302654717017921|-0.2559687326091971|0.1080798426786905|0.6241084753039322|-0.1616505533456802|0.9668598771095276|0.1976152956485748|0|0|0|-1|-1|3
2021-04-22 22:29:23.216 +0100|142133.810476|-0.082122802734375|0.990081787109375|-0.08984375|142133.785516|-1.908291323679701|-2.422808350028479|-1.300598370045348|-0.306978702545166|0.4591594040393829|-0.5439460277557373|0.09055560827255249|0.09934639930725098|-0.1686296463012695|XArbitraryZVertical|-0.7309685428767855|-0.2571554789361774|0.09938465983249208|0.6242426336204222|-0.1757607012987137|0.963718056678772|0.2008879035711288|0|0|0|-1|-1|3
2021-04-22 22:29:23.236 +0100|142133.830436|-0.04656982421875|1.02386474609375|-0.0765380859375|142133.805476|-1.904134524935425|-2.410953117718654|-1.287028390671594|-0.6348837018013|0.3416192233562469|-0.4578430652618408|0.08440834283828735|0.0518028736114502|-0.2417283058166504|XArbitraryZVertical|-0.7330061534821781|-0.2587616279951108|0.09222731091339641|0.6222850555660778|-0.186840608716011|0.9600073099136353|0.2085112035274506|0|0|0|-1|-1|3
2021-04-22 22:29:23.256 +0100|142133.850397|-0.0846099853515625|1.118759155273438|-0.079742431640625|142133.825436|-1.910958465183788|-2.412636650058369|-1.2712528350795|-0.6872921586036682|0.1361019760370255|-0.4517507553100586|0.1254628151655197|0.03181815147399902|-0.3113414943218231|XArbitraryZVertical|-0.7360983331547253|-0.2611643232026105|0.08593777835953949|0.6185203066887979|-0.1965535581111908|0.9554712772369385|0.2200951129198074|0|0|0|-1|-1|3
2021-04-22 22:29:23.276 +0100|142133.870357|-0.12384033203125|1.130844116210938|-0.031036376953125|142133.845397|-1.91796915873512|-2.418864546235656|-1.255351285118022|-0.5941502451896667|-0.09842561930418015|-0.4483497738838196|0.153567373752594|0.09647583961486816|-0.316115140914917|XArbitraryZVertical|-0.7390367670791439|-0.2648874064633025|0.0812576403390886|0.6140493901920255|-0.2052031308412552|0.95065838098526|0.2326813638210297|0|0|0|-1|-1|3
2021-04-22 22:29:23.296 +0100|142133.890318|-0.1651611328125|1.064712524414062|-0.029754638671875|142133.865357|-1.911459675301724|-2.417665740501197|-1.243643047112725|-0.1580858826637268|-0.3986035287380219|-0.4529199302196503|0.1144812852144241|0.1867362260818481|-0.3036380410194397|XArbitraryZVertical|-0.7398655259093554|-0.2701441949733767|0.07926081343804693|0.6110145965318974|-0.2128394097089767|0.946960985660553|0.2407577633857727|0|0|0|-1|-1|3
2021-04-22 22:29:23.316 +0100|142133.910278|-0.1884613037109375|0.9814300537109375|-0.0816650390625|142133.885318|-1.896361191567703|-2.413923831450153|-1.237379608527484|-0.01632072404026985|-0.6341924667358398|-0.3421462774276733|0.08506590127944946|0.1716169118881226|-0.262037605047226|XArbitraryZVertical|-0.7388138613558202|-0.2763083373833861|0.08057548444637394|0.6093566666349137|-0.2176800817251205|0.9449296593666077|0.2443844377994537|0|0|0|-1|-1|3
2021-04-22 22:29:23.336 +0100|142133.930238|-0.1859283447265625|0.902130126953125|-0.110931396484375|142133.905278|-1.884200071984064|-2.416619452289953|-1.233511413562975|-0.03394492343068123|-0.7791129946708679|-0.2128870189189911|0.0460873544216156|0.1012497544288635|-0.2946695387363434|XArbitraryZVertical|-0.7375241322821977|-0.2826839811964324|0.08408445258173904|0.6075177347490653|-0.2194424420595169|0.9436566233634949|0.2477041631937027|0|0|0|-1|-1|3
2021-04-22 22:29:23.355 +0100|142133.950199|-0.2056884765625|0.9179840087890625|-0.0461883544921875|142133.925238|-1.878206727248981|-2.426740706087026|-1.233441283676891|-0.1677850484848022|-0.8036772608757019|-0.1316550970077515|0.03085635602474213|0.0153813362121582|-0.3300701379776001|XArbitraryZVertical|-0.7362390141808046|-0.2879817336923847|0.08960989989248602|0.60579606621336|-0.2169677913188934|0.9436334371566772|0.2499627321958542|0|0|0|-1|-1|3
2021-04-22 22:29:23.375 +0100|142133.970159|-0.2617034912109375|1.026565551757812|0.1024169921875|142133.945199|-1.874828902369503|-2.43898060217929|-1.236191909860283|-0.1655676811933517|-0.8233746886253357|-0.04977665841579437|0.0248207300901413|-0.05409860610961914|-0.3649657070636749|XArbitraryZVertical|-0.7348089593958066|-0.2921722373590547|0.09597802404540891|0.6045490136218739|-0.212213858962059|0.94454026222229|0.250617653131485|0|0|0|-1|-1|3
2021-04-22 22:29:23.396 +0100|142133.99012|-0.2934722900390625|1.05572509765625|0.1643524169921875|142133.965159|-1.871789050890724|-2.45098975250945|-1.239803698465509|-0.001324346521869302|-0.7150799036026001|-0.03856075555086136|-0.01193375885486603|-0.000819861888885498|-0.2568784952163696|XArbitraryZVertical|-0.7332704326830209|-0.2959270885875672|0.1024109278566272|0.6035344180859989|-0.2070145606994629|0.9457201957702637|0.2505167424678802|0|0|0|-1|-1|3
2021-04-22 22:29:23.416 +0100|142134.01008|-0.3112335205078125|1.047286987304688|0.218597412109375|142133.98512|-1.85622245481952|-2.448485456652151|-1.246391990733247|0.2639004588127136|-0.603205680847168|-0.03431718796491623|-0.06483796238899231|0.09752339124679565|-0.1159556061029434|XArbitraryZVertical|-0.7301794561433759|-0.2990608303408367|0.1082211919707392|0.6047221080512135|-0.2036556154489517|0.9478407502174377|0.2451988309621811|0|0|0|-1|-1|3
2021-04-22 22:29:23.435 +0100|142134.03004|-0.323638916015625|1.029586791992188|0.1914215087890625|142134.00508|-1.828446446334042|-2.432164537817502|-1.256870927506673|0.4328916668891907|-0.5370749235153198|-0.001581877004355192|-0.09824348986148834|0.1015596985816956|-0.05816006660461426|XArbitraryZVertical|-0.7255039080328879|-0.3013151948083857|0.113955920960459|0.6081672669563316|-0.2011491507291794|0.9511287808418274|0.2342935353517532|0|0|0|-1|-1|3
2021-04-22 22:29:23.455 +0100|142134.050001|-0.31390380859375|1.01324462890625|0.1997222900390625|142134.02504|-1.809836338218666|-2.424299527516971|-1.263204534496602|0.3976179361343384|-0.4348820149898529|-0.02402753196656704|-0.1152939349412918|0.09312278032302856|-0.001657366752624512|XArbitraryZVertical|-0.7223145947575255|-0.303877714106948|0.1187622195174915|0.6097669042251913|-0.1990217715501785|0.9530654549598694|0.2281600832939148|0|0|0|-1|-1|3
2021-04-22 22:29:23.475 +0100|142134.069961|-0.2968902587890625|1.049102783203125|0.2322845458984375|142134.045001|-1.79081390976293|-2.413172735245659|-1.268593005259453|0.418907105922699|-0.2545599937438965|-0.03585640341043472|-0.1246426999568939|0.06341373920440674|-0.03845500946044922|XArbitraryZVertical|-0.7193950640425811|-0.3058081915897794|0.1222643716759385|0.6115583744601968|-0.198126345872879|0.9546830654144287|0.2220958173274994|0|0|0|-1|-1|3
2021-04-22 22:29:23.495 +0100|142134.089922|-0.25250244140625|0.9971771240234375|0.2986907958984375|142134.064961|-1.773550811682811|-2.400024580504448|-1.274103998335596|0.3631053268909454|-0.08648336678743362|0.02343319542706013|-0.1142183691263199|0.06897509098052979|-0.003078550100326538|XArbitraryZVertical|-0.7168775923670457|-0.3064000762952495|0.1245891675271029|0.6137452848312103|-0.1974728405475616|0.9563087224960327|0.2155889719724655|0|0|0|-1|-1|3
2021-04-22 22:29:23.515 +0100|142134.109882|-0.2568359375|1.004531860351562|0.242095947265625|142134.084922|-1.756347267396225|-2.385301518436151|-1.280032140464575|0.3719045519828796|-0.1374849826097488|0.03258825466036797|-0.09616097807884216|0.08828526735305786|0.008511528372764587|XArbitraryZVertical|-0.7144497196264762|-0.3063118143500132|0.1265170537887253|0.6162209279263928|-0.1967313587665558|0.9580250978469849|0.2085306644439697|0|0|0|-1|-1|3
2021-04-22 22:29:23.535 +0100|142134.129843|-0.131317138671875|0.995819091796875|0.2545166015625|142134.104882|-1.74928220437533|-2.380884545322209|-1.2840337684981|0.1601573079824448|-0.06119196116924286|0.09146551042795181|-0.06091417372226715|0.03213781118392944|0.09243738651275635|XArbitraryZVertical|-0.7131750158065552|-0.306303921343283|0.1284129499937244|0.617308378787878|-0.1950061321258545|0.9591646194458008|0.2048813849687576|0|0|0|-1|-1|3
2021-04-22 22:29:23.555 +0100|142134.149803|-0.1460418701171875|0.771881103515625|0.1845550537109375|142134.124843|-1.741814206434959|-2.374443389350525|-1.287797663766198|0.1786601096391678|-0.177898496389389|-0.006937759928405285|-0.04400883615016937|0.06623625755310059|0.008682131767272949|XArbitraryZVertical|-0.7120062971608174|-0.3058714668442832|0.1296459570470051|0.618612803427524|-0.1938145309686661|0.9602224230766296|0.2010206431150436|0|0|0|-1|-1|3
2021-04-22 22:29:23.575 +0100|142134.169763|-0.26287841796875|0.7891998291015625|0.2613372802734375|142134.144803|-1.729747780961142|-2.369117354301729|-1.290070004083074|0.2790105938911438|-0.4315756261348724|-0.004206777084618807|0.07763625681400299|-0.02532297372817993|0.03731225430965424|XArbitraryZVertical|-0.7102413664074991|-0.3078444349933636|0.1322257915265717|0.6191166516565727|-0.1933587789535522|0.9608544707298279|0.198421984910965|0|0|0|-1|-1|3
2021-04-22 22:29:23.595 +0100|142134.189724|-0.28472900390625|0.83514404296875|0.28936767578125|142134.164763|-1.721183288948548|-2.369965358639345|-1.293523368711841|0.1441362202167511|-0.4659150540828705|0.1225203648209572|0.01463721692562103|-0.2003612518310547|0.01067297160625458|XArbitraryZVertical|-0.7084676084283172|-0.3101243660578327|0.1363056421242093|0.6191264675365465|-0.1908761411905289|0.961805522441864|0.1962069422006607|0|0|0|-1|-1|3
2021-04-22 22:29:23.615 +0100|142134.209684625|-0.2043914794921875|0.8289031982421875|0.2423248291015625|142134.184724|-1.726226650366603|-2.38325361587468|-1.294343758112753|-0.2289392501115799|-0.3466901183128357|0.01755488850176334|-0.09149619936943054|-0.1448148488998413|0.0766899585723877|XArbitraryZVertical|-0.7082406536226569|-0.312204234035847|0.1397206169666783|0.6175775147760368|-0.1877089887857437|0.962029755115509|0.1981526166200638|0|0|0|-1|-1|3
2021-04-22 22:29:23.635 +0100|142134.229645625|-0.207244873046875|0.860809326171875|0.2060089111328125|142134.204684625|-1.740586282318908|-2.401615031655015|-1.288181285170052|-0.4365151822566986|-0.1702059656381607|-0.1046235710382462|-0.08247457444667816|-0.1364007592201233|0.07309888303279877|XArbitraryZVertical|-0.7099398753952438|-0.3145716135296964|0.1398081453059492|0.6143971863519687|-0.1880330741405487|0.9603294730186462|0.2059398591518402|0|0|0|-1|-1|3
2021-04-22 22:29:23.655 +0100|142134.249605625|-0.263885498046875|0.9104156494140625|0.1597747802734375|142134.224645625|-1.754236677798914|-2.418865308998146|-1.280082975013916|-0.4237057864665985|-0.2416771650314331|-0.15903639793396|-0.0009915530681610107|-0.1250319480895996|0.03871536254882812|XArbitraryZVertical|-0.71188519652462|-0.3173463660017505|0.1391495209635613|0.6108586481488857|-0.1895905733108521|0.9580396413803101|0.214978501200676|0|0|0|-1|-1|3
2021-04-22 22:29:23.675 +0100|142134.269565625|-0.3016204833984375|1.00750732421875|0.2694854736328125|142134.244605625|-1.76569682797063|-2.435142723192608|-1.269990253828741|-0.4723579585552216|-0.2819953560829163|-0.2480678111314774|-0.0296972244977951|-0.08174610137939453|-0.04512634873390198|XArbitraryZVertical|-0.7138507639776439|-0.3211026285970762|0.1382324561287464|0.6067965474094476|-0.1923332512378693|0.9550979733467102|0.22537961602211|0|0|0|-1|-1|3
2021-04-22 22:29:23.695 +0100|142134.289526625|-0.2936859130859375|1.17950439453125|0.2997589111328125|142134.264565625|-1.772969411406664|-2.447967768305618|-1.261184944720319|-0.3172189891338348|-0.2839018106460571|-0.1562790423631668|-0.08114300668239594|-0.03230124711990356|-0.05653521418571472|XArbitraryZVertical|-0.7152613525867139|-0.3248757186966229|0.1378107749191623|0.6032125858694284|-0.1947968006134033|0.9524520635604858|0.2342860698699951|0|0|0|-1|-1|3
2021-04-22 22:29:23.715 +0100|142134.309486625|-0.252838134765625|1.150680541992188|0.307861328125|142134.284526625|-1.772403750212488|-2.451824267296976|-1.257310223364963|0.007004740182310343|-0.1414179801940918|-0.1303936541080475|-0.1064499169588089|0.1047658324241638|0.05223642289638519|XArbitraryZVertical|-0.7153989317306498|-0.3273292865323148|0.1381295711408934|0.6016479569292106|-0.1962385028600693|0.9512643218040466|0.2378801852464676|0|0|0|-1|-1|3
2021-04-22 22:29:23.735 +0100|142134.329447625|-0.26446533203125|1.082122802734375|0.3259124755859375|142134.304486625|-1.759301756697907|-2.442220586019729|-1.257616092336866|0.2768315076828003|-0.1698934137821198|-0.1545500308275223|-0.08293861150741577|0.2401238083839417|0.06862173974514008|XArbitraryZVertical|-0.7138751065227089|-0.3290337712004463|0.1387393422080791|0.6023874006945595|-0.1983264684677124|0.9513586163520813|0.2357617765665054|0|0|0|-1|-1|3
2021-04-22 22:29:23.755 +0100|142134.349407625|-0.247467041015625|1.063629150390625|0.36785888671875|142134.324447625|-1.734876607591613|-2.422491546366697|-1.261870270707539|0.5490635633468628|-0.1614993959665298|-0.1548723578453064|-0.05538946390151978|0.1772525906562805|0.07558131217956543|XArbitraryZVertical|-0.7107068531277201|-0.3305661454906748|0.1404534728465325|0.6048923733010461|-0.2002713829278946|0.9526606202125549|0.2287564128637314|0|0|0|-1|-1|3
2021-04-22 22:29:23.775 +0100|142134.369368625|-0.23577880859375|1.002532958984375|0.322052001953125|142134.344407625|-1.698111072324161|-2.389779866794478|-1.268757427300177|0.6444487571716309|-0.07595913857221603|-0.2040480673313141|-0.06029823422431946|0.1218823194503784|0.1233829110860825|XArbitraryZVertical|-0.706146602061177|-0.3316624257681817|0.1422739580840702|0.6091922790457552|-0.2031598389148712|0.9547319412231445|0.2172859758138657|0|0|0|-1|-1|3
2021-04-22 22:29:23.795 +0100|142134.389328625|-0.2382659912109375|1.012725830078125|0.3028717041015625|142134.364368625|-1.657700120586028|-2.351977966433642|-1.274490797264955|0.6325898170471191|-0.01178302709013224|-0.2473691999912262|-0.03552225232124329|0.09464937448501587|0.1535520553588867|XArbitraryZVertical|-0.7015387888984833|-0.3326273965722733|0.1432300765043151|0.6137488591428679|-0.2073364555835724|0.9564217329025269|0.2055953145027161|0|0|0|-1|-1|3
2021-04-22 22:29:23.815 +0100|142134.409288625|-0.233978271484375|0.995758056640625|0.2708740234375|142134.384328625|-1.617494998201162|-2.313520789832728|-1.279194876485456|0.4739305377006531|0.01000099163502455|-0.209832638502121|-0.02300064265727997|0.04168105125427246|0.1253227889537811|XArbitraryZVertical|-0.697169278277052|-0.333418952413262|0.1437538794476325|0.6181598929610925|-0.2117708772420883|0.9577847123146057|0.1944264024496078|0|0|0|-1|-1|3
2021-04-22 22:29:23.835 +0100|142134.429249625|-0.22149658203125|0.992095947265625|0.2433624267578125|142134.404288625|-1.587249868828262|-2.284007105942966|-1.281068796555|0.3301763534545898|0.03959984332323074|-0.2295139282941818|-0.02376376092433929|0.05197781324386597|0.1046024411916733|XArbitraryZVertical|-0.6940875251070442|-0.3342177452591661|0.1435016337743644|0.6212474198991366|-0.2160584330558777|0.958321750164032|0.1869179904460907|0|0|0|-1|-1|3
2021-04-22 22:29:23.854 +0100|142134.449209625|-0.2221221923828125|0.9755859375|0.279937744140625|142134.424249625|-1.563849698604933|-2.260524323336988|-1.281093587644021|0.1586606651544571|0.06102662533521652|-0.2034319937229156|-0.00843578577041626|0.03417903184890747|0.08355808258056641|XArbitraryZVertical|-0.6918505481838906|-0.3350103555700418|0.1426555754656778|0.6235065128723632|-0.2203696072101593|0.9583288431167603|0.1817782372236252|0|0|0|-1|-1|3
2021-04-22 22:29:23.874 +0100|142134.469170625|-0.241058349609375|0.9651641845703125|0.287261962890625|142134.444209625|-1.549632684175316|-2.246170746850985|-1.279177095167939|0.05207040160894394|0.02227869629859924|-0.2024426311254501|0.004815012216567993|0.02983009815216064|0.06735776364803314|XArbitraryZVertical|-0.6906126590588827|-0.3360450692726917|0.1414640258180155|0.6245925328663398|-0.2243887931108475|0.957779586315155|0.1797442734241486|0|0|0|-1|-1|3
2021-04-22 22:29:23.894 +0100|142134.489130625|-0.236785888671875|0.949432373046875|0.2703704833984375|142134.464170625|-1.539221540558809|-2.235355392845976|-1.276625085753425|0.03711006045341492|0.07405091822147369|-0.1775639057159424|0.0006740689277648926|0.01247012615203857|0.1077929735183716|XArbitraryZVertical|-0.6897805585097454|-0.3370606278810888|0.1400929241317175|0.6252736021494568|-0.2282434701919556|0.9570427536964417|0.178814172744751|0|0|0|-1|-1|3
2021-04-22 22:29:23.914 +0100|142134.509090625|-0.21307373046875|0.9527130126953125|0.249481201171875|142134.484130625|-1.529733698396827|-2.22416714935121|-1.274450857776422|0.06550402194261551|0.1342399120330811|-0.1716686487197876|-0.01155722141265869|0.01096659898757935|0.104775071144104|XArbitraryZVertical|-0.6890861555242304|-0.3375161142527062|0.1384422207015137|0.6261605513749761|-0.231881320476532|0.9564101099967957|0.1775137186050415|0|0|0|-1|-1|3
2021-04-22 22:29:23.934 +0100|142134.529051625|-0.20184326171875|0.91644287109375|0.210601806640625|142134.504090625|-1.516424347831165|-2.208001986404756|-1.273249278208732|0.1324317306280136|0.2068377882242203|-0.1662865877151489|0.005022555589675903|-0.01350796222686768|0.0928943008184433|XArbitraryZVertical|-0.688016612006927|-0.3374107139273977|0.1366264414566197|0.6277901184440235|-0.2356436997652054|0.9560585021972656|0.1744256913661957|0|0|0|-1|-1|3
2021-04-22 22:29:23.954 +0100|142134.549011625|-0.224639892578125|0.924957275390625|0.19976806640625|142134.524051625|-1.508632049574105|-2.197166295714571|-1.270774807904878|0.02705369889736176|0.1648633778095245|-0.2045625001192093|0.03252671658992767|-0.002373099327087402|0.06747554242610931|XArbitraryZVertical|-0.6875584297242029|-0.3374723673904842|0.1344740761285556|0.6287229729238335|-0.239435687661171|0.9553301334381104|0.1732483804225922|0|0|0|-1|-1|3
2021-04-22 22:29:23.974 +0100|142134.568972625|-0.1988677978515625|0.9292449951171875|0.2320709228515625|142134.544011625|-1.50786697043508|-2.193546517775823|-1.266935126101346|-0.04238749668002129|0.1950233578681946|-0.1768043786287308|0.03556597232818604|-0.04853332042694092|0.02619613707065582|XArbitraryZVertical|-0.6878504851639686|-0.3378184685493273|0.1321115266557078|0.6287186671224397|-0.2430395931005478|0.9541882872581482|0.1745192110538483|0|0|0|-1|-1|3
2021-04-22 22:29:23.994 +0100|142134.588932625|-0.208404541015625|0.96063232421875|0.2689208984375|142134.563972625|-1.508521760715563|-2.190381595731694|-1.26176906502232|-0.05255447700619698|0.2207217961549759|-0.2396331429481506|0.02466973662376404|-0.01731175184249878|0.02798177301883698|XArbitraryZVertical|-0.6884027131418914|-0.3382400643294644|0.1289881948682383|0.6285360983459232|-0.2476005405187607|0.9526298642158508|0.1766092777252197|0|0|0|-1|-1|3
2021-04-22 22:29:24.014 +0100|142134.608892625|-0.2217254638671875|0.9882965087890625|0.2467803955078125|142134.583932625|-1.505215515973636|-2.183888010113187|-1.257113515953689|0.02873164042830467|0.1687827557325363|-0.2158898264169693|0.0561993420124054|-0.02304214239120483|0.06128440797328949|XArbitraryZVertical|-0.6884601006071204|-0.3388161159870883|0.1261427923316595|0.6287402989693036|-0.2523661255836487|0.9512036442756653|0.1775473356246948|0|0|0|-1|-1|3
2021-04-22 22:29:24.034 +0100|142134.628853625|-0.2060546875|0.93572998046875|0.2125701904296875|142134.603892625|-1.499449609093149|-2.175415220587149|-1.253711023742925|0.04146697744727135|0.1787004172801971|-0.2508048415184021|0.0410689115524292|0.02697879076004028|0.09329794347286224|XArbitraryZVertical|-0.6881511615906309|-0.3392179360381035|0.1238325499658613|0.6293208928520708|-0.2565228343009949|0.9501482248306274|0.1772416532039642|0|0|0|-1|-1|3
2021-04-22 22:29:24.054 +0100|142134.648813625|-0.1906585693359375|0.900604248046875|0.1744384765625|142134.623853625|-1.491770216393262|-2.165452414314911|-1.250273905161179|0.02807936631143093|0.1323741525411606|-0.2524027526378632|0.04331293702125549|0.02317321300506592|0.05518506467342377|XArbitraryZVertical|-0.6875878262133734|-0.3398173107941532|0.1216011824428367|0.6300479339024642|-0.2609794139862061|0.949070930480957|0.1765056401491165|0|0|0|-1|-1|3
2021-04-22 22:29:24.074 +0100|142134.668774625|-0.198944091796875|0.8768310546875|0.15716552734375|142134.643813625|-1.487833353906598|-2.159642560354816|-1.245667432686717|-0.18040531873703|0.1012006253004074|-0.2688047885894775|0.06186765432357788|-0.01412266492843628|0.03142023086547852|XArbitraryZVertical|-0.6874266950870992|-0.3408092494314555|0.1192025522241582|0.6301463872481163|-0.2656334042549133|0.947609543800354|0.1774128079414368|0|0|0|-1|-1|3
2021-04-22 22:29:24.094 +0100|142134.688734625|-0.1989288330078125|0.894439697265625|0.1551971435546875|142134.663774625|-1.495458827905138|-2.166254962181429|-1.239255892042504|-0.243519514799118|0.01716191321611404|-0.238052561879158|0.08059057593345642|-0.0641181468963623|-0.02732527256011963|XArbitraryZVertical|-0.6885564112526438|-0.3423080308312051|0.1167924376463274|0.6285498626504992|-0.269478976726532|0.94554203748703|0.1825694441795349|0|0|0|-1|-1|3
2021-04-22 22:29:24.114 +0100|142134.708695625|-0.1839752197265625|0.90692138671875|0.1711273193359375|142134.683734625|-1.507704935013294|-2.178067521365542|-1.232325093891238|-0.3127656877040863|0.009262177161872387|-0.2419258654117584|0.06624299287796021|-0.05276048183441162|-0.03496325016021729|XArbitraryZVertical|-0.6902238767379816|-0.3439891231316022|0.1145570844037244|0.6262103028181633|-0.2726790010929108|0.9432634115219116|0.189475029706955|0|0|0|-1|-1|3
2021-04-22 22:29:24.134 +0100|142134.728655625|-0.2051239013671875|0.9327392578125|0.1402130126953125|142134.703695625|-1.519301963729847|-2.190058167731383|-1.225695241056467|-0.3168151080608368|-0.05948961526155472|-0.1880316436290741|0.08463239669799805|-0.05313235521316528|-0.03275048732757568|XArbitraryZVertical|-0.6917999654928489|-0.3458194038910927|0.1127234799575323|0.6237911034267347|-0.2754739224910736|0.9410412311553955|0.1963565051555634|0|0|0|-1|-1|3
2021-04-22 22:29:24.154 +0100|142134.748615625|-0.208221435546875|0.885894775390625|0.1132965087890625|142134.723655625|-1.530771486163415|-2.203074308161482|-1.220264330491672|-0.2712893784046173|-0.1239038109779358|-0.1513421535491943|0.08809441328048706|-0.01878011226654053|-0.03657473623752594|XArbitraryZVertical|-0.6932849794763835|-0.3476021179637202|0.1117387639973962|0.6213237867649731|-0.2770133018493652|0.939190149307251|0.2029425948858261|0|0|0|-1|-1|3
2021-04-22 22:29:24.174 +0100|142134.768576625|-0.2002105712890625|0.852386474609375|0.1019744873046875|142134.743615625|-1.540200643018911|-2.215057808134851|-1.216544892151389|-0.2948692440986633|-0.1526850163936615|-0.1143959537148476|0.06998598575592041|-0.01233887672424316|-0.0737147331237793|XArbitraryZVertical|-0.6944251843872693|-0.3492074117985787|0.1116594857923368|0.6191608537943022|-0.2773528099060059|0.9379064440727234|0.2083443105220795|0|0|0|-1|-1|3
2021-04-22 22:29:24.194 +0100|142134.788536625|-0.2151031494140625|0.9032745361328125|0.13543701171875|142134.763576625|-1.552310890506605|-2.229711799859493|-1.212369458974169|-0.3834865987300873|-0.1852144747972488|-0.08181439340114594|0.07196530699729919|-0.06787395477294922|-0.1179329454898834|XArbitraryZVertical|-0.6959281428334706|-0.3508203121238065|0.1115430135212499|0.6165771125430812|-0.2773637175559998|0.9364498257637024|0.2147817462682724|0|0|0|-1|-1|3
2021-04-22 22:29:24.214 +0100|142134.808497625|-0.2589111328125|1.02117919921875|0.1707305908203125|142134.783536625|-1.568630451909396|-2.249094257049484|-1.206710689623013|-0.4165024161338806|-0.2247997969388962|-0.06074142828583717|0.07736584544181824|-0.07736349105834961|-0.1106294095516205|XArbitraryZVertical|-0.6980165299323385|-0.3528348098766921|0.1112982250669347|0.6131015090107556|-0.2772711217403412|0.9344497323036194|0.2234389632940292|0|0|0|-1|-1|3
2021-04-22 22:29:24.234 +0100|142134.828457625|-0.2811431884765625|1.051315307617188|0.1761932373046875|142134.823457625|-1.579339788473177|-2.267434050912065|-1.203199611688133|0.1395151615142822|-0.1941690146923065|0.01215861365199089|0.007041215896606445|0.1069978475570679|-0.05944609642028809|XArbitraryZVertical|-0.6990848855313333|-0.3557741425152259|0.113205362779011|0.6098276855376662|-0.275641530752182|0.9331937432289124|0.2305898368358612|0|0|0|-1|-1|3
2021-04-22 22:29:24.254 +0100|142134.848417625|-0.289703369140625|1.042770385742188|0.2063446044921875||||||||||||||||||||||||3
2021-04-22 22:29:24.274 +0100|142134.868378625|-0.307464599609375|1.009109497070312|0.1902923583984375|142134.843417625|-1.568905631472447|-2.261231824755302|-1.208426921883372|0.2037177234888077|-0.1953364461660385|0.03874282166361809|-0.01037466526031494|0.113112211227417|-0.04510027170181274|XArbitraryZVertical|-0.6972789227849211|-0.355928214540095|0.1160473482857377|0.6112693487868517|-0.2733012735843658|0.9350594878196716|0.225765585899353|0|0|0|-1|-1|3
2021-04-22 22:29:24.294 +0100|142134.888338625|-0.31036376953125|1.029525756835938|0.2038726806640625|142134.863378625|-1.563019837698055|-2.259290611222582|-1.212633684020915|0.03337834030389786|-0.2032720893621445|0.05380237475037575|-0.02429845929145813|0.0983085036277771|-0.02305592596530914|XArbitraryZVertical|-0.6961045302041332|-0.3560973488455302|0.1186400236806606|0.6120113175636553|-0.2706995010375977|0.9365425109863281|0.2227336764335632|0|0|0|-1|-1|3
2021-04-22 22:29:24.314 +0100|142134.908299625|-0.3030548095703125|1.067062377929688|0.24090576171875|142134.883338625|-1.564153168282437|-2.263911383116058|-1.215065927410405|-0.05860930681228638|-0.1829409301280975|0.06582681089639664|-0.04205265641212463|0.0727546215057373|-0.03188134729862213|XArbitraryZVertical|-0.6958896505925358|-0.3563713759713925|0.120750893836557|0.6116832128817047|-0.2679141759872437|0.9373923540115356|0.2225259244441986|0|0|0|-1|-1|3
2021-04-22 22:29:24.334 +0100|142134.928259625|-0.296661376953125|1.09375|0.2626495361328125|142134.903299625|-1.568313317859833|-2.271497197701607|-1.216276298243743|-0.09556464850902557|-0.2030088603496552|0.0617634505033493|-0.04212850332260132|0.1009135246276855|-0.01073002815246582|XArbitraryZVertical|-0.6960981380773686|-0.3568718791254163|0.122541445292663|0.6107975126209431|-0.2653511762619019|0.9378132224082947|0.2238203138113022|0|0|0|-1|-1|3
2021-04-22 22:29:24.354 +0100|142134.948220625|-0.266876220703125|1.053268432617188|0.305999755859375|142134.923259625|-1.573748579911077|-2.280691257849273|-1.215960730619919|-0.2295700311660767|-0.2486433535814285|-0.01042170636355877|-0.04002112150192261|0.1426795721054077|0.01667618751525879|XArbitraryZVertical|-0.6965222054461829|-0.3578805161082151|0.1239745013657693|0.6094331936790988|-0.2635065317153931|0.9377036094665527|0.2264432907104492|0|0|0|-1|-1|3
2021-04-22 22:29:24.373 +0100|142134.968180625|-0.3254241943359375|1.055709838867188|0.18292236328125|142134.943220625|-1.586388154406548|-2.297655648309455|-1.209733641362087|-0.5118300914764404|-0.2605212926864624|-0.1781448423862457|-0.02611440420150757|0.1451968550682068|0.03250262141227722|XArbitraryZVertical|-0.6981444722722661|-0.3605169197221811|0.1238880023536552|0.6060310796745391|-0.2639854550361633|0.9355219602584839|0.2347563058137894|0|0|0|-1|-1|3
2021-04-22 22:29:24.393 +0100|142134.988140625|-0.405975341796875|0.8652496337890625|0.1736602783203125|142134.963180625|-1.602466045272313|-2.317723085501305|-1.196319036988752|-0.81399005651474|-0.2050614058971405|-0.4688901901245117|0.005421876907348633|0.1235611438751221|0.06949910521507263|XArbitraryZVertical|-0.7007480333540188|-0.3649759636628097|0.1214224093513652|0.6008339569730238|-0.268406867980957|0.9306989312171936|0.2485105246305466|0|0|0|-1|-1|3
2021-04-22 22:29:24.413 +0100|142135.008101625|-0.6656036376953125|0.6053466796875|0.35870361328125|142134.983140625|-1.608867197486235|-2.326157026745331|-1.174380823561272|-0.8315455913543701|-0.08463022857904434|-0.9713448882102966|-0.08535370230674744|0.1131935715675354|-0.1567750871181488|XArbitraryZVertical|-0.7029528527500695|-0.3717635765914415|0.1149146557520813|0.595352001563101|-0.2811011970043182|0.9224509596824646|0.2647017538547516|0|0|0|-1|-1|3
2021-04-22 22:29:24.434 +0100|142135.028061625|-0.9924774169921875|0.508087158203125|0.039703369140625|142135.003101625|-1.596417637811451|-2.317341051285385|-1.144298756350921|-0.5039395093917847|-0.1462313383817673|-1.617492079734802|-0.1112248003482819|-0.1265152096748352|0.021402508020401|XArbitraryZVertical|-0.7030286386151811|-0.3823858450502512|0.1051177052895396|0.5903238797418947|-0.3036614656448364|0.9104202389717102|0.2809363901615143|0|0|0|-1|-1|3
2021-04-22 22:29:24.453 +0100|142135.048022625|-0.701141357421875|0.113525390625|0.1067962646484375|142135.023061625|-1.537423773773916|-2.264824478637747|-1.115547124354479|0.4659614562988281|0.08773194998502731|-2.14704704284668|-0.4604702591896057|-0.2828716039657593|-0.0618024468421936|XArbitraryZVertical|-0.6955627127094981|-0.3959958025408894|0.09411242674859407|0.5920495867868688|-0.3379760980606079|0.8981514573097229|0.281240314245224|0|0|0|-1|-1|3
2021-04-22 22:29:24.473 +0100|142135.067982625|-0.3089447021484375|0.0846710205078125|0.1282501220703125|142135.043022625|-1.434297248002512|-2.164282636231845|-1.095996950959003|1.801610589027405|0.7993707656860352|-2.218319416046143|-0.5782451629638672|-0.4987747669219971|-0.1897499561309814|XArbitraryZVertical|-0.6796686200178275|-0.4072899596772178|0.08334495216986867|0.6043337210643276|-0.3789842128753662|0.8893844485282898|0.2556690871715546|0|0|0|-1|-1|3
2021-04-22 22:29:24.493 +0100|142135.087942625|-0.0121002197265625|0.5902252197265625|0.027740478515625|142135.062982625|-1.307328804356301|-2.034867849714578|-1.074695495589768|2.351046562194824|0.7300862073898315|-2.562835216522217|-0.166688472032547|-0.8213854432106018|-0.1041054427623749|XArbitraryZVertical|-0.6579927978052882|-0.4166205412672596|0.07115536430235288|0.6232254190676179|-0.4256576001644135|0.8794452548027039|0.2130543887615204|0|0|0|-1|-1|3
2021-04-22 22:29:24.513 +0100|142135.107903625|0.6450653076171875|1.204421997070312|-0.596832275390625|142135.082942625|-1.165737284117258|-1.900330935695199|-1.043713553245408|2.682225465774536|0.4394692778587341|-3.096524477005005|0.2322508692741394|-0.6870015263557434|-0.02450050413608551|XArbitraryZVertical|-0.6302039804519635|-0.4292218095966174|0.06107984237083312|0.6441125227411659|-0.4759487509727478|0.8642781376838684|0.162776842713356|0|0|0|-1|-1|3
2021-04-22 22:29:24.533 +0100|142135.127863625|0.96844482421875|1.747238159179688|-0.9958038330078125|142135.102903625|-1.058602863454935|-1.804659804256064|-0.9860748624777064|0.9989498853683472|-0.07149359583854675|-3.96243953704834|0.6582341194152832|-0.08711600303649902|-0.1618153005838394|XArbitraryZVertical|-0.6022657778802644|-0.4485885615095744|0.04493353034230607|0.6588059245951681|-0.5369417667388916|0.8338658809661865|0.1279115229845047|0|0|0|-1|-1|3
2021-04-22 22:29:24.553 +0100|142135.147824625|0.1862030029296875|2.407211303710938|-0.8950958251953125|142135.122863625|-0.9779417436046416|-1.757115003338078|-0.9162966924241901|3.269055843353271|-2.091075897216797|-3.649937868118286|1.411428689956665|0.5563178062438965|-0.9865772724151611|XArbitraryZVertical|-0.5735225576113017|-0.4769237077159145|0.03169780908108656|0.6652900986776834|-0.5982264280319214|0.7933526039123535|0.1127686947584152|0|0|0|-1|-1|3
2021-04-22 22:29:24.573 +0100|142135.167784625|-0.40948486328125|2.488998413085938|-1.493331909179688|142135.142824625|-0.8100037213780613|-1.678151034772583|-0.883143650008925|6.249093055725098|-2.924898624420166|-1.099164485931396|1.487120032310486|1.187696218490601|-0.9657289981842041|XArbitraryZVertical|-0.5274834441393825|-0.5057333162173112|0.05423146521722134|0.6804808168454051|-0.6310712695121765|0.7727380394935608|0.06800994277000427|0|0|0|-1|-1|3
2021-04-22 22:29:24.593 +0100|142135.187745625|-0.7528076171875|3.053634643554688|-1.733261108398438|142135.162784625|-0.6190932797165755|-1.588387721691073|-0.8805421249208294|5.191672325134277|-2.88190221786499|-0.2937107682228088|0.5835955739021301|1.705829620361328|-1.13529896736145|XArbitraryZVertical|-0.4810676969512691|-0.5236163628292788|0.09640806026668054|0.6964950147911827|-0.6366347670555115|0.771084189414978|0.01120044849812984|0|0|0|-1|-1|3
2021-04-22 22:29:24.613 +0100|142135.2077055|-0.8941192626953125|3.434280395507812|-1.9013671875|142135.182745625|-0.488325452483848|-1.541951663554055|-0.8798555980096281|3.431429624557495|-2.443408489227295|0.443421334028244|0.174031138420105|1.767485380172729|-1.50693416595459|XArbitraryZVertical|-0.4488062673497267|-0.5379436696123316|0.1310852099841375|0.7014317679949441|-0.6369978189468384|0.770646870136261|-0.0183790847659111|0|0|0|-1|-1|3
2021-04-22 22:29:24.633 +0100|142135.2276655|-0.565643310546875|3.173019409179688|-1.886306762695312|142135.2027055|-0.3806179776530207|-1.498741175382104|-0.9012302400230497|3.464739322662354|-1.563657164573669|2.076198101043701|-0.2000710964202881|2.419675350189209|-1.72576367855072|XArbitraryZVertical|-0.4290858269021565|-0.5417973092811802|0.1666450732562881|0.7032571384193029|-0.6190356016159058|0.784091055393219|-0.04468205943703651|0|0|0|-1|-1|3
2021-04-22 22:29:24.653 +0100|142135.2476265|-0.08758544921875|2.727783203125|-1.885330200195312|142135.2226655|-0.2550129065784251|-1.417638405682444|-0.9464909491515242|3.477045774459839|-0.3176179528236389|3.162739515304565|-0.2834681272506714|2.604295969009399|-1.815500974655151|XArbitraryZVertical|-0.4168626912022014|-0.5306950928981372|0.2083516820018307|0.7079392416974608|-0.5776916742324829|0.8113693594932556|-0.08917643129825592|0|0|0|-1|-1|3
2021-04-22 22:29:24.673 +0100|142135.2675865|0.1177520751953125|1.226806640625|-1.957916259765625|142135.2426265|-0.1169649222326872|-1.296370974978747|-1.000873593712711|2.840964317321777|1.047133803367615|3.749040603637695|0.07418721914291382|2.26122260093689|-1.724873423576355|XArbitraryZVertical|-0.4128012062479011|-0.5064439519094122|0.2483041365253913|0.7151607154521167|-0.5193771719932556|0.8419426679611206|-0.1462193727493286|0|0|0|-1|-1|3
2021-04-22 22:29:24.693 +0100|142135.2875475|0.1822662353515625|-0.6033935546875|-1.9150390625|142135.2625865|0.01948190974246743|-1.144548880751673|-1.060581458955497|1.439746022224426|2.674894332885742|4.206276416778564|0.4316527545452118|1.567271947860718|-1.715821027755737|XArbitraryZVertical|-0.4206274808489099|-0.4712892375014794|0.280956147972004|0.7225114906721132|-0.4446680247783661|0.8726395964622498|-0.2019179612398148|0|0|0|-1|-1|3
2021-04-22 22:29:24.713 +0100|142135.3075075|-0.686004638671875|0.1400299072265625|-0.15264892578125|142135.2825475|0.0841172608154547|-1.014744084983372|-1.133746287783743|-2.599734306335449|4.58992862701416|3.451921463012695|0.5101064443588257|-0.1710335612297058|-1.799927711486816|XArbitraryZVertical|-0.4516992759257398|-0.4292541903553995|0.2916874610823908|0.7256908905580191|-0.3595016896724701|0.9060042500495911|-0.2234172075986862|0|0|0|-1|-1|3
2021-04-22 22:29:24.733 +0100|142135.3274685|-1.653152465820312|1.886642456054688|3.364501953125|142135.3025075|-0.02363281196321924|-1.01553785434509|-1.248700023430429|-6.409998893737793|5.063380241394043|4.844611644744873|0.3810590803623199|-1.708796858787537|-1.551460266113281|XArbitraryZVertical|-0.5154414131750714|-0.3884350607112576|0.2758374246517944|0.7122866280959506|-0.2689981460571289|0.948573887348175|-0.1668767035007477|0|0|0|-1|-1|3
2021-04-22 22:29:24.753 +0100|142135.3474285|-2.811904907226562|0.203643798828125|7.537124633789062|142135.3224685|-0.1635861896674113|-1.044958007384008|-1.425682366380214|-5.504027843475342|5.637572765350342|8.512004852294922|-0.8672691583633423|-0.3564935326576233|0.7662949562072754|XArbitraryZVertical|-0.5956832569086035|-0.3299541292605025|0.2717049878337665|0.68005022659327|-0.1250705420970917|0.9894894361495972|-0.07258345931768417|0|0|0|-1|-1|3
2021-04-22 22:29:24.773 +0100|142135.3673885|-4.31298828125|-0.0966339111328125|3.2869873046875|142135.3424285|-2.995605305054168|2.507588233177347|-1.502604873824983|-7.129998683929443|4.35881519317627|7.99868106842041|-1.983129024505615|1.066014409065247|4.142566680908203|XArbitraryZVertical|-0.6770216283936885|-0.2628516664588966|0.2744991618370489|0.6302389049677805|0.04036504775285721|0.9976758360862732|0.05489856749773026|0|0|0|-1|-1|3
2021-04-22 22:29:24.792 +0100|142135.3873495|-0.079254150390625|5.1949462890625|-1.031051635742188|142135.3623885|3.098575789347119|2.468704099755239|-1.278135224525604|-15.08446979522705|16.25442504882812|8.19017219543457|-3.421934366226196|-1.844228863716125|8.794160842895508|XArbitraryZVertical|-0.7617108959625507|-0.1805666910935465|0.2528123073516919|0.5685756737832219|0.1798081248998642|0.9574795365333557|0.2256156355142593|0|0|0|-1|-1|3
2021-04-22 22:29:24.813 +0100|142135.4073095|-5.175323486328125|2.0286865234375|-2.898178100585938|142135.3823495|-3.085958793302961|2.719566552982619|-0.7913681770283287|-23.32358932495117|2.797935009002686|12.61990070343018|-3.473496437072754|0.7747524976730347|-3.006772518157959|XArbitraryZVertical|-0.8996718394909631|-0.1057943571783733|0.2036748710504718|0.3713689029753675|0.2879036366939545|0.7113155722618103|0.6412037014961243|0|0|0|-1|-1|3
2021-04-22 22:29:24.833 +0100|142135.4272705|-0.859527587890625|-2.220474243164062|-0.12213134765625|142135.4023095|3.131466380952165|2.693753608971737|-0.4112268930438852|-9.574380874633789|4.493698120117188|6.993301391601562|-1.733588695526123|4.499450206756592|-1.452656030654907|XArbitraryZVertical|-0.9547137416172561|-0.04050274853780084|0.2163649725743076|0.2001686306792159|0.3969184756278992|0.399734228849411|0.8262376189231873|0|0|0|-1|-1|3
2021-04-22 22:29:24.852 +0100|142135.4472305|-1.164566040039062|1.204055786132812|0.065032958984375|142135.4222705|3.116778350962232|2.769643733977718|-0.3392674982405033|4.33913516998291|1.960737705230713|0.6608867049217224|-4.989795684814453|0.01157835125923157|-3.897956371307373|XArbitraryZVertical|-0.9689635125962127|-0.01919550224538805|0.1801778816222817|0.1681586660306371|0.3427157998085022|0.3327964246273041|0.8785175085067749|0|0|0|-1|-1|3
2021-04-22 22:29:24.873 +0100|142135.4671905|-1.134857177734375|1.300445556640625|0.46875|142135.4422305|3.06922139963155|2.734398653779415|-0.4637552071495974|6.389012336730957|-3.414149045944214|-2.393808841705322|-0.9464446306228638|-1.949645042419434|-0.6787942051887512|XArbitraryZVertical|-0.9541922227035018|-0.01195240766731694|0.1885111141926517|0.2320305582627179|0.3542050421237946|0.447309821844101|0.8212513327598572|0|0|0|-1|-1|3
2021-04-22 22:29:24.892 +0100|142135.4871515|-0.450958251953125|0.912109375|0.954437255859375|142135.4621905|3.089410792588446|2.675526521808898|-0.6037338954365102|6.376334190368652|-3.155766248703003|-3.918103456497192|-1.656892776489258|0.9172186851501465|-0.6648771166801453|XArbitraryZVertical|-0.9304507444243024|-0.04439768114631944|0.2128663621320552|0.2949208781617568|0.3699357211589813|0.5677202343940735|0.7354195117950439|0|0|0|-1|-1|3
2021-04-22 22:29:24.912 +0100|142135.5071115|-0.0783233642578125|0.749053955078125|0.9900970458984375|142135.4821515|3.089870539165326|2.620374141829085|-0.7603352092010958|7.038871288299561|-2.434361219406128|-3.644657850265503|-1.342207670211792|0.507795512676239|0.07850772142410278|XArbitraryZVertical|-0.8994189895831285|-0.07238178953131028|0.2299210508549231|0.364613262268947|0.3608079850673676|0.689164400100708|0.6283872723579407|0|0|0|-1|-1|3
2021-04-22 22:29:24.932 +0100|142135.5270725|0.10321044921875|0.51470947265625|1.164306640625|142135.5021115|3.075934657093077|2.565925027291613|-0.910551840854104|6.300431251525879|-1.937336564064026|-3.458210229873657|-0.6610008478164673|0.08845305442810059|0.3960304856300354|XArbitraryZVertical|-0.8648242589674559|-0.09648885383563938|0.2409838639300477|0.4297623407781982|0.3338828384876251|0.7898423075675964|0.5144621729850769|0|0|0|-1|-1|3
2021-04-22 22:29:24.952 +0100|142135.5470325|-0.0746612548828125|0.7165069580078125|1.03216552734375|142135.5220725|3.046101364494011|2.505530898492759|-1.052073351012044|6.247085571289062|-1.925383925437927|-3.186791896820068|-0.306863933801651|-0.193511426448822|0.6545723080635071|XArbitraryZVertical|-0.8279941093117125|-0.1176240772988297|0.2473505857586428|0.489293475586268|0.2945042550563812|0.8684530258178711|0.3988193273544312|0|0|0|-1|-1|3
2021-04-22 22:29:24.972 +0100|142135.5669935|-0.388824462890625|0.8479766845703125|0.6366119384765625|142135.5420325|3.001460582682745|2.409235325088515|-1.174695543435116|4.085024833679199|-3.689002275466919|-3.055209636688232|-0.1617189645767212|-0.3812825083732605|0.8627452254295349|XArbitraryZVertical|-0.7892101431219591|-0.1435158562351537|0.2610907587774982|0.5370122866351457|0.2579714059829712|0.9225724339485168|0.2868989109992981|0|0|0|-1|-1|3
2021-04-22 22:29:24.992 +0100|142135.5869535|-0.3531951904296875|1.02734375|0.3247528076171875|142135.5619935|3.01785054596141|2.349639638557096|-1.257061751278883|1.68010151386261|-3.438971281051636|-3.002037525177002|-0.3783242702484131|-0.2050178647041321|0.7600661516189575|XArbitraryZVertical|-0.7588946461949463|-0.1802016484006937|0.2778591027253419|0.5607144117445424|0.2196482419967651|0.9511876702308655|0.2167874425649643|0|0|0|-1|-1|3
2021-04-22 22:29:25.012 +0100|142135.6069135|-0.135498046875|1.0557861328125|0.56854248046875|142135.5819535|3.121616578992605|2.395279184822564|-1.312031246825806|0.442017525434494|-2.051270484924316|-2.920414686203003|-0.598382830619812|-0.05990773439407349|0.3217887282371521|XArbitraryZVertical|-0.7400789396108388|-0.2149855158113272|0.2831978104607042|0.5708444161501206|0.1737309098243713|0.9667066931724548|0.1878712177276611|0|0|0|-1|-1|3
2021-04-22 22:29:25.032 +0100|142135.6268745|0.0133209228515625|0.899383544921875|0.5066680908203125|142135.6019135|-2.98411059325512|2.534888606959074|-1.347634479940844|-0.4700414538383484|-1.323188781738281|-2.542574167251587|-0.422907829284668|0.07151973247528076|0.1774824857711792|XArbitraryZVertical|-0.7287929467445599|-0.2444781433640504|0.2795515988295851|0.5752759104710475|0.1261857002973557|0.9752025604248047|0.1818174421787262|0|0|0|-1|-1|3
2021-04-22 22:29:25.052 +0100|142135.6468345|0.1247100830078125|1.039566040039062|0.21197509765625|142135.6218745|-2.744777915392461|2.746710776471887|-1.352251173751117|-1.554764032363892|-0.8861686587333679|-2.32646632194519|-0.1773396730422974|0.05241149663925171|0.3697763681411743|XArbitraryZVertical|-0.7256487008854123|-0.2711025884010179|0.2709535376694352|0.5714207820742028|0.08340685814619064|0.9762139320373535|0.2001253068447113|0|0|0|-1|-1|3
2021-04-22 22:29:25.072 +0100|142135.6667955|0.2362823486328125|1.346099853515625|0.23565673828125|142135.6418345|-2.506441616388607|2.966801648815628|-1.330179974169308|-2.090183019638062|-0.246117502450943|-2.284343719482422|-0.000822070986032486|-0.08522039651870728|0.2300519794225693|XArbitraryZVertical|-0.7278413666765682|-0.2959432895187653|0.2572185004391713|0.562586259126539|0.04144127294421196|0.9711912870407104|0.2346709668636322|0|0|0|-1|-1|3
2021-04-22 22:29:25.092 +0100|142135.6867555|0.23681640625|1.584747314453125|0.700653076171875|142135.6617955|-2.316721798771342|-3.130354040376226|-1.294852453789302|-1.622732996940613|0.447028636932373|-2.205470323562622|0.161311149597168|0.1539049744606018|-0.120597243309021|XArbitraryZVertical|-0.732101737172029|-0.3166170724700656|0.2376517681887822|0.5543486702033464|-0.003061961615458131|0.9621684551239014|0.272438645362854|0|0|0|-1|-1|3
2021-04-22 22:29:25.112 +0100|142135.7067165|0.2068634033203125|1.337417602539062|0.347442626953125|142135.6817555|-2.186272877197675|-2.993578288440086|-1.264663548400782|-1.514727354049683|0.668399453163147|-1.766487121582031|0.2907068133354187|0.4626006484031677|0.1027866005897522|XArbitraryZVertical|-0.7344938044223908|-0.330995377727572|0.2179850487919928|0.5508569868376459|-0.04444489628076553|0.9535061717033386|0.298078179359436|0|0|0|-1|-1|3
2021-04-22 22:29:25.132 +0100|142135.7266765|0.2774505615234375|1.1812744140625|0.32049560546875|142135.7017165|-2.106529644009005|-2.902023108737911|-1.223744099101844|-1.676722168922424|0.9710717797279358|-1.572308421134949|0.3045232594013214|0.6352124214172363|0.3351757526397705|XArbitraryZVertical|-0.7402375556182843|-0.3424255225098467|0.1971323083545554|0.5439964112036922|-0.08070703595876694|0.9403794407844543|0.3304137587547302|0|0|0|-1|-1|3
2021-04-22 22:29:25.152 +0100|142135.7466365|0.340057373046875|1.215362548828125|0.5745086669921875|142135.7216765|-2.046830996056785|-2.824357983207579|-1.187990973027665|-1.689200162887573|1.189310550689697|-1.467716336250305|0.3357865214347839|0.3359596729278564|-0.03632748126983643|XArbitraryZVertical|-0.7447549493981429|-0.3504044758647333|0.1758563549067404|0.5400291145567944|-0.1165174543857574|0.9276204109191895|0.3548864722251892|0|0|0|-1|-1|3
2021-04-22 22:29:25.172 +0100|142135.7665975|0.35113525390625|1.400146484375|0.60009765625|142135.7416365|-2.008092586022598|-2.762136326035447|-1.147158239166924|-1.519928455352783|1.448710560798645|-1.382982730865479|0.4436372518539429|0.2353575825691223|-0.01365762948989868|XArbitraryZVertical|-0.7508644772208543|-0.3565412000514401|0.1524696229618596|0.5346344462465201|-0.1522703617811203|0.9115994572639465|0.3818381726741791|0|0|0|-1|-1|3
2021-04-22 22:29:25.192 +0100|142135.7865575|0.248046875|1.12713623046875|0.5576629638671875|142135.7615975|-1.981071543096008|-2.708368333841816|-1.110960905396426|-1.328268766403198|1.441865205764771|-1.052844762802124|0.5436074137687683|0.3771589398384094|0.2167679667472839|XArbitraryZVertical|-0.7561089530753735|-0.3601386304741214|0.1296411631822365|0.5308414644214854|-0.1863073408603668|0.8961255550384521|0.4028011560440063|0|0|0|-1|-1|3
2021-04-22 22:29:25.212 +0100|142135.8065185|0.1697540283203125|0.837646484375|0.462554931640625|142135.7815575|-1.967651284803302|-2.669319867177715|-1.083163961381915|-0.8634885549545288|1.33334219455719|-0.704751193523407|0.5447314381599426|0.4929131865501404|0.078937828540802|XArbitraryZVertical|-0.7604622746754645|-0.3610006954689385|0.1106632022362692|0.5283271080472128|-0.213142529129982|0.8834446668624878|0.4172487556934357|0|0|0|-1|-1|3
2021-04-22 22:29:25.232 +0100|142135.8264785|0.095550537109375|0.929656982421875|0.4388885498046875|142135.8015185|-1.960844190908006|-2.636031685681083|-1.060667970353225|-1.039095759391785|1.426015973091125|-0.6550850868225098|0.4528932869434357|0.1792891025543213|0.1479144394397736|XArbitraryZVertical|-0.7642692998271228|-0.3598545197826955|0.093403425971277|0.5269468170097246|-0.2364776432514191|0.8726818561553955|0.4272056818008423|0|0|0|-1|-1|3
2021-04-22 22:29:25.252 +0100|142135.8464385|0.034210205078125|1.2174072265625|0.4799041748046875|142135.8214785|-1.965149913675033|-2.610344044683899|-1.03827013876808|-0.9676146507263184|1.503704428672791|-0.2350946664810181|0.4148050844669342|-0.05809116363525391|-0.02324575185775757|XArbitraryZVertical|-0.7692563002157373|-0.3565293101246601|0.07602060840476801|0.5247406463741616|-0.2572121918201447|0.8615272641181946|0.4377368092536926|0|0|0|-1|-1|3
2021-04-22 22:29:25.272 +0100|142135.8663995|0.0310211181640625|1.07330322265625|0.4610748291015625|142135.8414385|-1.977446786635532|-2.590290762316301|-1.024447579379538|-0.4931370615959167|1.535943865776062|0.04306797310709953|0.3399142324924469|0.1766545176506042|0.02025258541107178|XArbitraryZVertical|-0.7739646588367466|-0.3496790754848996|0.06109899012052201|0.5243761534323473|-0.2721498310565948|0.8544272780418396|0.4425934851169586|0|0|0|-1|-1|3
2021-04-22 22:29:25.292 +0100|142135.8863595|-0.0599517822265625|1.132049560546875|0.356048583984375|142135.8613995|-1.983810080750698|-2.56699009360797|-1.024195619076349|0.3753911256790161|1.311572790145874|0.2087451815605164|0.3156620860099792|0.3525055646896362|0.0292336642742157|XArbitraryZVertical|-0.7757455710417026|-0.3411383659952854|0.05032438108210834|0.5284987991614056|-0.2825045883655548|0.8542963862419128|0.4363131523132324|0|0|0|-1|-1|3
2021-04-22 22:29:25.312 +0100|142135.9063205|-0.1700439453125|1.308364868164062|0.3025665283203125|142135.8813595|-1.975088169482472|-2.536104924161482|-1.03973679299243|1.126628398895264|1.073961019515991|0.2909523248672485|0.3081336319446564|0.1873197555541992|0.0386502742767334|XArbitraryZVertical|-0.773026157248956|-0.3326220660965842|0.04517358869012011|0.5382867604432049|-0.2882513701915741|0.8622709512710571|0.4164137542247772|0|0|0|-1|-1|3
2021-04-22 22:29:25.331 +0100|142135.9262805|-0.202972412109375|1.242645263671875|0.385284423828125|142135.9013205|-1.952932494739504|-2.496112695466119|-1.067296986644468|1.660850167274475|1.034769177436829|0.4450518786907196|0.1971200704574585|0.309052050113678|-0.06024032831192017|XArbitraryZVertical|-0.7668348465066842|-0.3235353715547309|0.04388788064222551|0.5525967941056213|-0.2902597188949585|0.8758994936943054|0.3854216337203979|0|0|0|-1|-1|3
2021-04-22 22:29:25.351 +0100|142135.9462415|-0.1417083740234375|1.259796142578125|0.2764434814453125|142135.9212805|-1.922179374633648|-2.448065820964409|-1.100895419775375|1.973610162734985|1.082894206047058|0.4755707383155823|0.1018612086772919|0.4172092080116272|-0.03762161731719971|XArbitraryZVertical|-0.7589265291433653|-0.3132580408780268|0.04423053676035318|0.5691605088965674|-0.2894527614116669|0.8916131854057312|0.3482001423835754|0|0|0|-1|-1|3
2021-04-22 22:29:25.371 +0100|142135.9662015|-0.028717041015625|1.284988403320312|0.1633148193359375|142135.9412415|-1.876804701591529|-2.383163477087193|-1.136277231101853|1.871293663978577|1.33096718788147|0.3799757659435272|0.09552326798439026|0.3323070406913757|0.07867062091827393|XArbitraryZVertical|-0.7493305226653597|-0.3021591476907747|0.0437502717396679|0.5876135291610035|-0.2895387709140778|0.9070726037025452|0.3055927753448486|0|0|0|-1|-1|3
2021-04-22 22:29:25.391 +0100|142135.9861615|0.075469970703125|1.133392333984375|-0.0368804931640625|142135.9612015|-1.824717801593124|-2.307498579892988|-1.166059114475831|1.778022408485413|1.398241877555847|0.2697289884090424|0.1775613129138947|0.3479449152946472|-0.02560541033744812|XArbitraryZVertical|-0.7401451993012096|-0.2906281297386327|0.04054492169746578|0.6050427132570738|-0.2916665971279144|0.919205904006958|0.2645592391490936|0|0|0|-1|-1|3
2021-04-22 22:29:25.412 +0100|142136.0061225|0.098724365234375|1.071640014648438|-0.0590972900390625|142135.9811615|-1.776920818854456|-2.236935322226608|-1.187544829430425|0.8288982510566711|1.268964529037476|0.176115408539772|0.3003128468990326|0.3470214009284973|-0.07604679465293884|XArbitraryZVertical|-0.7327733217140004|-0.2803247636947196|0.03619265156245548|0.618992437273378|-0.2939957976341248|0.9274536967277527|0.2310774326324463|0|0|0|-1|-1|3
2021-04-22 22:29:25.431 +0100|142136.0260825|0.11065673828125|1.15472412109375|0.055908203125|142136.0011225|-1.768718868595542|-2.206922988222062|-1.195038164628824|0.07021182030439377|0.9376112818717957|0.2387707233428955|0.384797990322113|0.1559517979621887|-0.3194247484207153|XArbitraryZVertical|-0.7315502817239677|-0.271739261066309|0.03023553692411382|0.6245621924002063|-0.2951985001564026|0.930229663848877|0.2180160880088806|0|0|0|-1|-1|3
2021-04-22 22:29:25.451 +0100|142136.0460435|0.0654296875|1.159347534179688|0.05548095703125|142136.0210825|-1.777180995402372|-2.196343455068269|-1.196512932281797|-0.2892103493213654|0.889226496219635|0.05549072846770287|0.3942003548145294|0.1818552613258362|-0.2124283015727997|XArbitraryZVertical|-0.7327172933460898|-0.2648852291797907|0.02420525836954978|0.6263989081396262|-0.2963764071464539|0.9307698607444763|0.2140776365995407|0|0|0|-1|-1|3
2021-04-22 22:29:25.471 +0100|142136.0660035|0.0061187744140625|1.129837036132812|0.03704833984375|142136.0410435|-1.789550392684872|-2.193013558374465|-1.193652587739441|-0.2402001768350601|0.5672198534011841|0.0003752803895622492|0.4081511497497559|0.2132085561752319|-0.1534052044153214|XArbitraryZVertical|-0.7345948097620887|-0.2601739380126085|0.01816341690831471|0.6263786403208146|-0.2992492914199829|0.9297202825546265|0.2146400213241577|0|0|0|-1|-1|3
2021-04-22 22:29:25.491 +0100|142136.0859635|0.0224151611328125|0.980499267578125|-0.024932861328125|142136.0610035|-1.798114222897676|-2.192898614402895|-1.19138217747812|-0.1223117411136627|0.2602866888046265|-0.01553630828857422|0.3444607257843018|0.2329984903335571|-0.1686690002679825|XArbitraryZVertical|-0.7358798733648174|-0.2576788243416407|0.01469093697965471|0.6259925884739908|-0.3009885251522064|0.9288817644119263|0.2158351242542267|0|0|0|-1|-1|3
2021-04-22 22:29:25.511 +0100|142136.1059245|0.054473876953125|0.815704345703125|-0.1073455810546875|142136.0809635|-1.796076774949646|-2.188430961209162|-1.190823984967073|0.1420047134160995|-0.004344978369772434|-0.0506792925298214|0.3080941438674927|0.1686911582946777|-0.1874128878116608|XArbitraryZVertical|-0.7356921278588631|-0.2571988549779219|0.01350133716737189|0.6264372027235435|-0.3023722171783447|0.9286748766899109|0.2147883176803589|0|0|0|-1|-1|3
2021-04-22 22:29:25.531 +0100|142136.1258845|0.056365966796875|0.6479339599609375|-0.1753387451171875|142136.1009245|-1.783147982173467|-2.178462545604915|-1.193229398971003|0.3570568859577179|-0.2335963845252991|-0.03171439096331596|0.3292443156242371|0.008271098136901855|-0.2687290906906128|XArbitraryZVertical|-0.7339165489243538|-0.2580897313189805|0.01468927546485336|0.6281245880224988|-0.3026635944843292|0.929564356803894|0.2104876190423965|0|0|0|-1|-1|3
2021-04-22 22:29:25.551 +0100|142136.1458455|0.0270843505859375|0.6227264404296875|-0.1488189697265625|142136.1208845|-1.76869492411395|-2.172545766457876|-1.196699502269429|0.2388776987791061|-0.5051711797714233|0.03071463294327259|0.3654822111129761|-0.1617494821548462|-0.3176587820053101|XArbitraryZVertical|-0.7318413689140527|-0.2604633557157043|0.01821846464584454|0.6294721813860341|-0.3012428283691406|0.9308380484580994|0.2068658918142319|0|0|0|-1|-1|3
2021-04-22 22:29:25.571 +0100|142136.1658055|-0.006927490234375|0.6552581787109375|-0.054107666015625|142136.1408455|-1.760721808790129|-2.177780296864567|-1.200365036083282|0.2929677665233612|-0.7673451900482178|0.1093419790267944|0.3445619344711304|-0.3065916299819946|-0.3960205316543579|XArbitraryZVertical|-0.7304809472565623|-0.2639010546926293|0.02386380288177198|0.6294318390347222|-0.2973513603210449|0.9321712851524353|0.2064923644065857|0|0|0|-1|-1|3
2021-04-22 22:29:25.591 +0100|142136.1857665|-0.06231689453125|0.7006683349609375|-0.0107421875|142136.1608055|-1.751749882314506|-2.186630379983248|-1.20671380117831|0.2938943803310394|-0.9535908699035645|0.2239440232515335|0.3101149201393127|-0.298037588596344|-0.3309358656406403|XArbitraryZVertical|-0.7287085855930265|-0.2680117406033196|0.03203654435119924|0.629386381542022|-0.2906752824783325|0.9344508647918701|0.2056929916143417|0|0|0|-1|-1|3
2021-04-22 22:29:25.611 +0100|142136.2057264167|-0.1379547119140625|0.7802581787109375|0.0817108154296875|142136.1807665|-1.74643239890464|-2.202012876962133|-1.214545777631292|0.326942652463913|-1.117124199867249|0.2981045246124268|0.2632800340652466|-0.2768566012382507|-0.2495146989822388|XArbitraryZVertical|-0.7271263578586371|-0.2723869248262934|0.04192536697676944|0.6287567652195057|-0.2815601527690887|0.9372110962867737|0.2058147490024567|0|0|0|-1|-1|3
2021-04-22 22:29:25.631 +0100|142136.2256864167|-0.2709808349609375|0.9777069091796875|0.0666351318359375|142136.2007264167|-1.747011719507145|-2.227121907776946|-1.223401953256726|0.2398987412452698|-1.358537316322327|0.4441132843494415|0.1903564631938934|-0.2228254675865173|-0.2013508379459381|XArbitraryZVertical|-0.7259095547711769|-0.2773591448121179|0.05381932588118949|0.6270811674933108|-0.2697174549102783|0.9402629733085632|0.2077455520629883|0|0|0|-1|-1|3
2021-04-22 22:29:25.651 +0100|142136.2456474167|-0.3377227783203125|1.159164428710938|0.2397308349609375|142136.2206864167|-1.759743148190512|-2.266632635745212|-1.232921542075048|0.01667001657187939|-1.387816905975342|0.5424993634223938|0.0913790762424469|-0.1151838898658752|-0.1058448702096939|XArbitraryZVertical|-0.7256698525633207|-0.2822200707609028|0.06733199056522145|0.6238762616243841|-0.254419207572937|0.9434612393379211|0.2124898135662079|0|0|0|-1|-1|3
2021-04-22 22:29:25.671 +0100|142136.2656074167|-0.3720855712890625|1.212310791015625|0.2899932861328125|142136.2406474167|-1.77471158520622|-2.308630412347548|-1.242633657515564|0.1531658321619034|-1.374979257583618|0.4802483916282654|-0.05647006630897522|0.07939529418945312|-0.1077698469161987|XArbitraryZVertical|-0.7252983071424416|-0.2869626489669364|0.0810959450964575|0.6204985571267013|-0.2384823113679886|0.9466361403465271|0.2168103903532028|0|0|0|-1|-1|3
2021-04-22 22:29:25.691 +0100|142136.2855684167|-0.441925048828125|1.26153564453125|0.326416015625|142136.2606074167|-1.783948392233465|-2.344376758425759|-1.250952880273987|0.242331400513649|-1.365736603736877|0.3360923826694489|-0.1213285028934479|0.2320963740348816|0.03597782552242279|XArbitraryZVertical|-0.72418282579557|-0.2922353073466902|0.09389101204592257|0.6175292229776844|-0.2249391674995422|0.9492846727371216|0.2196844816207886|0|0|0|-1|-1|3
2021-04-22 22:29:25.711 +0100|142136.3055284167|-0.522369384765625|1.326461791992188|0.3572845458984375|142136.2805684167|-1.786773181728252|-2.373956980043539|-1.258452315807932|0.2225135564804077|-1.321707367897034|0.2272474020719528|-0.1699072569608688|0.2685834765434265|0.07817502319812775|XArbitraryZVertical|-0.7222620732887558|-0.2981502204666584|0.1061315554618851|0.614963482810054|-0.2133934050798416|0.9516158699989319|0.2211121171712875|0|0|0|-1|-1|3
2021-04-22 22:29:25.731 +0100|142136.3254884167|-0.539398193359375|1.32373046875|0.32916259765625|142136.3005284167|-1.783975401061588|-2.39651518368734|-1.262796781460266|0.1366341412067413|-1.155222535133362|-0.007378779351711273|-0.25413978099823|0.3272701501846313|0.1276064515113831|XArbitraryZVertical|-0.7200645015138302|-0.3048297375688784|0.1165154588784181|0.6123806718420745|-0.2055463939905167|0.95294189453125|0.2228281050920486|0|0|0|-1|-1|3
2021-04-22 22:29:25.751 +0100|142136.3454494167|-0.45257568359375|1.213531494140625|0.3532867431640625|142136.3204884167|-1.769347027787505|-2.4029430316686|-1.262909504108476|0.1525098979473114|-0.9111960530281067|-0.2984006702899933|-0.3361383378505707|0.3790093064308167|0.1142685413360596|XArbitraryZVertical|-0.7174095727724207|-0.3120198509893338|0.1233337970282822|0.6105375042169362|-0.2040379494428635|0.9529761075973511|0.2240657657384872|0|0|0|-1|-1|3
2021-04-22 22:29:25.771 +0100|142136.3654094167|-0.33270263671875|1.003082275390625|0.3223419189453125|142136.3404494167|-1.744077508467264|-2.395124193990001|-1.260159747343414|0.1934288442134857|-0.7263995409011841|-0.4405753910541534|-0.3129149675369263|0.3527312874794006|0.1152756065130234|XArbitraryZVertical|-0.7142345880619518|-0.3194715905716549|0.1273563294089968|0.6095796389475927|-0.2075621634721756|0.9521391987800598|0.2243862897157669|0|0|0|-1|-1|3
2021-04-22 22:29:25.791 +0100|142136.3853704167|-0.2753753662109375|0.7289276123046875|0.264923095703125|142136.3604094167|-1.715102536728208|-2.380807764463007|-1.257252472377825|0.1951147764921188|-0.639872133731842|-0.4145409762859344|-0.2079475224018097|0.2222152948379517|0.1303651332855225|XArbitraryZVertical|-0.7108033754637368|-0.3262766751860772|0.1301373489477717|0.6093984465084974|-0.2126608639955521|0.9512465000152588|0.2233958095312119|0|0|0|-1|-1|3
2021-04-22 22:29:25.811 +0100|142136.4053304167|-0.252227783203125|0.5592041015625|0.2601470947265625|142136.3803704167|-1.68483880799256|-2.365050393105839|-1.255175367132118|0.3006994426250458|-0.6644253730773926|-0.3846500813961029|-0.09395404160022736|-0.0212063193321228|0.08404064178466797|XArbitraryZVertical|-0.7070706879606333|-0.332812519802382|0.1330883378860246|0.6095690972536716|-0.2175387293100357|0.9506037831306458|0.2214262634515762|0|0|0|-1|-1|3
2021-04-22 22:29:25.831 +0100|142136.4252914167|-0.243011474609375|0.4954071044921875|0.212860107421875|142136.4003304167|-1.655694186422408|-2.350448649830939|-1.254471309725628|0.273967832326889|-0.6159235239028931|-0.3129479289054871|-0.04522381722927094|-0.2743901014328003|0.04828706383705139|XArbitraryZVertical|-0.7032298279529683|-0.3388457459140152|0.1365900322246675|0.6099137831432581|-0.2212250083684921|0.9503850340843201|0.218697264790535|0|0|0|-1|-1|3
2021-04-22 22:29:25.851 +0100|142136.4452514167|-0.2616424560546875|0.5651397705078125|0.232177734375|142136.4202914167|-1.632264713465486|-2.339558133388541|-1.253782085461502|0.2160038650035858|-0.5237595438957214|-0.2302552610635757|-0.02505069971084595|-0.4168910384178162|0.03473591804504395|XArbitraryZVertical|-0.700045411638384|-0.3439498973510426|0.1396825354105254|0.6100195814389497|-0.2240641117095947|0.9501703977584839|0.2167302221059799|0|0|0|-1|-1|3
2021-04-22 22:29:25.871 +0100|142136.4652114167|-0.267181396484375|0.5948638916015625|0.2666473388671875|142136.4402514167|-1.616350721583786|-2.334329744418206|-1.254270094658271|0.1606284528970718|-0.4586663544178009|-0.08669508993625641|-0.02091415226459503|-0.4468892812728882|-0.004677653312683105|XArbitraryZVertical|-0.6976203236523036|-0.3477690764967961|0.142874900874522|0.6098929792780217|-0.2248589694499969|0.9503224492073059|0.2152348905801773|0|0|0|-1|-1|3
2021-04-22 22:29:25.890 +0100|142136.4851724167|-0.2740478515625|0.6456146240234375|0.316680908203125|142136.4602114167|-1.609951086993515|-2.336785810952741|-1.25504734805533|0.02412485517561436|-0.3898369073867798|0.003018378745764494|-0.04240752756595612|-0.3692501783370972|0.01931567490100861|XArbitraryZVertical|-0.6962596758960046|-0.3505132764136586|0.1459460475654151|0.609149173106118|-0.2237970530986786|0.9505640864372253|0.2152741849422455|0|0|0|-1|-1|3
2021-04-22 22:29:25.910 +0100|142136.5051324167|-0.260223388671875|0.62847900390625|0.287994384765625|142136.4801724167|-1.612912663677374|-2.346274527223819|-1.255397921170843|-0.04702549055218697|-0.2565282881259918|0.06269857287406921|-0.04381310939788818|-0.35179603099823|0.07178686559200287|XArbitraryZVertical|-0.6960515027389804|-0.3522637103334422|0.1484672537408823|0.6077665346409922|-0.2215064764022827|0.9506728649139404|0.2171548306941986|0|0|0|-1|-1|3
2021-04-22 22:29:25.930 +0100|142136.5250934167|-0.2678680419921875|0.688995361328125|0.3271942138671875|142136.5001324167|-1.616033776438342|-2.353273811135029|-1.255462530872422|-0.04909922555088997|-0.1456784009933472|0.007847044616937637|-0.05659715831279755|-0.2927950620651245|0.1010773032903671|XArbitraryZVertical|-0.696074132785785|-0.3532833366981413|0.1499774977350473|0.6067771872464061|-0.2199376225471497|0.950692892074585|0.2186566293239594|0|0|0|-1|-1|3
2021-04-22 22:29:25.950 +0100|142136.5450534167|-0.280975341796875|0.893798828125|0.3644561767578125|142136.5200934167|-1.620517664198417|-2.360132291177403|-1.254374252364188|0.02582182176411152|-0.1421035379171371|-0.0001262817531824112|-0.03721663355827332|-0.3348459005355835|0.05832767486572266|XArbitraryZVertical|-0.6964490294205082|-0.3541268683031429|0.1506367194003214|0.6056909985944383|-0.2191613167524338|0.9503548145294189|0.2208941727876663|0|0|0|-1|-1|3
2021-04-22 22:29:25.970 +0100|142136.5650144167|-0.35308837890625|0.8580322265625|0.219818115234375|142136.5400534167|-1.610093247187165|-2.351494348186704|-1.256353142510038|0.2000284194946289|-0.001994685269892216|-0.09985349327325821|-0.0545518696308136|-0.1937667727470398|0.1402272880077362|XArbitraryZVertical|-0.6950785324817146|-0.354542286188069|0.1514638157748463|0.6068149480461229|-0.2197246253490448|0.9509687423706055|0.2176688015460968|0|0|0|-1|-1|3
2021-04-22 22:29:25.990 +0100|142136.5849744167|-0.5328826904296875|0.9715728759765625|-0.0998077392578125|142136.5600144167|-1.591923641699384|-2.335662312742677|-1.25590366983308|0.1688074618577957|-0.1860366314649582|-0.3243094086647034|-0.05613499879837036|-0.05837368965148926|0.1454360336065292|XArbitraryZVertical|-0.6930867526554306|-0.3561744917179153|0.1513348289536168|0.6081680361686765|-0.223451554775238|0.9508296251296997|0.2144590318202972|0|0|0|-1|-1|3
2021-04-22 22:29:26.010 +0100|142136.6049344167|-0.5712738037109375|1.070556640625|-0.071624755859375|142136.5799744167|-1.562457177011546|-2.312530113255415|-1.251593969596226|0.03928129002451897|-0.2086537927389145|-0.6277006268501282|-0.1673557758331299|-0.0762408971786499|-0.04158821702003479|XArbitraryZVertical|-0.6898875067525662|-0.360631398001693|0.1508203913053433|0.6093057799166902|-0.2313713878393173|0.9494860172271729|0.2119995504617691|0|0|0|-1|-1|3
2021-04-22 22:29:26.030 +0100|142136.6248954167|-0.49920654296875|1.130142211914062|-0.1944122314453125|142136.5999344167|-1.528082685384349|-2.284714937780147|-1.242223392431241|0.3433625400066376|-0.2109582871198654|-0.7806835174560547|-0.3213082551956177|0.03243911266326904|-0.4195811450481415|XArbitraryZVertical|-0.68634478418223|-0.3668525364728201|0.1484628841927253|0.6101713444565525|-0.2438923567533493|0.9465038180351257|0.2112998962402344|0|0|0|-1|-1|3
2021-04-22 22:29:26.050 +0100|142136.6448554167|-0.3078460693359375|0.981170654296875|-0.0915985107421875|142136.6198954167|-1.479016549576895|-2.235819228810655|-1.231794259741827|0.3504264354705811|0.3490651845932007|-1.144889831542969|-0.308859258890152|0.1809669733047485|-0.2664240598678589|XArbitraryZVertical|-0.6813895737667378|-0.3719028656458685|0.1430703940727384|0.6139442449086389|-0.2616818845272064|0.9430869817733765|0.2052069902420044|0|0|0|-1|-1|3
2021-04-22 22:29:26.070 +0100|142136.6648164167|-0.0810089111328125|0.831298828125|-0.164276123046875|142136.6398554167|-1.3938220940477|-2.149453195207724|-1.216814451970721|1.21056854724884|0.2513144314289093|-1.774482250213623|-0.1542699038982391|0.1512183547019958|-0.3659656941890717|XArbitraryZVertical|-0.6718058498481119|-0.3787671756538058|0.1347736355556265|0.6221322982619838|-0.2902031540870667|0.9379999041557312|0.1895753443241119|0|0|0|-1|-1|3
2021-04-22 22:29:26.090 +0100|142136.6847764167|0.409210205078125|0.925018310546875|-0.59796142578125|142136.6598164167|-1.259342116503523|-2.021518123883514|-1.195225831608389|1.805533885955811|-0.04920507222414017|-2.477749347686768|0.06549373269081116|0.0198206901550293|-0.2263126224279404|XArbitraryZVertical|-0.6540247946086617|-0.3900568251048039|0.1266857496605541|0.6356557412211091|-0.3301724791526794|0.9302985072135925|0.1597855240106583|0|0|0|-1|-1|3
2021-04-22 22:29:26.110 +0100|142136.7047374167|1.105300903320312|1.427749633789062|-0.8488616943359375|142136.6797764167|-1.107820066107184|-1.883863940671338|-1.159976760556849|2.28671669960022|-0.1731887012720108|-2.864112615585327|0.3851073086261749|-0.1199187636375427|-0.3865127563476562|XArbitraryZVertical|-0.629979505076233|-0.4057378165545774|0.1180926974870615|0.6515803093766369|-0.3799495995044708|0.9167938232421875|0.1229947060346603|0|0|0|-1|-1|3
2021-04-22 22:29:26.130 +0100|142136.7246974167|0.80908203125|1.868881225585938|-0.94427490234375|142136.6997374167|-0.9650102909465174|-1.76535681026204|-1.115719197496556|2.405238151550293|-1.203150868415833|-2.979875564575195|1.033442735671997|0.1612516641616821|-0.7777706384658813|XArbitraryZVertical|-0.601888192632467|-0.424522223380315|0.1122232804946636|0.6670213727517732|-0.4312390685081482|0.8982271552085876|0.08497703075408936|0|0|0|-1|-1|3
2021-04-22 22:29:26.150 +0100|142136.7446574167|0.37982177734375|2.845932006835938|-1.158935546875|142136.7196974167|-0.8203468229878864|-1.681592904372734|-1.066933153202118|3.620698928833008|-3.049887657165527|-2.717461347579956|1.636193990707397|0.6243831515312195|-0.9290547370910645|XArbitraryZVertical|-0.566850663063982|-0.4531805653968775|0.1185289514808132|0.6776863197148683|-0.4798521101474762|0.8757238984107971|0.05338459834456444|0|0|0|-1|-1|3
2021-04-22 22:29:26.170 +0100|142136.7646184167|0.311004638671875|3.206573486328125|-1.667373657226562|142136.7396574167|-0.6343215568006703|-1.582670909264984|-1.031191944596053|5.30408239364624|-2.862872362136841|-1.432984590530396|1.149075746536255|1.210737466812134|-0.9763604402542114|XArbitraryZVertical|-0.5222729763646649|-0.4798764708398182|0.1424991793447101|0.6903937611746332|-0.513760507106781|0.857912003993988|0.00610097823664546|0|0|0|-1|-1|3
2021-04-22 22:29:26.190 +0100|142136.7845784167|0.0185699462890625|3.3179931640625|-1.986312866210938|142136.7596184167|-0.4181958002326687|-1.453223510769317|-1.007444900805262|5.889573097229004|-2.698603391647339|-0.4659692645072937|0.9061606526374817|2.178547859191895|-1.26560389995575|XArbitraryZVertical|-0.4736914408149327|-0.4942624743413852|0.177806510909078|0.7068989379340752|-0.5303363800048828|0.845470130443573|-0.06264205276966095|0|0|0|-1|-1|3
2021-04-22 22:29:26.210 +0100|142136.8045394167|-0.332305908203125|3.203598022460938|-2.234100341796875|142136.7795784167|-0.2175408494022431|-1.33225810381231|-0.9833709055799366|5.421331405639648|-1.932085275650024|0.1851348280906677|0.8024282455444336|2.410885810852051|-1.589276552200317|XArbitraryZVertical|-0.4281256553206403|-0.5012306464725912|0.2147779617896479|0.7206572625797378|-0.5385270714759827|0.8323703408241272|-0.1309525221586227|0|0|0|-1|-1|3
