loggingTime(txt)|accelerometerTimestamp_sinceReboot(s)|accelerometerAccelerationX(G)|accelerometerAccelerationY(G)|accelerometerAccelerationZ(G)|motionTimestamp_sinceReboot(s)|motionYaw(rad)|motionRoll(rad)|motionPitch(rad)|motionRotationRateX(rad/s)|motionRotationRateY(rad/s)|motionRotationRateZ(rad/s)|motionUserAccelerationX(G)|motionUserAccelerationY(G)|motionUserAccelerationZ(G)|motionAttitudeReferenceFrame(txt)|motionQuaternionX(R)|motionQuaternionY(R)|motionQuaternionZ(R)|motionQuaternionW(R)|motionGravityX(G)|motionGravityY(G)|motionGravityZ(G)|motionMagneticFieldX(µT)|motionMagneticFieldY(µT)|motionMagneticFieldZ(µT)|motionHeading(°)|motionMagneticFieldCalibrationAccuracy(Z)|label
2021-04-22 21:52:00.940 +0100|140531.721138125|-0.018280029296875|0.093719482421875|-0.98602294921875|140531.701177125|0.2318190656488874|0.02816531787033445|-0.1030402104932488|0.08738721907138824|-0.300786942243576|-0.1065553352236748|0.001742085441946983|0.02540846914052963|-0.03072273731231689|XArbitraryZVertical|-0.05277314288448311|0.008014059729435257|0.114764928139246|0.9919575846017661|0.0280122272670269|0.1028579697012901|-0.9943015575408936|0|0|0|-1|-1|3
2021-04-22 21:52:00.952 +0100|140531.741100125|0.0197906494140625|0.0946502685546875|-1.007431030273438|140531.721138125|0.229390278715312|0.02527917626119177|-0.1002488157163948|0.1066301092505455|-0.01250635087490082|-0.09525882452726364|-0.02131994813680649|0.07403811812400818|0.005937755107879639|XArbitraryZVertical|-0.05121491975610526|0.006806868279118443|0.1136618599150506|0.992175222862224|0.02514957822859287|0.1000809893012047|-0.9946613907814026|0|0|0|-1|-1|3
2021-04-22 21:52:00.954 +0100|140531.761061125|0.022796630859375|0.0901336669921875|-1.007980346679688|140531.741100125|0.2277831579618113|0.02553260535090496|-0.09918775926647609|0.02123755775392056|-0.01287083141505718|-0.08253246545791626|0.009370099753141403|-0.03435738384723663|-0.01505070924758911|XArbitraryZVertical|-0.05069737308355318|0.007034303113782948|0.1128677717970325|0.9922909907206305|0.02540435083210468|0.09902519732713699|-0.9947605729103088|0|0|0|-1|-1|3
2021-04-22 21:52:00.957 +0100|140531.781023125|0.01214599609375|0.0907745361328125|-1.000564575195312|140531.761061125|0.2259145973904565|0.02536575797454621|-0.09850889543390073|0.05382800847291946|-0.02496163547039032|-0.09712525457143784|-0.01080559380352497|0.02219584584236145|-0.00976097583770752|XArbitraryZVertical|-0.05034464008033199|0.00703729712807063|0.111951047288819|0.9924126616631901|0.02524007670581341|0.09834965318441391|-0.9948318004608154|0|0|0|-1|-1|3
2021-04-22 21:52:00.977 +0100|140531.800984125|0.0238189697265625|0.0948486328125|-0.996337890625|140531.781023125|0.2240957546207041|0.02500114664858456|-0.09822585315121155|0.0218841228634119|-0.004721238277852535|-0.07701528072357178|-0.0104740783572197|-0.02448902279138565|-0.01421016454696655|XArbitraryZVertical|-0.05017752477297367|0.006918028197767804|0.1110601760691009|0.9925221726354656|0.02487804181873798|0.09806797653436661|-0.9948686957359314|0|0|0|-1|-1|3
2021-04-22 21:52:00.997 +0100|140531.820946125|0.0270233154296875|0.1109619140625|-0.9903411865234375|140531.800984125|0.2229885272158486|0.02457793494940927|-0.09931853058587833|-0.02166350185871124|-0.002294832374900579|-0.03859376907348633|-0.003534886986017227|-0.004061490297317505|-0.00713580846786499|XArbitraryZVertical|-0.05069250783647933|0.006674731370880937|0.1105116351647627|0.9925588993660981|0.02445435151457787|0.09915532916784286|-0.994771420955658|0|0|0|-1|-1|3
2021-04-22 21:52:01.016 +0100|140531.840907125|0.028778076171875|0.09130859375|-0.99383544921875|140531.820946125|0.2226379689099597|0.02439144848767363|-0.09938446857495352|0.007405199110507965|0.007610795088112354|0.007641726173460484|-0.002586277201771736|-0.009025178849697113|0.006289958953857422|XArbitraryZVertical|-0.0507137700713265|0.006587387711661153|0.1103418070085836|0.9925772608394198|0.02426868118345737|0.09922093898057938|-0.9947694540023804|0|0|0|-1|-1|3
2021-04-22 21:52:01.036 +0100|140531.860869125|0.03839111328125|0.0736846923828125|-0.991943359375|140531.840907125|0.2227718007442067|0.02417315310983512|-0.09898087320335805|0.03001060709357262|-0.003275408409535885|0.01619624346494675|0.003580840304493904|0.02934031188488007|0.003374934196472168|XArbitraryZVertical|-0.05050188502161657|0.006498179507219665|0.1104172890067098|0.9925802992969189|0.02405249327421188|0.09881933033466339|-0.9948146939277649|0|0|0|-1|-1|3
2021-04-22 21:52:01.056 +0100|140531.880830125|0.035430908203125|0.1013336181640625|-0.9930572509765625|140531.860869125|0.2230043874074139|0.02389150574142367|-0.09872384841529704|-0.06149796769022942|-0.01514138840138912|0.004493071231991053|0.008544869720935822|-0.006887689232826233|0.004917681217193604|XArbitraryZVertical|-0.05035953544329109|0.006366885845652664|0.1105420638789197|0.992574455665731|0.02377291023731232|0.09856355935335159|-0.9948467612266541|0|0|0|-1|-1|3
2021-04-22 21:52:01.076 +0100|140531.900792125|0.0270538330078125|0.11016845703125|-0.995758056640625|140531.880830125|0.2230182552493584|0.02354752130080946|-0.1000609100643399|-0.06732264906167984|-0.01625416427850723|-0.009244935587048531|0.01622968539595604|-0.03106056153774261|0.005495071411132812|XArbitraryZVertical|-0.05100403203328934|0.00612113742567845|0.1105460939675756|0.9925426859325187|0.02342757396399975|0.09989402443170547|-0.9947222471237183|0|0|0|-1|-1|3
2021-04-22 21:52:01.096 +0100|140531.920753125|0.02001953125|0.1312103271484375|-0.9998779296875|140531.900792125|0.2228325716618652|0.02317932857132479|-0.1010610790326284|-0.04743855819106102|-0.008720827288925648|-0.008907867595553398|0.008755246177315712|0.006915271282196045|-0.004530251026153564|XArbitraryZVertical|-0.05147942299598292|0.005887328979231015|0.1104547942734232|0.9925296339824032|0.02305899560451508|0.1008891388773918|-0.9946303963661194|0|0|0|-1|-1|3
2021-04-22 21:52:01.116 +0100|140531.940715125|0.025726318359375|0.1187286376953125|-0.9967803955078125|140531.920753125|0.2225093270877338|0.02311871053922407|-0.1016351873051348|0.03447606414556503|-0.00285883666947484|-0.02433262951672077|-0.001452283933758736|0.02126720547676086|-0.008355855941772461|XArbitraryZVertical|-0.0517600033497196|0.005833571735254652|0.1102910305232819|0.9925335708988843|0.02299736067652702|0.101460300385952|-0.9945737719535828|0|0|0|-1|-1|3
2021-04-22 21:52:01.136 +0100|140531.960676125|0.0247650146484375|0.0942230224609375|-0.986358642578125|140531.940715125|0.2217449747412289|0.02317052962570724|-0.0999541868267983|0.1044168025255203|-0.003481483552604914|-0.05185985937714577|-0.0005616955459117889|0.02588462084531784|-0.005166709423065186|XArbitraryZVertical|-0.05092644984989137|0.005972430592590262|0.1099247095674762|0.9926164884703496|0.02305281721055508|0.09978783130645752|-0.994741678237915|0|0|0|-1|-1|3
2021-04-22 21:52:01.156 +0100|140531.980638125|0.026214599609375|0.0804290771484375|-0.98199462890625|140531.960676125|0.2205192534242247|0.02331463212063183|-0.09751690442074051|0.08477169275283813|0.000690891407430172|-0.0685126930475235|0.0007541999220848083|0.006795145571231842|0.004164397716522217|XArbitraryZVertical|-0.04972105087887149|0.006209783407131802|0.1093334042810282|0.9927414318651415|0.02320176176726818|0.09736242145299911|-0.9949784874916077|0|0|0|-1|-1|3
2021-04-22 21:52:01.176 +0100|140532.000600125|0.020782470703125|0.104736328125|-0.9920654296875|140531.980638125|0.218800321097833|0.02338242839649731|-0.09646924759625906|0.02782878093421459|0.001177717000246048|-0.09289926290512085|0.00353776291012764|-0.002431295812129974|0.01000159978866577|XArbitraryZVertical|-0.04919935241294086|0.006343586843287313|0.1084872962952858|0.9928594656794563|0.0232715904712677|0.09631969034671783|-0.9950783848762512|0|0|0|-1|-1|3
2021-04-22 21:52:01.196 +0100|140532.020561125|0.0189056396484375|0.1227874755859375|-0.9977569580078125|140532.000600125|0.216820210116212|0.02345491087124234|-0.09663638302969475|0.01898612268269062|0.01344508863985538|-0.09890167415142059|0.0006736554205417633|-0.01701720058917999|0.01170802116394043|XArbitraryZVertical|-0.04927991677821752|0.006419202132892451|0.1075010722444976|0.9929621834971279|0.02334333769977093|0.09648604691028595|-0.9950605630874634|0|0|0|-1|-1|3
2021-04-22 21:52:01.217 +0100|140532.040523125|0.0236968994140625|0.1102447509765625|-0.99127197265625|140532.020561125|0.2150423186934239|0.02324897500524431|-0.09651239582124924|0.05842559039592743|-0.009105226956307888|-0.07953596115112305|-0.002799073234200478|0.02810437232255936|5.960464477539062e-06|XArbitraryZVertical|-0.0492016509518159|0.006367433297812948|0.1066244388222728|0.9930610249389304|0.02313869632780552|0.0963626354932785|-0.9950773119926453|0|0|0|-1|-1|3
2021-04-22 21:52:01.236 +0100|140532.060484125|0.025390625|0.09002685546875|-0.987152099609375|140532.040523125|0.2137747682384328|0.02283952238513771|-0.09571634174622799|0.05423172563314438|-0.01906438358128071|-0.04682435467839241|-0.005216255784034729|0.0198940709233284|-0.0008237957954406738|XArbitraryZVertical|-0.04878065696214261|0.006237923458387818|0.1060116676385406|0.9931481789218458|0.02273300290107727|0.09557025879621506|-0.9951630830764771|0|0|0|-1|-1|3
2021-04-22 21:52:01.256 +0100|140532.080446125|0.0270843505859375|0.0739593505859375|-0.9818115234375|140532.060484125|0.2129061203912287|0.02228530574036623|-0.09470175587898977|0.04242926463484764|-0.03084615617990494|-0.03793375194072723|0.00506824254989624|0.0104823037981987|0.004579901695251465|XArbitraryZVertical|-0.04824489663672232|0.006037990713533132|0.1056020065011822|0.9932191761620073|0.0221836119890213|0.09456026554107666|-0.9952719211578369|0|0|0|-1|-1|3
2021-04-22 21:52:01.276 +0100|140532.100407125|0.0327911376953125|0.0787353515625|-0.98785400390625|140532.080446125|0.2121891603097429|0.02180866569134774|-0.0941474125444844|-0.009814883582293987|-0.0207075010985136|-0.03859217092394829|0.005251571536064148|-0.01711829006671906|0.01073086261749268|XArbitraryZVertical|-0.04794236950568127|0.005848030767563938|0.1052618290453428|0.9932710984651892|0.0217103622853756|0.09400839358568192|-0.9953346848487854|0|0|0|-1|-1|3
2021-04-22 21:52:01.296 +0100|140532.120369125|0.0322723388671875|0.0928192138671875|-0.9896240234375|140532.100407125|0.2111548410058078|0.0209551543233651|-0.09515085202071323|-0.06325856596231461|-0.05192731320858002|-0.06480522453784943|0.009353214874863625|-0.01488237828016281|0.007129490375518799|XArbitraryZVertical|-0.04839294572847253|0.005395859096123483|0.1047608601609416|0.9933047844133546|0.02085883915424347|0.09500733762979507|-0.9952580332756042|0|0|0|-1|-1|3
2021-04-22 21:52:01.316 +0100|140532.140330125|0.024810791015625|0.1241607666015625|-1.000244140625|140532.120369125|0.2098720906080512|0.01993015971796179|-0.09767302452607241|-0.1222152709960938|-0.0305652990937233|-0.0743475928902626|0.01202614977955818|-0.027600958943367|0.00670921802520752|XArbitraryZVertical|-0.04958867009278248|0.004785262463822216|0.1041296917923207|0.9933153458680377|0.01983385533094406|0.09751779586076736|-0.9950361251831055|0|0|0|-1|-1|3
2021-04-22 21:52:01.336 +0100|140532.160292125|0.020477294921875|0.1119842529296875|-1.003387451171875|140532.140330125|0.2082292760565045|0.01923333913542662|-0.09974590550833871|-0.04604903981089592|-0.02884537540376186|-0.09327059984207153|0.01260137185454369|0.01150445640087128|-0.001278698444366455|XArbitraryZVertical|-0.0505781996636236|0.004371815350519326|0.1033157983942922|0.993352315861101|0.01913655921816826|0.09958058595657349|-0.994845449924469|0|0|0|-1|-1|3
2021-04-22 21:52:01.356 +0100|140532.180253125|0.021759033203125|0.12127685546875|-1.001296997070312|140532.160292125|0.2060385375920042|0.01864688353874456|-0.09965243190243488|0.01972350105643272|-0.01703649386763573|-0.1227098032832146|0.004136167466640472|0.02426225692033768|-0.006141126155853271|XArbitraryZVertical|-0.05049697990117243|0.004140724024473006|0.1022431555016519|0.9934683271741229|0.01855329796671867|0.09948758035898209|-0.9948658347129822|0|0|0|-1|-1|3
2021-04-22 21:52:01.376 +0100|140532.200215125|0.0302276611328125|0.099151611328125|-1.001220703125|140532.180253125|0.2033566326225062|0.01857427112530502|-0.09838956131017718|0.07910510152578354|0.008986745029687881|-0.153190478682518|-0.001760099083185196|0.02103286236524582|-0.006533801555633545|XArbitraryZVertical|-0.04986037028221126|0.004236660460407558|0.1009217014320729|0.9936351864101013|0.01848337613046169|0.09823089838027954|-0.9949920177459717|0|0|0|-1|-1|3
2021-04-22 21:52:01.396 +0100|140532.220176125|0.031951904296875|0.06170654296875|-0.99432373046875|140532.200215125|0.1999783967171837|0.01873734383407228|-0.0960827914242465|0.1059413552284241|0.009565289132297039|-0.1853343844413757|0.006084311753511429|0.02244372665882111|-0.003703653812408447|XArbitraryZVertical|-0.04871506455666721|0.004517421452891484|0.09925545051545906|0.9938586770093996|0.01864982768893242|0.09593502432107925|-0.9952128529548645|0|0|0|-1|-1|3
2021-04-22 21:52:01.416 +0100|140532.240138125|0.03009033203125|0.0355987548828125|-0.98431396484375|140532.220176125|0.1957759109730029|0.01881153543293605|-0.09486684777471593|0.00857970304787159|0.01758667826652527|-0.2236076593399048|0.01676573604345322|-0.00899968296289444|0.0002865791320800781|XArbitraryZVertical|-0.04810474984306969|0.004716268615945303|0.09717360628566031|0.9940932022066021|0.01872584596276283|0.0947246178984642|-0.995327353477478|0|0|0|-1|-1|3
2021-04-22 21:52:01.436 +0100|140532.260099125|0.032501220703125|0.048675537109375|-0.98394775390625|140532.240138125|0.1916723122797941|0.01879398806989869|-0.09706710536552116|-0.1612024456262589|0.02890436723828316|-0.210265040397644|0.01550542004406452|-0.06274925917387009|-0.0008851885795593262|XArbitraryZVertical|-0.04918786236534392|0.0047005976828127|0.09511882048270018|0.9942389746882569|0.01870441809296608|0.09691474586725235|-0.9951168894767761|0|0|0|-1|-1|3
2021-04-22 21:52:01.456 +0100|140532.280061125|0.0496978759765625|-0.0544891357421875|-1.002517700195312|140532.260099125|0.1872825834526696|0.01836084658059066|-0.09999493768508107|-0.1646607965230942|-0.001287518069148064|-0.2503738403320312|0.00829707644879818|-0.05861334502696991|0.004709541797637939|XArbitraryZVertical|-0.05061291112074933|0.004455809132726174|0.09292692147672525|0.9943758088895783|0.01826810091733932|0.09982837736606598|-0.9948369860649109|0|0|0|-1|-1|3
2021-04-22 21:52:01.476 +0100|140532.300022125|0.10260009765625|0.034881591796875|-1.023910522460938|140532.280061125|0.1820898236909125|0.01848552310201951|-0.1060856375928542|-0.4150581955909729|0.0518658235669136|-0.2759807705879211|0.02983684092760086|-0.1592304408550262|0.004447042942047119|XArbitraryZVertical|-0.05363525938054994|0.004371261355062518|0.09029943760102867|0.9944597218450993|0.01838055439293385|0.1058867648243904|-0.9942082762718201|0|0|0|-1|-1|3
2021-04-22 21:52:01.496 +0100|140532.319984125|0.013641357421875|0.0269775390625|-0.998321533203125|140532.300022125|0.1768971337418972|0.02003629050092592|-0.1152697368626019|-0.487993448972702|0.1278667896986008|-0.2338649928569794|0.03750118613243103|-0.1198811456561089|-0.0164027214050293|XArbitraryZVertical|-0.05825835763471329|0.00487424483774153|0.08760736932535444|0.9944382544249432|0.01990199461579323|0.1150146424770355|-0.9931644201278687|0|0|0|-1|-1|3
2021-04-22 21:52:01.516 +0100|140532.339945125|0.0741729736328125|0.0542449951171875|-1.024246215820312|140532.319984125|0.1702332637533808|0.02078072580046944|-0.1232827210613141|-0.4582155048847198|0.1451079398393631|-0.3051502704620361|0.09062992036342621|-0.0533895418047905|-0.04723256826400757|XArbitraryZVertical|-0.06225763177143556|0.00509612817357228|0.08421010523296228|0.9944882071979491|0.0206215213984251|0.1229706704616547|-0.9921960234642029|0|0|0|-1|-1|3
2021-04-22 21:52:01.536 +0100|140532.359907125|0.0637054443359375|0.0341339111328125|-0.999237060546875|140532.339945125|0.1643745050395333|0.02389504003279449|-0.1307901665539194|-0.4255761504173279|0.2072271257638931|-0.3252449631690979|0.03369920700788498|-0.1097561568021774|-0.02534902095794678|XArbitraryZVertical|-0.06610195701725924|0.006517072544149895|0.08113533058469537|0.9944874306038093|0.02368870191276073|0.130417600274086|-0.9911761283874512|0|0|0|-1|-1|3
2021-04-22 21:52:01.556 +0100|140532.379869125|0.1061248779296875|0.0626678466796875|-0.982940673828125|140532.359907125|0.1582471652988802|0.0285166129155993|-0.1364754732783621|-0.4313295185565948|0.3129990994930267|-0.3029265105724335|0.02323512174189091|-0.08252334594726562|-0.0208093523979187|XArbitraryZVertical|-0.06908888581557832|0.008791287877269188|0.07787995446221725|0.9945271296999847|0.02824762649834156|0.136052206158638|-0.990298867225647|0|0|0|-1|-1|3
2021-04-22 21:52:01.576 +0100|140532.399830125|0.111785888671875|0.0880584716796875|-0.9707489013671875|140532.379869125|0.1523671363654319|0.03466435074183201|-0.14262961225678|-0.4830387830734253|0.3338879644870758|-0.3261998295783997|0.05855909734964371|-0.1068518906831741|-0.005667686462402344|XArbitraryZVertical|-0.07235274480275693|0.0118147632707157|0.07467367613140173|0.9945097266725629|0.03430548310279846|0.1421465128660202|-0.9892509579658508|0|0|0|-1|-1|3
2021-04-22 21:52:01.596 +0100|140532.419792125|0.1136932373046875|0.19207763671875|-0.970703125|140532.399830125|0.145861180817931|0.04150649642438575|-0.1512511104487987|-0.52329421043396|0.3195634186267853|-0.3700514137744904|0.07081039994955063|-0.06626242399215698|0.01095592975616455|XArbitraryZVertical|-0.07684419687444527|0.01513334724492583|0.07107834091880298|0.9943911815555813|0.04102085158228874|0.1506750732660294|-0.9877318739891052|0|0|0|-1|-1|3
2021-04-22 21:52:01.616 +0100|140532.439753125|0.115081787109375|0.2298583984375|-0.9784393310546875|140532.419792125|0.1393199320953375|0.04716002544135103|-0.1587508708932617|-0.4179890751838684|0.3522423207759857|-0.3332646489143372|0.05989513546228409|-0.02673621475696564|0.01904267072677612|XArbitraryZVertical|-0.08071374631617373|0.01792910241458105|0.06750019490897358|0.9942875374206366|0.04654975235462189|0.1580849140882492|-0.9863276481628418|0|0|0|-1|-1|3
2021-04-22 21:52:01.635 +0100|140532.459715125|0.084686279296875|0.2270965576171875|-0.9593658447265625|140532.439753125|0.1328719579218613|0.05312367048179665|-0.163182995376943|-0.2180845886468887|0.3301489651203156|-0.3326777815818787|0.07138558477163315|0.05621498823165894|0.00798267126083374|XArbitraryZVertical|-0.08304980767631544|0.02100325485270637|0.06398313812216949|0.9942674586376548|0.05239327996969223|0.1624597311019897|-0.9853231906890869|0|0|0|-1|-1|3
2021-04-22 21:52:01.655 +0100|140532.479676125|0.07208251953125|0.2220001220703125|-0.922607421875|140532.459715125|0.1260900809917246|0.05886464128322028|-0.16390571778353|-0.09048832207918167|0.3046227097511292|-0.3650234639644623|0.04382506757974625|0.07584188878536224|0.01380425691604614|XArbitraryZVertical|-0.08351097577458313|0.02411574680699597|0.06036040172465765|0.9943847715180255|0.05804217606782913|0.1631728112697601|-0.9848886728286743|0|0|0|-1|-1|3
2021-04-22 21:52:01.675 +0100|140532.499638125|0.106842041015625|0.2370452880859375|-0.9169769287109375|140532.479676125|0.118904684601262|0.06503563588825428|-0.1651925682766719|-0.1613387316465378|0.3344055712223053|-0.3739095330238342|0.002407543361186981|0.05461391806602478|0.04680156707763672|XArbitraryZVertical|-0.08423829017022635|0.0274445220344676|0.05650586937793908|0.9944636438043676|0.0641050711274147|0.1644422858953476|-0.9843013882637024|0|0|0|-1|-1|3
2021-04-22 21:52:01.695 +0100|140532.51959875|0.074554443359375|0.23724365234375|-0.92620849609375|140532.499638125|0.1110973544271168|0.07075304331036489|-0.1683644424240136|-0.2132887095212936|0.2736397981643677|-0.4421098828315735|0.0228496789932251|0.0723143070936203|0.06910234689712524|XArbitraryZVertical|-0.08585734478377292|0.03052416229210594|0.05231953494099277|0.9944644995088641|0.06969442218542099|0.1675701439380646|-0.9833936095237732|0|0|0|-1|-1|3
2021-04-22 21:52:01.722 +0100|140532.53956075|0.0074615478515625|0.2096099853515625|-0.9090728759765625|140532.51959875|0.1018838996610671|0.07461816214605704|-0.1746355649289294|-0.2660028040409088|0.1844351589679718|-0.5325644016265869|0.03022219240665436|0.05897881090641022|0.05813008546829224|XArbitraryZVertical|-0.08892522120228742|0.0326726379199015|0.04744198969097657|0.9943712518515533|0.07341504096984863|0.173749253153801|-0.9820495843887329|0|0|0|-1|-1|3
2021-04-22 21:52:01.738 +0100|140532.55952175|-0.00750732421875|0.2156524658203125|-0.8862152099609375|140532.53956075|0.09135030677225708|0.07701066593150784|-0.1838327364412391|-0.5020140409469604|0.1943121254444122|-0.5664893984794617|-0.04097075015306473|0.04252849519252777|0.04531526565551758|XArbitraryZVertical|-0.09337356450118917|0.03410551233214357|0.04190309509351979|0.9941642308153473|0.07563824206590652|0.1827990561723709|-0.9802364110946655|0|0|0|-1|-1|3
2021-04-22 21:52:01.755 +0100|140532.57948375|0.010772705078125|0.2378997802734375|-0.8468780517578125|140532.55952175|0.08023012195963336|0.07924528548178707|-0.1993662809323053|-0.8494958281517029|0.2465491741895676|-0.6358333826065063|-0.07974632084369659|0.01511809229850769|0.07855677604675293|XArbitraryZVertical|-0.1009407552807789|0.03539594586560515|0.03593492409452977|0.9936130592829243|0.07759434729814529|0.1980482041835785|-0.9771161675453186|0|0|0|-1|-1|3
2021-04-22 21:52:01.775 +0100|140532.59944475|0.0317535400390625|0.1475830078125|-0.8167877197265625|140532.57948375|0.06816709903550915|0.08183215349907065|-0.2218182739727038|-1.226749062538147|0.2408943325281143|-0.7451739311218262|-0.07656479626893997|0.01557773351669312|0.1212369203567505|XArbitraryZVertical|-0.1119103612099429|0.03686117872027497|0.02931445411759067|0.9926017508625637|0.07973812520503998|0.2200037091970444|-0.9722346663475037|0|0|0|-1|-1|3
2021-04-22 21:52:01.795 +0100|140532.61940675|0.0317840576171875|0.0760955810546875|-0.833282470703125|140532.59944475|0.0543690612204368|0.08241747270878526|-0.2556430572728097|-2.256322383880615|0.120865173637867|-0.8940905928611755|-0.06893758475780487|-0.02491557598114014|0.1204517483711243|XArbitraryZVertical|-0.1284291038584506|0.03738393987247305|0.02168694306741614|0.9907766170688574|0.07964873313903809|0.2528676092624664|-0.9642168283462524|0|0|0|-1|-1|3
2021-04-22 21:52:01.815 +0100|140532.63936775|0.0447845458984375|0.321502685546875|-0.7781982421875|140532.61940675|0.04056752020759587|0.0808468892172164|-0.3175876563445989|-3.742964267730713|0.1157620847225189|-0.9085515737533569|-0.04023698717355728|-0.2765845060348511|0.09528052806854248|XArbitraryZVertical|-0.1587749753192218|0.036691207723325|0.0136218347005551|0.9865388673747084|0.0767202153801918|0.312275767326355|-0.9468885064125061|0|0|0|-1|-1|3
2021-04-22 21:52:01.835 +0100|140532.65932975|0.0567169189453125|0.43585205078125|-0.7056427001953125|140532.63936775|0.02750617376613152|0.07853864925464336|-0.4017508459758103|-4.45587682723999|0.1066238209605217|-1.011658430099487|-0.03871844708919525|-0.1810532212257385|0.1125330924987793|XArbitraryZVertical|-0.1998835769735821|0.03572426257740913|0.00563318622573329|0.9791521377609441|0.07221093773841858|0.3910303711891174|-0.9175406694412231|0|0|0|-1|-1|3
2021-04-22 21:52:01.855 +0100|140532.67929175|0.0519866943359375|0.5787200927734375|-0.6456451416015625|140532.65932975|0.01328688141620315|0.07426159030866976|-0.4961775448833797|-4.91284704208374|0.0618475116789341|-0.9518643021583557|-0.01322964578866959|-0.09691622853279114|0.1259325742721558|XArbitraryZVertical|-0.2456160744837191|0.03435474107921296|-0.00267967619337324|0.9687546024374414|0.06524628400802612|0.4760675132274628|-0.8769850134849548|0|0|0|-1|-1|3
2021-04-22 21:52:01.875 +0100|140532.69925275|0.030792236328125|0.8484649658203125|-0.605560302734375|140532.67929175|0.0009585266290369172|0.06912700476193319|-0.6007690064591523|-5.428169727325439|0.07397144287824631|-0.8487566709518433|0.001539323478937149|-0.05967622995376587|0.1670325398445129|XArbitraryZVertical|-0.2957265744699861|0.03286754422855068|-0.009767341204686116|0.9546570827607062|0.05697754397988319|0.5652769804000854|-0.8229310512542725|0|0|0|-1|-1|3
2021-04-22 21:52:01.895 +0100|140532.71921475|0.0141754150390625|1.074020385742188|-0.5573577880859375|140532.69925275|-0.009363903649506761|0.06552343952112617|-0.7066972820527092|-4.968360424041748|0.1968577355146408|-0.6988979578018188|-0.01473153010010719|0.02766191959381104|0.1096178293228149|XArbitraryZVertical|-0.345708092745373|0.03235110978876713|-0.01572508197811236|0.9376525036782655|0.04979562014341354|0.6493255496025085|-0.7588786482810974|0|0|0|-1|-1|3
2021-04-22 21:52:01.915 +0100|140532.73917575|0.03033447265625|1.007858276367188|-0.53948974609375|140532.71921475|-0.01928410960512509|0.06245532319958353|-0.7987242284726965|-4.259040832519531|0.1654989123344421|-0.6250995993614197|-0.02170713618397713|0.2863264083862305|0.1148563027381897|XArbitraryZVertical|-0.3883457056796699|0.03251155732955562|-0.02101857834929702|0.9207002483710385|0.04354184865951538|0.7164666652679443|-0.6962612271308899|0|0|0|-1|-1|3
2021-04-22 21:52:01.935 +0100|140532.75913775|0.058258056640625|1.107025146484375|-0.5260162353515625|140532.73917575|-0.02891769024841689|0.05946348488846297|-0.8767895430046623|-3.478318214416504|0.2534506320953369|-0.4816849827766418|-0.02446258440613747|0.2700991034507751|0.09318923950195312|XArbitraryZVertical|-0.4238654585431888|0.03304801655411101|-0.02570283804885986|0.9047570319292183|0.03801175951957703|0.7686893343925476|-0.6384918093681335|0|0|0|-1|-1|3
2021-04-22 21:52:01.955 +0100|140532.77909875|0.0490264892578125|1.087326049804688|-0.4813995361328125|140532.75913775|-0.03743781907894953|0.05794312782564338|-0.9388604228325972|-2.650734663009644|0.2351718991994858|-0.4108031690120697|0.01544314250349998|0.2512055039405823|0.06655466556549072|XArbitraryZVertical|-0.451625475878274|0.03429342498813327|-0.02978799437513523|0.8910507107190699|0.03420832753181458|0.8068854808807373|-0.5897167921066284|0|0|0|-1|-1|3
2021-04-22 21:52:01.975 +0100|140532.79906075|0.0797119140625|0.9914703369140625|-0.4575653076171875|140532.77909875|-0.04623903948323882|0.0549954887483276|-0.9849861250564159|-2.004798650741577|0.2192712277173996|-0.368683248758316|0.02545623295009136|0.2932315468788147|0.04968982934951782|XArbitraryZVertical|-0.4719589863509526|0.03514665457978873|-0.03335888793277188|0.8802878394187292|0.030390290543437|0.8332644104957581|-0.552038848400116|0|0|0|-1|-1|3
2021-04-22 21:52:01.995 +0100|140532.81902175|0.0708160400390625|1.047622680664062|-0.4342803955078125|140532.79906075|-0.05528039541933933|0.05253054454697951|-1.020444986067198|-1.488936305046082|0.2958643138408661|-0.3043373823165894|0.03276563808321953|0.1621556282043457|0.06102359294891357|XArbitraryZVertical|-0.4873830494497366|0.0364009275810489|-0.03692926252740746|0.8716473729148734|0.02746015228331089|0.8523408174514771|-0.5222654938697815|0|0|0|-1|-1|3
2021-04-22 21:52:02.015 +0100|140532.83898375|0.047119140625|1.012496948242188|-0.394500732421875|140532.81902175|-0.06519400995173424|0.04962831812454865|-1.044566712442277|-0.9078024625778198|0.2744868397712708|-0.3258078098297119|0.05816652625799179|0.1639342904090881|0.05097562074661255|XArbitraryZVertical|-0.4977409885382948|0.0377458258313143|-0.04060849924529638|0.8655519698718789|0.02491691894829273|0.8647069931030273|-0.5016583204269409|0|0|0|-1|-1|3
2021-04-22 21:52:02.035 +0100|140532.85894475|0.0464935302734375|0.9854278564453125|-0.387786865234375|140532.83898375|-0.07722397042155484|0.04500487101799828|-1.058594875901594|-0.4893254935741425|0.316479504108429|-0.3327552676200867|0.03007402643561363|0.1685092449188232|0.08155167102813721|XArbitraryZVertical|-0.5036731306679033|0.0388935730943003|-0.04466433000536681|0.86186192176979|0.02204933390021324|0.8716676831245422|-0.489601343870163|0|0|0|-1|-1|3
2021-04-22 21:52:02.055 +0100|140532.87890675|0.0293121337890625|0.9534912109375|-0.3903656005859375|140532.85894475|-0.09044439776965153|0.04006623881656828|-1.064364543265757|-0.08201263099908829|0.3375009298324585|-0.3442604839801788|0.02778068371117115|0.1146095991134644|0.09393987059593201|XArbitraryZVertical|-0.5060141855916305|0.04017776804607513|-0.04910098345106582|0.8601886656768228|0.01942933350801468|0.8744808435440063|-0.4846707880496979|0|0|0|-1|-1|3
2021-04-22 21:52:02.075 +0100|140532.89886775|0.018646240234375|0.88372802734375|-0.4002685546875|140532.87890675|-0.1058878464068778|0.03347028559434113|-1.063040224396796|0.2069924622774124|0.3593030273914337|-0.4029976427555084|0.02303514629602432|0.1011536717414856|0.09045380353927612|XArbitraryZVertical|-0.5052997830790577|0.04122345730723476|-0.05408176663198514|0.8602604667867205|0.01627081073820591|0.8738377094268799|-0.4859455227851868|0|0|0|-1|-1|3
2021-04-22 21:52:02.095 +0100|140532.91882975|-0.0014801025390625|0.832305908203125|-0.4008941650390625|140532.89886775|-0.1230663968559977|0.02603392230644142|-1.057884990131577|0.2988561987876892|0.3891291320323944|-0.4180749654769897|0.0080689936876297|0.0508611798286438|0.09096890687942505|XArbitraryZVertical|-0.5029317685937099|0.04224517216578738|-0.05964212389220729|0.8612305219231121|0.01277382578700781|0.871319591999054|-0.4905499517917633|0|0|0|-1|-1|3
2021-04-22 21:52:02.115 +0100|140532.93879075|-0.0294647216796875|0.7993927001953125|-0.405181884765625|140532.91882975|-0.1410342283591017|0.01860370720684894|-1.052460663393006|0.2658611536026001|0.4358264803886414|-0.4534932076931|0.003462947905063629|-0.0160595178604126|0.1046034097671509|XArbitraryZVertical|-0.5004404347679605|0.04341150500289079|-0.06558386916378553|0.8621912861910159|0.009216402657330036|0.8686449527740479|-0.4953496158123016|0|0|0|-1|-1|3
2021-04-22 21:52:02.135 +0100|140532.95875275|-0.0543060302734375|0.7759857177734375|-0.384063720703125|140532.93879075|-0.1602970641284508|0.01106974390525115|-1.047838487083105|0.1980620920658112|0.4958933591842651|-0.5124223828315735|-0.01935379207134247|-0.0538298487663269|0.09496581554412842|XArbitraryZVertical|-0.4982800603198062|0.04482998874099792|-0.07208252904628115|0.8628508788226735|0.005528616718947887|0.8663457036018372|-0.4994145035743713|0|0|0|-1|-1|3
2021-04-22 21:52:02.155 +0100|140532.97871375|-0.0421295166015625|0.7371826171875|-0.3639678955078125|140532.95875275|-0.1836713518437477|0.001742474076150573|-1.045016894813113|-0.05447652563452721|0.5859804749488831|-0.6827913522720337|-0.04575134813785553|-0.07040733098983765|0.1061965823173523|XArbitraryZVertical|-0.4968829577400097|0.04651846635927315|-0.07990315062545802|0.8628783297581154|0.0008745254599489272|0.8649330139160156|-0.5018867254257202|0|0|0|-1|-1|3
2021-04-22 21:52:02.175 +0100|140532.99867575|-0.0753173828125|0.820281982421875|-0.35986328125|140532.97871375|-0.2112942896097832|-0.009925126310841127|-1.051870212467281|-0.4998152852058411|0.612664520740509|-0.7010458707809448|-0.03484288603067398|-0.1898544430732727|0.1176896095275879|XArbitraryZVertical|-0.4996693042567292|0.04866995440330287|-0.0887210248311885|0.860285160453141|-0.004922266583889723|0.8683522939682007|-0.495923638343811|0|0|0|-1|-1|3
2021-04-22 21:52:02.195 +0100|140533.01863775|-0.0591888427734375|0.8034210205078125|-0.3833465576171875|140532.99867575|-0.2421709232289359|-0.02400130785212764|-1.063657506335566|-0.8105435371398926|0.6675301194190979|-0.8042425513267517|-0.0559261366724968|-0.05902796983718872|0.09717258810997009|XArbitraryZVertical|-0.5046103312950112|0.05098215477789692|-0.09805797983229812|0.8562441436449048|-0.01165579631924629|0.8741376996040344|-0.4855384528636932|0|0|0|-1|-1|3
2021-04-22 21:52:02.227 +0100|140533.03859875|-0.0560760498046875|0.8229522705078125|-0.590301513671875|140533.01863775|-0.2755349605508413|-0.03954023409593856|-1.079645478870226|-1.286388278007507|0.6769735217094421|-0.7554807066917419|-0.05359193682670593|-0.06095892190933228|0.04253196716308594|XArbitraryZVertical|-0.5113432018632873|0.0537756246134628|-0.107715812495304|0.8509017840008815|-0.0186439473181963|0.8817906379699707|-0.4712726175785065|0|0|0|-1|-1|3
2021-04-22 21:52:02.242 +0100|140533.05856075|0.022308349609375|0.83905029296875|-0.5063629150390625|140533.03859875|-0.3083233489307202|-0.05432319716721134|-1.103586387353058|-0.7151577472686768|0.5878009796142578|-0.5544455647468567|-0.05318252369761467|-0.1996058225631714|0.02439486980438232|XArbitraryZVertical|-0.5213583408923551|0.05761110390055039|-0.1166463334247032|0.8433625008924975|-0.0244549885392189|0.8928284049034119|-0.4497328698635101|0|0|0|-1|-1|3
2021-04-22 21:52:02.254 +0100|140533.07852175|-0.028167724609375|0.9373931884765625|-0.4844207763671875|140533.05856075|-0.3378155582221135|-0.0723148431603762|-1.128766065333713|-0.985823929309845|0.3686587512493134|-0.5744451880455017|0.04271708428859711|0.06855803728103638|-0.06661242246627808|XArbitraryZVertical|-0.5320723123769492|0.05975129190672199|-0.1228818487194327|0.83560101845937|-0.03090757876634598|0.9038850069046021|-0.4266576766967773|0|0|0|-1|-1|3
2021-04-22 21:52:02.274 +0100|140533.09848375|0.00823974609375|0.7773284912109375|-0.464111328125|140533.07852175|-0.3631233219568218|-0.0886157247783583|-1.148951110223213|-0.8079492449760437|0.3646610975265503|-0.4209197461605072|0.06231224536895752|-0.0007287263870239258|-0.06525963544845581|XArbitraryZVertical|-0.5406521319260648|0.0614500148105704|-0.1277589541760573|0.8292147091827331|-0.03623579069972038|0.9123349785804749|-0.4078383445739746|0|0|0|-1|-1|3
2021-04-22 21:52:02.294 +0100|140533.11844475|-0.0209503173828125|0.661956787109375|-0.3855743408203125|140533.09848375|-0.3844546799850654|-0.1008160533516839|-1.163869337706752|-0.8080520033836365|0.2767497599124908|-0.3186553418636322|0.02562762051820755|-0.03233945369720459|-0.07391661405563354|XArbitraryZVertical|-0.5468737021860732|0.06355536121935879|-0.1322124883021|0.8242632556947563|-0.03983436897397041|0.9183413982391357|-0.3937797546386719|0|0|0|-1|-1|3
2021-04-22 21:52:02.314 +0100|140533.13840675|-0.0682525634765625|0.689544677734375|-0.40179443359375|140533.11844475|-0.4092740471350614|-0.1208336011405522|-1.184399819576216|-1.440349578857422|0.05679697915911674|-0.4074752032756805|0.05416826158761978|-0.2209504246711731|-0.02642178535461426|XArbitraryZVertical|-0.5557242852009304|0.06417040766324653|-0.1352999881561677|0.8177693250708552|-0.04542579501867294|0.9262730479240417|-0.3741053640842438|0|0|0|-1|-1|3
2021-04-22 21:52:02.334 +0100|140533.15836775|-0.095123291015625|1.019485473632812|-0.37994384765625|140533.13840675|-0.4414476568674796|-0.148518059371656|-1.217866234813616|-1.888195037841797|0.1755016446113586|-0.2367665022611618|-0.000932447612285614|-0.2937102913856506|-0.03147673606872559|XArbitraryZVertical|-0.5699009134837724|0.06550530988130733|-0.1376821427357971|0.8074439916514329|-0.05114661902189255|0.9383639693260193|-0.3418439924716949|0|0|0|-1|-1|3
2021-04-22 21:52:02.358 +0100|140533.17832975|-0.126861572265625|1.061904907226562|-0.4167327880859375|140533.15836775|-0.4697334719449229|-0.1709980251746698|-1.252828504120818|-1.780656337738037|0.2161485552787781|-0.2468332499265671|-0.02080578356981277|-0.1121954917907715|-0.06843236088752747|XArbitraryZVertical|-0.5841651954796687|0.06864632124479712|-0.1391527879577162|0.7966651093380861|-0.05320017412304878|0.9498727321624756|-0.3080774247646332|0|0|0|-1|-1|3
2021-04-22 21:52:02.374 +0100|140533.19829075|-0.191314697265625|1.013824462890625|-0.4097747802734375|140533.17832975|-0.5063941956210163|-0.2026561650390703|-1.280734039415582|-1.196668028831482|0.1042892932891846|-0.2993377447128296|-0.04739982634782791|0.0974382758140564|-0.1304082274436951|XArbitraryZVertical|-0.5957915874662014|0.07037617559276103|-0.1413281219152257|0.7874681488719144|-0.05756621807813644|0.9582260847091675|-0.2801591455936432|0|0|0|-1|-1|3
2021-04-22 21:52:02.394 +0100|140533.21825275|-0.2186737060546875|0.9087066650390625|-0.422821044921875|140533.19829075|-0.5478792733782115|-0.2407271308293359|-1.30011168869432|-1.016786336898804|0.1045387834310532|-0.3891912996768951|-0.09692737460136414|0.08319562673568726|-0.1609569489955902|XArbitraryZVertical|-0.6043057527961241|0.07052602955898749|-0.1438321461254966|0.7804825878780179|-0.06374850869178772|0.9635880589485168|-0.2596812844276428|0|0|0|-1|-1|3
2021-04-22 21:52:02.414 +0100|140533.23821375|-0.2110443115234375|0.97100830078125|-0.41180419921875|140533.21825275|-0.6011286389843629|-0.2890000215066015|-1.319187612276491|-1.180456757545471|0.2116681188344955|-0.3929347395896912|-0.1414197683334351|-0.007682204246520996|-0.1820457577705383|XArbitraryZVertical|-0.6129130233269313|0.07084146313277008|-0.1472346591081115|0.7730725995124856|-0.0709528923034668|0.9685131907463074|-0.2386382222175598|0|0|0|-1|-1|3
2021-04-22 21:52:02.434 +0100|140533.25817575|-0.2204437255859375|1.03533935546875|-0.38958740234375|140533.23821375|-0.6623053599037461|-0.3427594968872003|-1.340313631328725|-1.309366345405579|0.3025541603565216|-0.3569288551807404|-0.14610755443573|-0.0555262565612793|-0.1993449777364731|XArbitraryZVertical|-0.6222148343216191|0.07258863926330474|-0.1509118641698002|0.7647256314316211|-0.07677841186523438|0.9735562205314636|-0.2151591777801514|0|0|0|-1|-1|3
2021-04-22 21:52:02.454 +0100|140533.27813675|-0.207244873046875|1.037750244140625|-0.4073944091796875|140533.25817575|-0.737373161964479|-0.4116498882192389|-1.361250408902304|-1.225675702095032|0.1993508785963058|-0.3545420467853546|-0.1298273801803589|0.02710849046707153|-0.232608363032341|XArbitraryZVertical|-0.6318453552567247|0.07383687372410472|-0.1542098715732427|0.7560020139613602|-0.08323193341493607|0.9781254529953003|-0.1906391233205795|0|0|0|-1|-1|3
2021-04-22 21:52:02.474 +0100|140533.29809875|-0.1560821533203125|1.063385009765625|-0.4386138916015625|140533.27813675|-0.8170697932689611|-0.4858961202639908|-1.378693703907321|-1.030521273612976|0.201608881354332|-0.3001390993595123|-0.1357840001583099|0.07123655080795288|-0.222591295838356|XArbitraryZVertical|-0.6402948665351512|0.07489537205142939|-0.1571363609525555|0.74814545866628|-0.0891619473695755|0.9816049933433533|-0.1688263416290283|0|0|0|-1|-1|3
2021-04-22 21:52:02.494 +0100|140533.31806075|-0.1129913330078125|1.0521240234375|-0.3732757568359375|140533.29809875|-0.8837862167972089|-0.5481688384101892|-1.391377379917901|-0.7053693532943726|0.09684740751981735|-0.1704884171485901|-0.09027504920959473|0.05804473161697388|-0.2889422178268433|XArbitraryZVertical|-0.6465766788908902|0.07604796821521961|-0.1592072186498004|0.7421647058399023|-0.09299911558628082|0.9839475750923157|-0.1523106098175049|0|0|0|-1|-1|3
2021-04-22 21:52:02.514 +0100|140533.33802175|-0.0900421142578125|1.021957397460938|-0.4093475341796875|140533.31806075|-0.9348167292262135|-0.5980080063753778|-1.399741758171009|-0.5101230144500732|-0.04251271858811378|-0.1262509971857071|-0.03693299740552902|0.07382893562316895|-0.2645757794380188|XArbitraryZVertical|-0.651040769671669|0.07619147047821215|-0.159977644334468|0.7380704752618965|-0.09583459049463272|0.9854058027267456|-0.1406815499067307|0|0|0|-1|-1|3
2021-04-22 21:52:02.534 +0100|140533.35798375|-0.068695068359375|0.967254638671875|-0.3599853515625|140533.33802175|-0.972843217386808|-0.636877993500624|-1.405386545503036|-0.3413653671741486|-0.1022060886025429|-0.06437521427869797|-0.0004543736577033997|0.04865282773971558|-0.2565835118293762|XArbitraryZVertical|-0.6542767552112008|0.07571802129431601|-0.1599212088342688|0.7352646432421289|-0.09791988879442215|0.986350953578949|-0.132377415895462|0|0|0|-1|-1|3
2021-04-22 21:52:02.554 +0100|140533.37794475|-0.0686798095703125|0.96038818359375|-0.329193115234375|140533.35798375|-1.001624334734216|-0.6673313218202469|-1.410543086156223|-0.3838505148887634|-0.09707161784172058|0.02368238940834999|0.01835616677999496|0.009013652801513672|-0.2490974515676498|XArbitraryZVertical|-0.6570062225042087|0.07532770817553283|-0.1591991125093666|0.733024029534078|-0.09875557571649551|0.9871869087219238|-0.1253371238708496|0|0|0|-1|-1|3
2021-04-22 21:52:02.574 +0100|140533.39790675|-0.0734100341796875|0.977569580078125|-0.2647857666015625|140533.37794475|-1.027480675723841|-0.6952039035991912|-1.417203466677918|-0.3614259958267212|-0.1173183545470238|0.08744077384471893|0.02919360250234604|-0.03063195943832397|-0.244804248213768|XArbitraryZVertical|-0.6599755486035396|0.07543285445743804|-0.157753597350953|0.7306544770389762|-0.09799633175134659|0.9882277846336365|-0.1174843162298203|0|0|0|-1|-1|3
2021-04-22 21:52:02.594 +0100|140533.41786775|-0.0552520751953125|0.97393798828125|-0.2245330810546875|140533.39790675|-1.04095525328664|-0.7106940762342939|-1.423118010444361|-0.2136276066303253|-0.1014200896024704|0.1340922564268112|0.02500525116920471|-0.01931244134902954|-0.1836138814687729|XArbitraryZVertical|-0.6621828357483793|0.07585184132401844|-0.1559846685659671|0.7289919491047926|-0.09598997980356216|0.9891153573989868|-0.1115207821130753|0|0|0|-1|-1|3
2021-04-22 21:52:02.614 +0100|140533.43782975|-0.0488433837890625|0.9436798095703125|-0.1982879638671875|140533.41786775|-1.032758346578973|-0.7045319747408849|-1.427204319653994|0.01017303951084614|-0.1057598665356636|0.2201360613107681|0.02688558399677277|-0.007515311241149902|-0.132332980632782|XArbitraryZVertical|-0.6630479505370585|0.07650220185480264|-0.1539531571174276|0.7285693723267392|-0.09268233180046082|0.9897083640098572|-0.109029658138752|0|0|0|-1|-1|3
2021-04-22 21:52:02.634 +0100|140533.45779075|-0.0550689697265625|0.8468475341796875|-0.2024688720703125|140533.43782975|-0.9925229543525597|-0.6673436724169801|-1.428480610638859|0.2433870881795883|-0.1651324331760406|0.299233078956604|0.03797750920057297|-0.02298635244369507|-0.09136486053466797|XArbitraryZVertical|-0.6620839174247548|0.07707603530735582|-0.1512692077155914|0.7299465461949829|-0.08778304606676102|0.9898902177810669|-0.1114083454012871|0|0|0|-1|-1|3
2021-04-22 21:52:02.654 +0100|140533.47775275|-0.0606689453125|0.8175048828125|-0.1738128662109375|140533.45779075|-0.9168082429876619|-0.5955598764903194|-1.424342310867656|0.1883771568536758|-0.1805518120527267|0.292762964963913|0.02799913287162781|-0.09209316968917847|-0.0862843319773674|XArbitraryZVertical|-0.6585002543162255|0.07729082309457395|-0.148284340890665|0.7337679232553265|-0.08186350017786026|0.9892947673797607|-0.1208070889115334|0|0|0|-1|-1|3
2021-04-22 21:52:02.674 +0100|140533.49771375|-0.088043212890625|0.8847503662109375|-0.2051544189453125|140533.47775275|-0.8679922081469164|-0.5502214951022678|-1.424615202328191|-0.1881025433540344|-0.1246232986450195|0.2972458302974701|0.01923196017742157|-0.1688693165779114|-0.05891025066375732|XArbitraryZVertical|-0.6571462896086034|0.07795405622561487|-0.1452019269953446|0.7355260229607524|-0.07616334408521652|0.9893345236778259|-0.1241638362407684|0|0|0|-1|-1|3
2021-04-22 21:52:02.694 +0100|140533.51767575|-0.0612945556640625|0.972076416015625|-0.110626220703125|140533.49771375|-0.8502383390902863|-0.5339589471059418|-1.430749017710465|-0.4303284585475922|-0.01897570118308067|0.2324300110340118|-0.009019814431667328|-0.1450554728507996|-0.09607207030057907|XArbitraryZVertical|-0.6584818217133747|0.07951121828127941|-0.1426552169308432|0.7346626598934147|-0.07104388624429703|0.9902094006538391|-0.120159313082695|0|0|0|-1|-1|3
2021-04-22 21:52:02.713 +0100|140533.53763675|-0.0503692626953125|1.014678955078125|-0.0746612548828125|140533.51767575|-0.8507619463971364|-0.5339686963983893|-1.439139125303973|-0.4342769980430603|0.01703875884413719|0.1590540707111359|-0.01276031881570816|-0.06596088409423828|-0.0374920517206192|XArbitraryZVertical|-0.6609380498475287|0.08160046425125539|-0.140987104117876|0.7325470793154824|-0.06681512296199799|0.9913457036018372|-0.1130045205354691|0|0|0|-1|-1|3
2021-04-22 21:52:02.734 +0100|140533.55759875|-0.062896728515625|1.081924438476562|-0.04351806640625|140533.53763675|-0.8525176030911185|-0.5360637107203292|-1.443877847886504|-0.1976364403963089|-0.07813979685306549|0.05159782245755196|0.01443313807249069|0.01321613788604736|0.02400000393390656|XArbitraryZVertical|-0.6624064274694063|0.08250075011688407|-0.139884814959579|0.731330049876757|-0.06465064734220505|0.9919566512107849|-0.1088227033615112|0|0|0|-1|-1|3
2021-04-22 21:52:02.754 +0100|140533.57756075|-0.0509033203125|1.157150268554688|-0.017608642578125|140533.55759875|-0.858458761422905|-0.5440926421801475|-1.445591028170125|-0.2659530639648438|-0.1287418305873871|-0.01503908447921276|0.004216916859149933|0.0440218448638916|0.05124391615390778|XArbitraryZVertical|-0.6632228809261573|0.08192918594771148|-0.1390132855687518|0.7308203531594269|-0.06464254856109619|0.9921720623970032|-0.106846034526825|0|0|0|-1|-1|3
2021-04-22 21:52:02.773 +0100|140533.59752175|-0.084442138671875|1.229278564453125|0.043701171875|140533.57756075|-0.8913678167702136|-0.5795028292973793|-1.4485617279109|-0.4428271353244781|-0.1638108640909195|-0.1294550597667694|0.007642067968845367|0.1368255019187927|0.06374096870422363|XArbitraryZVertical|-0.6651963056132593|0.08063292622124475|-0.1385860845614963|0.7292504763639004|-0.06677070260047913|0.9925386309623718|-0.1020244136452675|0|0|0|-1|-1|3
2021-04-22 21:52:02.793 +0100|140533.61748375|-0.06903076171875|1.23712158203125|0.0919189453125|140533.59752175|-0.9508387441079356|-0.6419942915746227|-1.454126758419812|-0.4282575845718384|-0.1343350410461426|-0.1601641476154327|0.007996253669261932|0.1785817742347717|0.09208697080612183|XArbitraryZVertical|-0.6686758154648136|0.07910372525710639|-0.1380451096925522|0.7263325778444844|-0.06970362365245819|0.9932018518447876|-0.09323050826787949|0|0|0|-1|-1|3
2021-04-22 21:52:02.813 +0100|140533.63744475|-0.052825927734375|1.246383666992188|0.1201019287109375|140533.61748375|-1.015604889181379|-0.7078487075552906|-1.456785042998675|-0.2068821787834167|-0.04529689624905586|-0.2262965589761734|-0.01678947359323502|0.2417829036712646|0.1469522714614868|XArbitraryZVertical|-0.6713841612124452|0.0776260890069953|-0.1387803064889529|0.7238492222183439|-0.07397063076496124|0.9935077428817749|-0.08643499761819839|0|0|0|-1|-1|3
2021-04-22 21:52:02.833 +0100|140533.65740675|-0.0742645263671875|1.178543090820312|0.133209228515625|140533.63744475|-1.056255544873588|-0.7497851277802207|-1.454777103168142|-0.02362344041466713|-0.1115770116448402|-0.2747642397880554|0.02632097899913788|0.2572263479232788|0.1791547536849976|XArbitraryZVertical|-0.6722591168528999|0.07555815555964714|-0.1399388421622891|0.7230324214582995|-0.07888833433389664|0.9932773113250732|-0.0847172886133194|0|0|0|-1|-1|3
2021-04-22 21:52:02.853 +0100|140533.67736775|-0.0539093017578125|1.160598754882812|0.1061859130859375|140533.65740675|-1.094972607226035|-0.7901102412969944|-1.451378255558321|-0.07651237398386002|-0.03271212801337242|-0.2649019956588745|0.02094559371471405|0.208644688129425|0.2137264013290405|XArbitraryZVertical|-0.6728625646587897|0.07303843883790928|-0.1413153320912964|0.7224619709206155|-0.08463660627603531|0.9928781390190125|-0.08384270966053009|0|0|0|-1|-1|3
2021-04-22 21:52:02.873 +0100|140533.69732975|-0.0338592529296875|1.10699462890625|0.0936431884765625|140533.67736775|-1.141194078548994|-0.8355980904469017|-1.449404054907066|-0.2064501047134399|0.0365290492773056|-0.2811165750026703|0.02006684243679047|0.1853528022766113|0.2076116800308228|XArbitraryZVertical|-0.6739893021339138|0.07160500668518474|-0.1432477243955874|0.7211735335580693|-0.08981559425592422|0.9926409721374512|-0.0812222883105278|0|0|0|-1|-1|3
2021-04-22 21:52:02.893 +0100|140533.71729075|-0.04119873046875|1.125274658203125|0.0908050537109375|140533.69732975|-1.210148039007872|-0.9034297138245144|-1.449277004617476|-0.4123546481132507|0.02985442243516445|-0.2520590126514435|0.05814970284700394|0.1295973658561707|0.1727294325828552|XArbitraryZVertical|-0.6764071402512889|0.07042808837497859|-0.1452065909669964|0.7186295838324993|-0.09521413594484329|0.9926255941390991|-0.07502652704715729|0|0|0|-1|-1|3
2021-04-22 21:52:02.913 +0100|140533.73725275|-0.0193023681640625|1.075836181640625|0.109100341796875|140533.71729075|-1.292426577709035|-0.9838261817773989|-1.450779703495327|-0.4411365985870361|0.1042429581284523|-0.2035677284002304|0.06015370786190033|0.1280277967453003|0.1611152291297913|XArbitraryZVertical|-0.6796669673258077|0.06997911318116214|-0.1469781074223102|0.7152295883241275|-0.09969006478786469|0.9928066730499268|-0.06631147116422653|0|0|0|-1|-1|3
2021-04-22 21:52:02.933 +0100|140533.75721375|-0.0188140869140625|1.071243286132812|0.1383209228515625|140533.73725275|-1.364362302591313|-1.052381431156067|-1.452209784337424|-0.3719508945941925|0.1710489392280579|-0.1054954826831818|0.07001828402280807|0.1148570775985718|0.1487269401550293|XArbitraryZVertical|-0.6824374587126805|0.07048156415111405|-0.148842482060295|0.7121499104918865|-0.1027644947171211|0.9929768443107605|-0.05862292647361755|0|0|0|-1|-1|3
2021-04-22 21:52:02.953 +0100|140533.77717575|-0.032073974609375|1.06573486328125|0.15594482421875|140533.75721375|-1.421455996996917|-1.104886849481222|-1.454558947087156|-0.3041664361953735|0.2393279224634171|-0.01228315755724907|0.08602146059274673|0.06344974040985107|0.1901329755783081|XArbitraryZVertical|-0.6846514437772296|0.07212373381363701|-0.1504144428014073|0.7095253687047135|-0.1036156937479973|0.9932520389556885|-0.05210113525390625|0|0|0|-1|-1|3
2021-04-22 21:52:02.973 +0100|140533.79713675|-0.0610809326171875|1.003662109375|0.1884613037109375|140533.77717575|-1.455986882399662|-1.134687387702259|-1.456616601214545|-0.1507983058691025|0.2197632193565369|0.01183824613690376|0.08376657962799072|0.09250986576080322|0.1911481618881226|XArbitraryZVertical|-0.6858907209486087|0.07409856077442002|-0.1517499485996796|0.7078384636501759|-0.103268139064312|0.9934885501861572|-0.04812664538621902|0|0|0|-1|-1|3
2021-04-22 21:52:02.993 +0100|140533.81709875|-0.085845947265625|0.9686126708984375|0.1936492919921875|140533.79713675|-1.470124657169822|-1.144194122590766|-1.458431805337118|-0.07460039108991623|0.2422381043434143|0.08752359449863434|0.05569220334291458|0.03389418125152588|0.2206224799156189|XArbitraryZVertical|-0.6862898736658913|0.07620904908780242|-0.1528778053676146|0.7069843511866518|-0.1020797714591026|0.9936937689781189|-0.04639678075909615|0|0|0|-1|-1|3
2021-04-22 21:52:03.013 +0100|140533.83705975|-0.108001708984375|0.9228973388671875|0.1904296875|140533.81709875|-1.478081859090641|-1.146645966665761|-1.461098464356776|-0.132321685552597|0.3063631355762482|0.1218434870243073|0.02395527064800262|-0.0006878972053527832|0.237713634967804|XArbitraryZVertical|-0.6864638530774624|0.07899194922821873|-0.1539465764427015|0.7062776401766394|-0.09977702796459198|0.9939892292022705|-0.04505529999732971|0|0|0|-1|-1|3
2021-04-22 21:52:03.033 +0100|140533.85702175|-0.13519287109375|0.974395751953125|0.196990966796875|140533.83705975|-1.498854846747657|-1.160532949156519|-1.464979919646368|-0.2380964457988739|0.3643869161605835|0.1665458083152771|-0.0003131777048110962|-0.04358565807342529|0.2371655106544495|XArbitraryZVertical|-0.6871095585931375|0.08256539916525467|-0.1551917596291188|0.7049674354938228|-0.09685564786195755|0.9944066405296326|-0.04212681949138641|0|0|0|-1|-1|3
2021-04-22 21:52:03.053 +0100|140533.87698375|-0.1414794921875|0.983917236328125|0.1692962646484375|140533.85702175|-1.545411278394647|-1.198800526795371|-1.472356302313495|-0.2464635223150253|0.4539707601070404|0.2288611084222794|-0.02904523909091949|-0.0659899115562439|0.2375524044036865|XArbitraryZVertical|-0.6888037392147089|0.08767911044011459|-0.1558912401682769|0.7025382025325655|-0.09156108647584915|0.9951586723327637|-0.03572356328368187|0|0|0|-1|-1|3
2021-04-22 21:52:03.073 +0100|140533.89694475|-0.1343841552734375|0.96875|0.146636962890625|140533.87698375|-1.59491380100696|-1.238508257691955|-1.479912951986209|-0.05999835580587387|0.5235766768455505|0.1986563354730606|-0.05506067723035812|-0.0002522468566894531|0.2155352830886841|XArbitraryZVertical|-0.6902607063477761|0.09347247557503774|-0.1569537726628445|0.7001204209714316|-0.08579406887292862|0.995872974395752|-0.02960610762238503|0|0|0|-1|-1|3
2021-04-22 21:52:03.093 +0100|140533.91690675|-0.1466217041015625|0.964935302734375|0.14739990234375|140533.89694475|-1.623142759650418|-1.256348851512879|-1.485130458019298|0.06512760370969772|0.543574333190918|0.1870183199644089|-0.05369051545858383|-0.03093987703323364|0.1831414103507996|XArbitraryZVertical|-0.6906541988847439|0.09881862454712713|-0.1588558045428672|0.6985674598415501|-0.08136590570211411|0.9963329434394836|-0.02646331489086151|0|0|0|-1|-1|3
2021-04-22 21:52:03.113 +0100|140533.93686775|-0.153839111328125|0.949188232421875|0.1706085205078125|140533.91690675|-1.63564682961162|-1.25846300364562|-1.488680569162971|0.1440572440624237|0.5397986769676208|0.1516041308641434|-0.064081110060215|-0.02897906303405762|0.1616491675376892|XArbitraryZVertical|-0.690401507644424|0.1036514778043211|-0.1612561202191239|0.697566209120946|-0.07805539667606354|0.9966303706169128|-0.0252042580395937|0|0|0|-1|-1|3
2021-04-22 21:52:03.133 +0100|140533.95682975|-0.156890869140625|0.9342803955078125|0.1488800048828125|140533.93686775|-1.659155439375746|-1.270760316336398|-1.491506338283611|0.0426960289478302|0.607769250869751|0.1562446057796478|-0.07433938980102539|-0.03323501348495483|0.1878401637077332|XArbitraryZVertical|-0.6903092121089812|0.1084797754862107|-0.1642195871066546|0.6962308851279015|-0.07567064464092255|0.9968581795692444|-0.02341065928339958|0|0|0|-1|-1|3
2021-04-22 21:52:03.153 +0100|140533.97679075|-0.1248016357421875|0.9385528564453125|0.0841064453125|140533.95682975|-1.721367477204864|-1.320287962893565|-1.494808405081132|-0.1450465172529221|0.6618825793266296|0.1491014659404755|-0.08255232125520706|-0.05917179584503174|0.1949979662895203|XArbitraryZVertical|-0.6910941294813884|0.1139267451763133|-0.1675788807795412|0.6937773257032654|-0.07354597747325897|0.9971143007278442|-0.01881920173764229|0|0|0|-1|-1|3
2021-04-22 21:52:03.173 +0100|140533.99675275|-0.07916259765625|0.9457855224609375|0.047332763671875|140533.97679075|-1.827656519320721|-1.413277923965743|-1.497777785909764|-0.3105234205722809|0.6634271740913391|0.1182801723480225|-0.07522600144147873|-0.05289250612258911|0.1339122653007507|XArbitraryZVertical|-0.6928042336763406|0.1195829169937604|-0.171141313436141|0.6902412897817016|-0.0720527172088623|0.9973353147506714|-0.01144443918019533|0|0|0|-1|-1|3
2021-04-22 21:52:03.193 +0100|140534.01671375|-0.089111328125|1.008773803710938|0.026275634765625|140533.99675275|-1.982767622701908|-1.556184559952054|-1.49999970740949|-0.5038545727729797|0.5428431630134583|0.1433265805244446|-0.02498815208673477|-0.05953723192214966|0.05918562412261963|XArbitraryZVertical|-0.695589840235757|0.1250519249262654|-0.1741184925334084|0.6857110364568658|-0.07073114067316055|0.9974949955940247|-0.001033580512739718|0|0|0|-1|-1|3
2021-04-22 21:52:03.213 +0100|140534.03667575|-0.09527587890625|1.021591186523438|-0.0323944091796875|140534.01671375|-2.178260057303303|-1.741705242944865|-1.499984312209538|-0.5851498246192932|0.4441299438476562|0.135793924331665|-0.01359125226736069|-0.0244104266166687|0.01569235138595104|XArbitraryZVertical|-0.6993934218772458|0.1298678182865005|-0.176185762125953|0.6803982750763357|-0.06972264498472214|0.9974938631057739|0.01203361712396145|0|0|0|-1|-1|3
2021-04-22 21:52:03.233 +0100|140534.05663675|-0.0804290771484375|1.077285766601562|-0.089752197265625|140534.03667575|-2.377627199925626|-1.9321345787005|-1.496279583111287|-0.574446976184845|0.423092782497406|0.09646835923194885|-0.03312669694423676|0.02668565511703491|-0.03269731998443604|XArbitraryZVertical|-0.7036836049194388|0.134124446952761|-0.1780714547381513|0.6746337661683127|-0.06964216381311417|0.9972249269485474|0.0263199657201767|0|0|0|-1|-1|3
2021-04-22 21:52:03.253 +0100|140534.07659875|-0.0648193359375|1.114608764648438|-0.126220703125|140534.05663675|-2.52805052263238|-2.074158999205744|-1.491095510024194|-0.4363249540328979|0.3745662868022919|0.08289741724729538|-0.01561393588781357|0.04228287935256958|-0.0929560661315918|XArbitraryZVertical|-0.7072219276898332|0.1379874161000978|-0.1799625562118487|0.6696345217033661|-0.06974465399980545|0.9968255758285522|0.03840676322579384|0|0|0|-1|-1|3
2021-04-22 21:52:03.272 +0100|140534.09655975|-0.0623779296875|1.078277587890625|-0.1570281982421875|140534.07659875|-2.601888158115047|-2.140840403738075|-1.488108461245962|-0.1531484723091125|0.3325654566287994|0.07273915410041809|-0.004851743578910828|0.1103503704071045|-0.1572294235229492|XArbitraryZVertical|-0.7087910182117952|0.1410765009904541|-0.1817781399324003|0.6668355225223688|-0.06953578442335129|0.9965832829475403|0.04457457363605499|0|0|0|-1|-1|3
2021-04-22 21:52:03.292 +0100|140534.11652175|-0.0783538818359375|1.087051391601562|-0.1597137451171875|140534.09655975|-2.623426096923861|-2.156619131742054|-1.487981444326456|-0.03605214506387711|0.2383574545383453|0.04502780362963676|0.005620941519737244|0.1175937056541443|-0.1999415010213852|XArbitraryZVertical|-0.7087306830385216|0.1434201266243237|-0.1833939506172436|0.6659568030370774|-0.06893061846494675|0.9965727925300598|0.04573702812194824|0|0|0|-1|-1|3
2021-04-22 21:52:03.313 +0100|140534.13648375|-0.068267822265625|1.074172973632812|-0.1956024169921875|140534.11652175|-2.629721645957134|-2.158416767633602|-1.488713130954996|-0.01888659037649632|0.2072331011295319|0.05742579698562622|-0.003219433128833771|0.06498187780380249|-0.2036722898483276|XArbitraryZVertical|-0.7082621653440254|0.1452308945523279|-0.1846781234211794|0.6657076811082473|-0.06823840737342834|0.9966330528259277|0.04545461386442184|0|0|0|-1|-1|3
2021-04-22 21:52:03.332 +0100|140534.15644475|-0.043609619140625|1.037734985351562|-0.2333984375|140534.13648375|-2.616886919100994|-2.141665833638318|-1.490108057227569|-0.001005429541692138|0.1699067056179047|0.03904217109084129|-0.009967707097530365|0.09843802452087402|-0.2120422124862671|XArbitraryZVertical|-0.7073074444329951|0.146607869038811|-0.1860009380347438|0.6660526991777205|-0.06782256066799164|0.9967464804649353|0.0435553751885891|0|0|0|-1|-1|3
2021-04-22 21:52:03.352 +0100|140534.17640675|-0.0486297607421875|1.052886962890625|-0.2566375732421875|140534.15644475|-2.6138099858262|-2.135844958711618|-1.491092045939217|-0.05534107238054276|0.07746018469333649|0.03733819350600243|0.01168731600046158|0.04538053274154663|-0.2574617862701416|XArbitraryZVertical|-0.7067537382032542|0.1477028912132715|-0.1867961216498531|0.6661759178987948|-0.06724549829959869|0.9968252778053284|0.04263398051261902|0|0|0|-1|-1|3
2021-04-22 21:52:03.372 +0100|140534.19636775|-0.088287353515625|1.057022094726562|-0.258819580078125|140534.17640675|-2.6364305296601|-2.157912230787991|-1.490316739487358|-0.1414158493280411|-0.01710573583841324|0.01406029984354973|0.02838674932718277|0.05294990539550781|-0.289254903793335|XArbitraryZVertical|-0.707329766097859|0.1481628494122204|-0.1867106473727015|0.6654859922903821|-0.06693139672279358|0.996763288974762|0.04453525692224503|0|0|0|-1|-1|3
2021-04-22 21:52:03.392 +0100|140534.21632975|-0.0889739990234375|1.044692993164062|-0.2443389892578125|140534.19636775|-2.666126893257066|-2.188154828547128|-1.489328798286067|-0.09541570395231247|-0.02578380703926086|0.0218243021517992|-0.003300584852695465|0.06140685081481934|-0.3157235383987427|XArbitraryZVertical|-0.7081934414162965|0.1483789895216073|-0.1861127689109314|0.6646862648278182|-0.06635673344135284|0.9966833591461182|0.04710854962468147|0|0|0|-1|-1|3
2021-04-22 21:52:03.412 +0100|140534.23629075|-0.0933380126953125|1.011199951171875|-0.227142333984375|140534.21632975|-2.678469127656125|-2.200958194901054|-1.489145174206212|-0.00222497433423996|-0.03355634957551956|0.02421803958714008|-0.02468094974756241|0.05234283208847046|-0.3017387390136719|XArbitraryZVertical|-0.7085144734776074|0.1484531764731236|-0.185720828570719|0.6644371693058007|-0.065896175801754|0.9966683983802795|0.04806220903992653|0|0|0|-1|-1|3
2021-04-22 21:52:03.432 +0100|140534.25625275|-0.119598388671875|0.9893951416015625|-0.23345947265625|140534.23629075|-2.666314691598642|-2.189910672281292|-1.490760988961597|0.157428652048111|-0.07050617039203644|0.06803671270608902|-0.02671617269515991|0.03622114658355713|-0.2827702760696411|XArbitraryZVertical|-0.707980232584819|0.1481977361766161|-0.1852274360817419|0.6652009935496558|-0.0651121661067009|0.9967988729476929|0.04639715701341629|0|0|0|-1|-1|3
2021-04-22 21:52:03.452 +0100|140534.27621375|-0.1146087646484375|0.90716552734375|-0.2578582763671875|140534.25625275|-2.636266803444367|-2.161493453399697|-1.494362579973432|0.1954106986522675|-0.06754696369171143|0.08718590438365936|-0.04381819814443588|-0.007380068302154541|-0.2709516286849976|XArbitraryZVertical|-0.7066766144475632|0.1478928834550052|-0.1844358386795471|0.6668728296189932|-0.06342149525880814|0.997080385684967|0.04252828657627106|0|0|0|-1|-1|3
2021-04-22 21:52:03.472 +0100|140534.29617575|-0.1022491455078125|0.8603668212890625|-0.29901123046875|140534.27621375|-2.615134922000358|-2.141635307145418|-1.497340032256173|0.05397672951221466|-0.03749457746744156|0.09312377870082855|-0.06293918192386627|-0.04451394081115723|-0.289015531539917|XArbitraryZVertical|-0.7056822288815051|0.1477876110249396|-0.1836851675639602|0.6681552096088533|-0.06175659224390984|0.997303307056427|0.03965717181563377|0|0|0|-1|-1|3
2021-04-22 21:52:03.492 +0100|140534.31613675|-0.083038330078125|0.857818603515625|-0.3005828857421875|140534.29617575|-2.579013755801414|-2.105656675451965|-1.501007060258768|-0.1801297813653946|0.008455762639641762|0.1205277964472771|-0.0491822324693203|-0.1247782111167908|-0.3289709091186523|XArbitraryZVertical|-0.7041764418578854|0.1480138543077554|-0.1833825083013973|0.6697749012877989|-0.05999535322189331|0.997565746307373|0.03554512560367584|0|0|0|-1|-1|3
2021-04-22 21:52:03.512 +0100|140534.33609875|-0.03887939453125|0.8448486328125|-0.230194091796875|140534.31613675|-2.594031948635879|-2.119067548137953|-1.50178324357114|-0.3906279802322388|0.09322162717580795|0.05505575612187386|-0.0370204821228981|-0.1319121718406677|-0.3399118185043335|XArbitraryZVertical|-0.7041076771613429|0.1490084486061802|-0.1834962080885338|0.669595434194498|-0.05885142460465431|0.9976195693016052|0.03594227880239487|0|0|0|-1|-1|3
2021-04-22 21:52:03.532 +0100|140534.35605975|-0.0367584228515625|0.9154815673828125|-0.16400146484375|140534.33609875|-2.628155461613776|-2.151362925481549|-1.501174155992913|-0.3127584755420685|0.01849561557173729|0.1203912645578384|-0.0005950070917606354|-0.1667516827583313|-0.3020566701889038|XArbitraryZVertical|-0.7046682192850043|0.1500700414511235|-0.1836864092543966|0.6687159116914251|-0.05816750228404999|0.9975773692131042|0.03815663233399391|0|0|0|-1|-1|3
2021-04-22 21:52:03.552 +0100|140534.37602175|-0.0165252685546875|0.826446533203125|-0.1720123291015625|140534.35605975|-2.615084093258913|-2.1388464984365|-1.502828580096434|-0.07104581594467163|-0.0888262614607811|0.08247318118810654|0.02494830638170242|-0.09780383110046387|-0.2220399379730225|XArbitraryZVertical|-0.7040964321286165|0.1500598749630416|-0.1833257724939327|0.6694192398641459|-0.05725210905075073|0.9976910948753357|0.03653950244188309|0|0|0|-1|-1|3
2021-04-22 21:52:03.572 +0100|140534.39598375|0.0144805908203125|0.82757568359375|-0.1565704345703125|140534.37602175|-2.538208325031259|-2.063727210838646|-1.5062003080504|-0.02611947245895863|-0.1232099086046219|0.1065724790096283|0.0242280401289463|-0.1186877489089966|-0.1972789764404297|XArbitraryZVertical|-0.7021730320702855|0.1490854798230018|-0.1831118955861809|0.6717117503976445|-0.05686753243207932|0.9979143738746643|0.03054689429700375|0|0|0|-1|-1|3
2021-04-22 21:52:03.592 +0100|140534.41594475|0.02142333984375|0.827392578125|-0.1174468994140625|140534.39598375|-2.540243105022188|-2.068950419331922|-1.508714229439487|-0.2335550338029861|-0.2154659032821655|0.1501100063323975|0.05721963942050934|-0.1903952360153198|-0.1856048107147217|XArbitraryZVertical|-0.7019313289058693|0.1487115851549624|-0.1813085556840641|0.6725359883127362|-0.05450452491641045|0.9980735182762146|0.02964545227587223|0|0|0|-1|-1|3
2021-04-22 21:52:03.612 +0100|140534.43590675|0.0159149169921875|0.8458251953125|-0.049652099609375|140534.41594475|-2.660173369303452|-2.193642509303166|-1.507671275603371|-0.4483099281787872|-0.2875377237796783|0.1799074113368988|0.07385155558586121|-0.1584696769714355|-0.1843065023422241|XArbitraryZVertical|-0.7044678650872237|0.1487457960806078|-0.1779954066715645|0.6707588701887782|-0.05123896524310112|0.9980082511901855|0.0368005707859993|0|0|0|-1|-1|3
2021-04-22 21:52:03.632 +0100|140534.45586775|0.0525970458984375|0.8689422607421875|0.0415191650390625|140534.43590675|-2.827619144882232|-2.366645923485931|-1.502422481018823|-0.70880126953125|-0.2913970053195953|0.1286885142326355|0.06417594850063324|-0.1531809568405151|-0.1136326789855957|XArbitraryZVertical|-0.7086804266287292|0.1489263943017486|-0.1739644116660659|0.6673301522354235|-0.04780419915914536|0.9976634383201599|0.04881403595209122|0|0|0|-1|-1|3
2021-04-22 21:52:03.652 +0100|140534.47582975|0.0498809814453125|0.9268798828125|0.084625244140625|140534.45586775|-2.988411177508607|-2.533362988091772|-1.493193025820875|-0.7426581978797913|-0.3678666651248932|0.1708275377750397|0.08189709484577179|-0.1582146883010864|-0.06658315658569336|XArbitraryZVertical|-0.7138312857185782|0.1491869643158515|-0.1695721427410726|0.662897863410147|-0.04430036246776581|0.9969903826713562|0.06362371146678925|0|0|0|-1|-1|3
2021-04-22 21:52:03.672 +0100|140534.49579075|0.0317840576171875|0.896209716796875|0.097259521484375|140534.47582975|-3.103052990248009|-2.656205300764093|-1.483181168626968|-0.5834047794342041|-0.4823921024799347|0.1147017776966095|0.0978161096572876|-0.09169948101043701|-0.007221587002277374|XArbitraryZVertical|-0.7187805440889858|0.148503490151929|-0.1645431818297895|0.6589589694194841|-0.04082546010613441|0.9961642622947693|0.07739751785993576|0|0|0|-1|-1|3
2021-04-22 21:52:03.691 +0100|140534.51575275|0.0436248779296875|0.8549957275390625|0.1630706787109375|140534.49579075|3.120314861972019|-2.725749418178607|-1.475287874592188|-0.4073772430419922|-0.5014266967773438|0.03377106413245201|0.07439616322517395|-0.07410162687301636|-0.00351155549287796|XArbitraryZVertical|-0.7225983626671777|0.1465273912868568|-0.1597597198527746|0.656397961016043|-0.03852366283535957|0.9954425096511841|0.08723734319210052|0|0|0|-1|-1|3
2021-04-22 21:52:03.711 +0100|140534.535714375|0.0601806640625|0.90289306640625|0.198028564453125|140534.51575275|3.088382193773006|-2.76723931174622|-1.467546916923756|-0.4848988056182861|-0.4753721058368683|-0.05009276419878006|0.07293581962585449|-0.1335294842720032|0.03134453296661377|XArbitraryZVertical|-0.7261084314272933|0.1439843087455143|-0.1556520803338973|0.6540700794204787|-0.03768891841173172|0.9946745038032532|0.09592986851930618|0|0|0|-1|-1|3
2021-04-22 21:52:03.732 +0100|140534.555676375|0.0452423095703125|0.971954345703125|0.2499542236328125|140534.535714375|3.070570643220643|-2.794928143114023|-1.455492479324054|-0.7185932993888855|-0.5406262278556824|-0.1863576620817184|0.09156376123428345|-0.1194890141487122|0.05910765379667282|XArbitraryZVertical|-0.730950650159689|0.140762333580422|-0.1519575897513605|0.6502354590436268|-0.03908967599272728|0.9933598637580872|0.1082057729363441|0|0|0|-1|-1|3
2021-04-22 21:52:03.751 +0100|140534.575637375|0.0149078369140625|1.085128784179688|0.340240478515625|140534.555676375|3.06616473420446|-2.811103734439679|-1.438876807784735|-0.810474157333374|-0.6311588883399963|-0.3234192132949829|0.1020405739545822|-0.05875509977340698|0.1039136573672295|XArbitraryZVertical|-0.7373155044772678|0.1362924614992042|-0.1481478980624581|0.6448585054672005|-0.04268477857112885|0.991311252117157|0.1244195774197578|0|0|0|-1|-1|3
2021-04-22 21:52:03.771 +0100|140534.595599375|-0.0388031005859375|1.198822021484375|0.4053497314453125|140534.575637375|3.082118482837905|-2.80798198914195|-1.42233855483961|-0.6502648591995239|-0.6368675827980042|-0.4180238246917725|0.07657167315483093|0.03712260723114014|0.1460392326116562|XArbitraryZVertical|-0.7435315607346484|0.1305379478916955|-0.1448686394159079|0.6396356994568347|-0.04843534901738167|0.9890003800392151|0.1397586762905121|0|0|0|-1|-1|3
2021-04-22 21:52:03.791 +0100|140534.615560375|-0.074371337890625|1.202606201171875|0.4255523681640625|140534.595599375|3.116801068428485|-2.786349825113486|-1.410653366965871|-0.2092653810977936|-0.6071521043777466|-0.4721926152706146|0.04531523585319519|0.1623773574829102|0.229616641998291|XArbitraryZVertical|-0.7479434260822959|0.1238250328322007|-0.1424300955034583|0.6363660950040438|-0.05546320229768753|0.9872044920921326|0.1495040208101273|0|0|0|-1|-1|3
2021-04-22 21:52:03.811 +0100|140534.635522375|-0.07891845703125|1.104629516601562|0.418701171875|140534.615560375|-3.10694765909894|-2.738354846260155|-1.407770393418103|0.2332006096839905|-0.4736826419830322|-0.5160592794418335|-0.004503652453422546|0.239837110042572|0.2601970434188843|XArbitraryZVertical|-0.7490247546794332|0.1166455950425692|-0.1416558081089445|0.6366235696219597|-0.0636887401342392|0.9867406487464905|0.1492885500192642|0|0|0|-1|-1|3
2021-04-22 21:52:03.831 +0100|140534.655484375|-0.078460693359375|1.0267333984375|0.3951873779296875|140534.635522375|-3.03478917307674|-2.675594630731819|-1.40912005687359|0.3088287115097046|-0.3746666312217712|-0.4942912757396698|-0.002333752810955048|0.1578471660614014|0.2857860326766968|XArbitraryZVertical|-0.7482352189539482|0.1097698332693363|-0.1420313187679774|0.6386877439180612|-0.07232837378978729|0.9869588613510132|0.1438107192516327|0|0|0|-1|-1|3
2021-04-22 21:52:03.851 +0100|140534.675445375|-0.0829315185546875|1.010833740234375|0.3524322509765625|140534.655484375|-2.968427378551962|-2.616616447251261|-1.408718664918371|0.1894610971212387|-0.2630923390388489|-0.4745243787765503|0.0001271665096282959|0.08039706945419312|0.2683813571929932|XArbitraryZVertical|-0.7476989000318806|0.1037597123129857|-0.1429152846289687|0.6401216089802754|-0.08087753504514694|0.9868941307067871|0.1396394520998001|0|0|0|-1|-1|3
2021-04-22 21:52:03.871 +0100|140534.695407375|-0.07794189453125|0.942047119140625|0.4064788818359375|140534.675445375|-2.927667019231564|-2.581181454817631|-1.403955359060322|-0.2886656820774078|-0.2482731640338898|-0.4097626209259033|0.02398473769426346|0.00958251953125|0.273672342300415|XArbitraryZVertical|-0.7486576719387299|0.09921957767970632|-0.1437112692844683|0.6395422058107026|-0.0882708728313446|0.9861143231391907|0.140665665268898|0|0|0|-1|-1|3
2021-04-22 21:52:03.891 +0100|140534.715368375|-0.066314697265625|0.989013671875|0.39404296875|140534.695407375|-2.903706444456812|-2.561253288440582|-1.394702827226092|-0.2473443448543549|-0.1311303079128265|-0.3755910694599152|0.003464795649051666|0.01044422388076782|0.2307093143463135|XArbitraryZVertical|-0.751114557753637|0.09528379826443775|-0.1447524907462128|0.6370202913117106|-0.09605597704648972|0.9845355749130249|0.1465041637420654|0|0|0|-1|-1|3
2021-04-22 21:52:03.911 +0100|140534.735330375|-0.096832275390625|1.049224853515625|0.3203582763671875|140534.715368375|-2.886071767438428|-2.546188440498719|-1.388544106232023|-0.2431931644678116|-0.1198066547513008|-0.2067201137542725|0.03016185760498047|-0.05556648969650269|0.2398214042186737|XArbitraryZVertical|-0.7526391906218961|0.0925345193359451|-0.145651790989279|0.6354189090535901|-0.1016501262784004|0.9834379553794861|0.150056779384613|0|0|0|-1|-1|3
2021-04-22 21:52:03.931 +0100|140534.755291375|-0.1188507080078125|0.9001312255859375|0.3014373779296875|140534.735330375|-2.870600481230158|-2.533071674856452|-1.383825015141277|0.01994860544800758|-0.07953790575265884|-0.2538750171661377|0.008543446660041809|0.08861035108566284|0.1529342979192734|XArbitraryZVertical|-0.7537450485297419|0.09014923913988845|-0.1463511830970095|0.6342892940387901|-0.1062615662813187|0.9825717210769653|0.1525169610977173|0|0|0|-1|-1|3
2021-04-22 21:52:03.951 +0100|140534.775253375|-0.1650848388671875|0.9349822998046875|0.278533935546875|140534.755291375|-2.850359911309231|-2.514221911979253|-1.38332198954011|0.04341160133481026|-0.006120569538325071|-0.09061852842569351|0.01034668833017349|-0.04532921314239502|0.1494371742010117|XArbitraryZVertical|-0.7534088450283587|0.08842335526715503|-0.1471062150484801|0.6347568471482249|-0.1094075888395309|0.9824780821800232|0.1508871614933014|0|0|0|-1|-1|3
2021-04-22 21:52:03.971 +0100|140534.795214375|-0.162841796875|0.8986663818359375|0.29486083984375|140534.775253375|-2.848757438619539|-2.51136942991557|-1.38091858351566|-0.1315504759550095|0.1381184756755829|-0.1015095263719559|-0.03385234624147415|-0.06390607357025146|0.1383513212203979|XArbitraryZVertical|-0.7539482647303725|0.08833487645274669|-0.1480354679303687|0.6339121477047689|-0.1112290695309639|0.9820272922515869|0.1524820774793625|0|0|0|-1|-1|3
2021-04-22 21:52:03.991 +0100|140534.815176375|-0.1548309326171875|0.9207611083984375|0.26910400390625|140534.795214375|-2.861824895516362|-2.521134033599326|-1.375444084085029|-0.1963504105806351|0.1886785328388214|-0.06251285970211029|-0.04549756646156311|-0.07123517990112305|0.1486783027648926|XArbitraryZVertical|-0.7556402789540666|0.08929804757140142|-0.1493008483419052|0.6314610495919328|-0.1128589883446693|0.9809793829917908|0.1579327434301376|0|0|0|-1|-1|3
2021-04-22 21:52:04.011 +0100|140534.835137375|-0.1299285888671875|0.894561767578125|0.2162322998046875|140534.815176375|-2.881323391377782|-2.536635684177819|-1.369139901539031|-0.1848704367876053|0.230426087975502|-0.05019094794988632|-0.05143290758132935|-0.06414783000946045|0.121585488319397|XArbitraryZVertical|-0.7577119254857966|0.09080721994193551|-0.1504874421017263|0.6284746405774546|-0.1139121875166893|0.9797361493110657|0.1647466272115707|0|0|0|-1|-1|3
2021-04-22 21:52:04.032 +0100|140534.855099375|-0.1256103515625|0.9091949462890625|0.190460205078125|140534.835137375|-2.893184995703432|-2.543462207677098|-1.364495121910286|-0.07252586632966995|0.2747310101985931|-0.05696886777877808|-0.02596640586853027|-0.07217913866043091|0.07618987560272217|XArbitraryZVertical|-0.7590068071312935|0.0924567310465787|-0.1522687564240431|0.6262386063734789|-0.1153460964560509|0.9787952899932861|0.169279158115387|0|0|0|-1|-1|3
2021-04-22 21:52:04.051 +0100|140534.875061375|-0.1270294189453125|0.9877166748046875|0.1947174072265625|140534.855099375|-2.895089920607973|-2.539644662435046|-1.36042784811143|-0.0165066234767437|0.3293512761592865|-0.08415424078702927|-0.007869817316532135|-0.08578795194625854|0.03122174739837646|XArbitraryZVertical|-0.7597815719075359|0.09375937495425736|-0.1548758094469841|0.6244636302106328|-0.118244931101799|0.9779540300369263|0.1721177101135254|0|0|0|-1|-1|3
2021-04-22 21:52:04.071 +0100|140534.895022375|-0.1398162841796875|1.048553466796875|0.186767578125|140534.875061375|-2.892426474280649|-2.530535079201603|-1.356378782166261|-0.05415546894073486|0.3396508097648621|-0.0754784569144249|-0.006233014166355133|-0.0232887864112854|0.009258046746253967|XArbitraryZVertical|-0.7603409236110983|0.09497085739504563|-0.1580700107683534|0.6227972055177082|-0.1220790296792984|0.9771004915237427|0.1742755621671677|0|0|0|-1|-1|3
2021-04-22 21:52:04.091 +0100|140534.914984375|-0.14874267578125|1.041732788085938|0.1858062744140625|140534.895022375|-2.890183333548087|-2.522323135962854|-1.352202456271195|-0.01560893934220076|0.2756179571151733|-0.1014903485774994|-0.008938789367675781|0.038673996925354|0.003008261322975159|XArbitraryZVertical|-0.760968519673306|0.09602691949428219|-0.161082284442396|0.621094597217107|-0.1258734911680222|0.9762033224105835|0.1765885204076767|0|0|0|-1|-1|3
2021-04-22 21:52:04.111 +0100|140534.934945375|-0.1635589599609375|1.032684326171875|0.1665802001953125|140534.914984375|-2.885770716331594|-2.513357457532633|-1.34864327861964|-0.03873884305357933|0.1992186903953552|-0.1161466240882874|-0.01644328236579895|0.08477050065994263|0.01140511035919189|XArbitraryZVertical|-0.7614493595355348|0.096572023691344|-0.1636315121526871|0.6197528860611214|-0.1294926404953003|0.9754253029823303|0.1782625615596771|0|0|0|-1|-1|3
2021-04-22 21:52:04.131 +0100|140534.954907375|-0.1799163818359375|1.021942138671875|0.124176025390625|140534.934945375|-2.885546075884533|-2.51009222538512|-1.345205338610731|-0.1442150324583054|0.1169055923819542|-0.08895742893218994|-0.02071888744831085|0.0525137186050415|-0.0003831386566162109|XArbitraryZVertical|-0.7621496608103714|0.09695426928159855|-0.1652981295397078|0.6183886271710367|-0.1320529878139496|0.9746620655059814|0.1805444657802582|0|0|0|-1|-1|3
2021-04-22 21:52:04.151 +0100|140534.974868375|-0.1748046875|1.0291748046875|0.0964813232421875|140534.954907375|-2.889492659214838|-2.512091924687413|-1.340809979236036|-0.2284965664148331|0.06717463582754135|-0.1051523759961128|-0.04124893248081207|0.05562734603881836|-0.03390859067440033|XArbitraryZVertical|-0.7633459286907112|0.09714812521215715|-0.1663818367982865|0.6165894812266345|-0.1342127770185471|0.9736695289611816|0.1842695325613022|0|0|0|-1|-1|3
2021-04-22 21:52:04.171 +0100|140534.994830375|-0.1741790771484375|1.068634033203125|0.0872802734375|140534.974868375|-2.894770231359563|-2.516720907296206|-1.335432019379656|-0.2748931050300598|-0.007668878417462111|-0.121269553899765|-0.03948476910591125|0.05247282981872559|-0.0770103931427002|XArbitraryZVertical|-0.7649688380318983|0.09689700217606534|-0.1669974305648025|0.6144474799818199|-0.1364194303750992|0.9724294543266296|0.1891327053308487|0|0|0|-1|-1|3
2021-04-22 21:52:04.191 +0100|140535.014791375|-0.1723480224609375|1.084228515625|0.0537872314453125|140534.994830375|-2.899559293703495|-2.522369870093977|-1.330007757045162|-0.2562166452407837|-0.0775597095489502|-0.1080358698964119|-0.03561931848526001|0.08231639862060547|-0.1106040626764297|XArbitraryZVertical|-0.7667139276414486|0.09615614288226708|-0.167059698061174|0.6123682911673914|-0.1384080499410629|0.9711502194404602|0.194192498922348|0|0|0|-1|-1|3
2021-04-22 21:52:04.211 +0100|140535.034753375|-0.1656951904296875|1.056655883789062|0.0504302978515625|140535.014791375|-2.902097721086885|-2.526390395019778|-1.325389186240417|-0.1795810908079147|-0.08948454260826111|-0.09129160642623901|-0.03962761163711548|0.1111381053924561|-0.1367162615060806|XArbitraryZVertical|-0.7682077199389148|0.09518964011831391|-0.1669302245804838|0.6106801648136183|-0.1402133256196976|0.9700384736061096|0.1984083354473114|0|0|0|-1|-1|3
2021-04-22 21:52:04.231 +0100|140535.054715375|-0.1742401123046875|1.05242919921875|0.062255859375|140535.034753375|-2.90008013982493|-2.526570210798155|-1.32261432320884|-0.04529003798961639|-0.1262839883565903|-0.09067152440547943|-0.02567479014396667|0.1046597361564636|-0.1453022658824921|XArbitraryZVertical|-0.7690853738421811|0.09393294894719612|-0.1666269717388499|0.6098523688254806|-0.1417302638292313|0.9693605899810791|0.2006314247846603|0|0|0|-1|-1|3
2021-04-22 21:52:04.251 +0100|140535.074676375|-0.1744842529296875|1.037841796875|0.0627593994140625|140535.054715375|-2.893366060889313|-2.522378113919423|-1.321836514290454|0.07784391939640045|-0.1059247702360153|-0.09191601723432541|-0.02751047909259796|0.0844193696975708|-0.1360425055027008|XArbitraryZVertical|-0.7692636836121547|0.09250887881730582|-0.166299322766722|0.6099344972269166|-0.1430073529481888|0.9691692590713501|0.2006490081548691|0|0|0|-1|-1|3
2021-04-22 21:52:04.270 +0100|140535.094638375|-0.1694793701171875|0.939483642578125|0.1023101806640625|140535.074676375|-2.876005245863082|-2.507606079460033|-1.323592973770775|0.332055002450943|-0.1028317213058472|-0.1598757207393646|-0.02976694703102112|0.07596194744110107|-0.1249984800815582|XArbitraryZVertical|-0.7683481800635676|0.0906230421814098|-0.1664278767213959|0.6113349108459092|-0.1449470520019531|0.9696005582809448|0.1971429288387299|0|0|0|-1|-1|3
2021-04-22 21:52:04.290 +0100|140535.114599375|-0.168365478515625|0.9679412841796875|0.091156005859375|140535.094638375|-2.854693174431223|-2.489435459287354|-1.326766312022031|0.2449199259281158|-0.1205448806285858|-0.09572922438383102|-0.01721268892288208|0.01356017589569092|-0.1137215048074722|XArbitraryZVertical|-0.7669278810368038|0.08852576766813787|-0.1664076587767523|0.6134275701714091|-0.1466370522975922|0.9703721404075623|0.1920303702354431|0|0|0|-1|-1|3
2021-04-22 21:52:04.310 +0100|140535.134561375|-0.1553955078125|0.928863525390625|0.0764923095703125|140535.114599375|-2.831349948517343|-2.468236913316269|-1.330166975590772|0.08985445648431778|-0.07780013233423233|-0.1214915886521339|-0.03021767735481262|0.00604557991027832|-0.09537065029144287|XArbitraryZVertical|-0.7652689893079559|0.08667587915588008|-0.1668297794798174|0.6156449311392219|-0.1486161798238754|0.9711881875991821|0.186298668384552|0|0|0|-1|-1|3
2021-04-22 21:52:04.330 +0100|140535.154522375|-0.1686859130859375|0.96368408203125|0.072265625|140535.134561375|-2.814605283818065|-2.453311319876648|-1.330677849354629|-0.04224031791090965|-0.09723013639450073|-0.1367663145065308|-0.006360843777656555|-0.03417611122131348|-0.09151268005371094|XArbitraryZVertical|-0.7646046030938226|0.08495930739561787|-0.1672980294203714|0.6165819250920538|-0.1510649472475052|0.9713097810745239|0.1836765706539154|0|0|0|-1|-1|3
2021-04-22 21:52:04.350 +0100|140535.174484375|-0.1672821044921875|0.9897613525390625|0.0733642578125|140535.154522375|-2.801992029444448|-2.442511557195235|-1.329613805602265|-0.05001694709062576|-0.08665989339351654|-0.1504522114992142|-0.006285101175308228|-0.02328735589981079|-0.1030355989933014|XArbitraryZVertical|-0.7645112297394391|0.08327613324916114|-0.1677123807191375|0.6168145696034025|-0.1537041366100311|0.9710562229156494|0.1828246712684631|0|0|0|-1|-1|3
2021-04-22 21:52:04.370 +0100|140535.194446375|-0.1589508056640625|0.95318603515625|0.0794830322265625|140535.174484375|-2.786974920607274|-2.428833640069491|-1.329089298202697|0.03297009691596031|-0.04125293716788292|-0.1478153318166733|-0.01420742273330688|0.003464937210083008|-0.1104423850774765|XArbitraryZVertical|-0.7641185828110499|0.08166076495610747|-0.1683950070163472|0.6173310567909484|-0.1565240621566772|0.970930814743042|0.181091383099556|0|0|0|-1|-1|3
2021-04-22 21:52:04.390 +0100|140535.214407375|-0.1677703857421875|1.004547119140625|0.118621826171875|140535.194446375|-2.769639496425957|-2.412472973386805|-1.328285753163327|0.00547404121607542|-0.03224058821797371|-0.1623767018318176|-0.004825875163078308|0.02248674631118774|-0.1084541231393814|XArbitraryZVertical|-0.7636448714371834|0.07994018839875608|-0.1694299859034687|0.6178589352728761|-0.1599851548671722|0.9707381725311279|0.1790878474712372|0|0|0|-1|-1|3
2021-04-22 21:52:04.410 +0100|140535.234369375|-0.1717376708984375|0.997528076171875|0.1253814697265625|140535.214407375|-2.755987600979916|-2.399280014782698|-1.327812530438476|0.0255906954407692|-0.0002731196582317352|-0.1237661838531494|0.000565066933631897|-0.02018505334854126|-0.08473992347717285|XArbitraryZVertical|-0.7631869052575611|0.07871491134878507|-0.1703311685104827|0.618334240004591|-0.1626447886228561|0.9706243872642517|0.1773005723953247|0|0|0|-1|-1|3
2021-04-22 21:52:04.430 +0100|140535.254330375|-0.1694488525390625|0.99969482421875|0.132537841796875|140535.234369375|-2.738498387386275|-2.381980583683634|-1.328244997949017|0.07864504307508469|0.01374794356524944|-0.1436521857976913|-0.001091897487640381|0.04176831245422363|-0.03551317751407623|XArbitraryZVertical|-0.7622820830788251|0.07748330223869558|-0.1714380222884782|0.6192990818985661|-0.165397584438324|0.97072833776474|0.1741552799940109|0|0|0|-1|-1|3
2021-04-22 21:52:04.450 +0100|140535.274292375|-0.1887054443359375|1.043685913085938|0.1170654296875|140535.254330375|-2.71907218715713|-2.363064878485182|-1.329157602371337|0.1107634454965591|-0.03479162976145744|-0.1324321180582047|-0.0002806186676025391|0.009277164936065674|-0.04914835095405579|XArbitraryZVertical|-0.7611742453385143|0.07613301670443501|-0.1724494583481206|0.6205471037034201|-0.168039932847023|0.9709471464157104|0.1703649312257767|0|0|0|-1|-1|3
2021-04-22 21:52:04.470 +0100|140535.294253375|-0.1766815185546875|1.023834228515625|0.14556884765625|140535.274292375|-2.697190705417273|-2.341934413772184|-1.330847619344862|0.1475392282009125|-0.0106770247220993|-0.1458547115325928|-0.01075835525989532|0.06745272874832153|-0.04890216886997223|XArbitraryZVertical|-0.7597576547391567|0.07473094807304188|-0.1733580983030971|0.6221982299000597|-0.1704253554344177|0.9713501930236816|0.1656328141689301|0|0|0|-1|-1|3
2021-04-22 21:52:04.490 +0100|140535.314215375|-0.18524169921875|1.045333862304688|0.1558685302734375|140535.294253375|-2.676954932673033|-2.322706287769778|-1.332412020501459|0.146813839673996|-0.04865481704473495|-0.08103381842374802|-0.008028402924537659|0.03990632295608521|-0.03549325466156006|XArbitraryZVertical|-0.7584588438447945|0.07337562970192009|-0.1740404511457277|0.623751778877722|-0.1724686771631241|0.9717207551002502|0.1612876057624817|0|0|0|-1|-1|3
2021-04-22 21:52:04.510 +0100|140535.334177375|-0.1777191162109375|0.9930877685546875|0.1699981689453125|140535.314215375|-2.660136823262888|-2.307405045017148|-1.334077729348432|0.1948764026165009|-0.05930213630199432|-0.08868943154811859|-0.01135776937007904|0.07113051414489746|-0.009134307503700256|XArbitraryZVertical|-0.7573414124039441|0.07214608880208195|-0.1742460584644437|0.6251938579133878|-0.1737169325351715|0.9721127152442932|0.1575421392917633|0|0|0|-1|-1|3
2021-04-22 21:52:04.530 +0100|140535.354138375|-0.169921875|1.02105712890625|0.1706695556640625|140535.334177375|-2.644782496439807|-2.293408703941449|-1.335789735002594|0.1194311380386353|-0.04265226796269417|-0.04674419760704041|-0.002269819378852844|0.03352963924407959|0.02595295011997223|XArbitraryZVertical|-0.7562686879673562|0.07109937690236469|-0.1743789792118793|0.6265738275324128|-0.1746567040681839|0.9725127816200256|0.1539949029684067|0|0|0|-1|-1|3
2021-04-22 21:52:04.550 +0100|140535.374100375|-0.173126220703125|0.982025146484375|0.15997314453125|140535.354138375|-2.635659469623844|-2.285759889284742|-1.336717423832088|0.04454324766993523|-0.08278147131204605|-0.05576148256659508|0.004827886819839478|0.0413246750831604|0.01827248930931091|XArbitraryZVertical|-0.7557080904808589|0.07025958041432617|-0.1742125765202408|0.6273905272566614|-0.1751473098993301|0.9727283716201782|0.152062252163887|0|0|0|-1|-1|3
2021-04-22 21:52:04.570 +0100|140535.394061375|-0.1744232177734375|1.002090454101562|0.15008544921875|140535.374100375|-2.630035250617087|-2.281930177097453|-1.336620398863518|-0.02587296068668365|-0.08780040591955185|-0.03442849591374397|0.005724787712097168|0.03258872032165527|0.01227544248104095|XArbitraryZVertical|-0.7555935719490769|0.06931403687394168|-0.1739156939017953|0.6277159627032759|-0.1758000999689102|0.9727059006690979|0.1514521688222885|0|0|0|-1|-1|3
2021-04-22 21:52:04.590 +0100|140535.414023375|-0.1736602783203125|0.98541259765625|0.14129638671875|140535.394061375|-2.630222056062358|-2.283849587311447|-1.336123349689519|-0.01241579279303551|-0.09531553834676743|-0.01870900951325893|0.00355684757232666|0.01451575756072998|0.004801034927368164|XArbitraryZVertical|-0.7558688138657514|0.06866818568735424|-0.1733561123586727|0.6276104513670756|-0.1758752167224884|0.972590446472168|0.1521059721708298|0|0|0|-1|-1|3
2021-04-22 21:52:04.610 +0100|140535.433984375|-0.1750335693359375|0.96063232421875|0.1464385986328125|140535.414023375|-2.628393801290391|-2.284090247686978|-1.336257406749953|0.06849455088376999|-0.1033323407173157|-0.009488614276051521|0.001773878931999207|0.025196373462677|-0.005699858069419861|XArbitraryZVertical|-0.7559211328472941|0.06793236555959196|-0.1726625930110949|0.6278186964012132|-0.1757401823997498|0.9726216197013855|0.1520631313323975|0|0|0|-1|-1|3
2021-04-22 21:52:04.630 +0100|140535.453946375|-0.1771087646484375|0.95111083984375|0.1468658447265625|140535.433984375|-2.624777386086201|-2.282816813856212|-1.337039965110076|0.0705883800983429|-0.1126095131039619|-0.007204864174127579|0.003511160612106323|0.002919852733612061|-0.007236272096633911|XArbitraryZVertical|-0.7557526158007007|0.06714543868217339|-0.1718390997598892|0.6283317571946888|-0.1753564774990082|0.9728031754493713|0.151341050863266|0|0|0|-1|-1|3
2021-04-22 21:52:04.650 +0100|140535.473908375|-0.179901123046875|0.962310791015625|0.15716552734375|140535.453946375|-2.620567047883216|-2.280862760486762|-1.337694156778174|0.07506675273180008|-0.1000513806939125|-0.02786433696746826|-0.003923743963241577|-0.01809018850326538|-0.007348433136940002|XArbitraryZVertical|-0.7555749188500582|0.06631940383877989|-0.1711127027216254|0.6288312895993107|-0.1751694977283478|0.9729545116424561|0.1505834460258484|0|0|0|-1|-1|3
2021-04-22 21:52:04.670 +0100|140535.493869375|-0.17803955078125|0.94378662109375|0.171661376953125|140535.473908375|-2.613368689819568|-2.275836681984055|-1.338180956829886|0.07939994335174561|-0.09893061965703964|-0.05007509887218475|-0.003804206848144531|-0.01324337720870972|-0.003580570220947266|XArbitraryZVertical|-0.7552707369686696|0.06529417254799126|-0.1706409197607096|0.6294319760097498|-0.175563707947731|0.9730668067932129|0.1493944227695465|0|0|0|-1|-1|3
2021-04-22 21:52:04.690 +0100|140535.513831375|-0.1759185791015625|0.9441986083984375|0.1793670654296875|140535.493869375|-2.606896346725703|-2.271312401010948|-1.338493572138374|0.05473130196332932|-0.07989151775836945|-0.03250036761164665|-0.004110351204872131|-0.02695673704147339|0.01750718057155609|XArbitraryZVertical|-0.7550235981868612|0.06434766298948671|-0.1702428548152708|0.6299335413056431|-0.1760052442550659|0.9731388092041016|0.1484025120735168|0|0|0|-1|-1|3
2021-04-22 21:52:04.710 +0100|140535.53379225|-0.1713104248046875|0.93670654296875|0.1824188232421875|140535.513831375|-2.600517298867241|-2.266564258803961|-1.338967956485549|0.07094747573137283|-0.06475591659545898|-0.03620153665542603|-0.001229658722877502|-0.0278441309928894|0.02761302888393402|XArbitraryZVertical|-0.754715903899959|0.06354746906548252|-0.1699199358046463|0.6304703344687187|-0.1763529628515244|0.9732479453086853|0.1472687572240829|0|0|0|-1|-1|3
2021-04-22 21:52:04.730 +0100|140535.55375425|-0.164703369140625|0.9200592041015625|0.1888580322265625|140535.53379225|-2.591987286217554|-2.259490785707174|-1.339329162088773|0.1065128892660141|-0.05869738757610321|-0.05843387544155121|0.002588823437690735|-0.03488481044769287|0.03206230700016022|XArbitraryZVertical|-0.7543030054183375|0.06264550955639091|-0.1698181187160043|0.6310820549626763|-0.177119717001915|0.9733308553695679|0.1457949727773666|0|0|0|-1|-1|3
2021-04-22 21:52:04.750 +0100|140535.57371525|-0.1612701416015625|0.9438018798828125|0.1919097900390625|140535.55375425|-2.583567937682922|-2.252133743696613|-1.33952454566164|0.04663129895925522|-0.0208826307207346|-0.04148516058921814|0.0102376788854599|-0.03904962539672852|0.03478646278381348|XArbitraryZVertical|-0.7538963672065131|0.06184007586557869|-0.1698902144151321|0.6316276772797738|-0.1780394166707993|0.973375678062439|0.1443678587675095|0|0|0|-1|-1|3
2021-04-22 21:52:04.770 +0100|140535.59367725|-0.157470703125|0.957244873046875|0.1852874755859375|140535.57371525|-2.582823139551522|-2.25187430951925|-1.338595119128522|-0.04021098837256432|-0.01783496327698231|-0.03354308381676674|0.01493030786514282|-0.04869329929351807|0.03623127937316895|XArbitraryZVertical|-0.7541044387780876|0.06141866701181927|-0.169962936318406|0.6314008827753187|-0.1787800043821335|0.9731622338294983|0.1448915153741837|0|0|0|-1|-1|3
2021-04-22 21:52:04.790 +0100|140535.61363925|-0.1560821533203125|0.96240234375|0.1659393310546875|140535.59367725|-2.586692976457751|-2.256026972963065|-1.336865520056662|-0.05149303749203682|-0.01468982361257076|-0.03631285950541496|0.02132093906402588|-0.01496881246566772|0.04202446341514587|XArbitraryZVertical|-0.7547242024731957|0.06115507603030675|-0.1700070578371612|0.6306735277236083|-0.179479107260704|0.9727627635002136|0.1466971337795258|0|0|0|-1|-1|3
2021-04-22 21:52:04.810 +0100|140535.63360025|-0.1556243896484375|0.959564208984375|0.1615753173828125|140535.61363925|-2.588530953101286|-2.25805194186869|-1.335495800372255|-0.002890115370973945|0.001040671020746231|-0.04056095704436302|0.02191627025604248|-0.01089656352996826|0.02854776382446289|XArbitraryZVertical|-0.7551463170946964|0.06088431012876|-0.1701297191748353|0.6301612278533368|-0.1802117973566055|0.9724442958831787|0.1479057222604752|0|0|0|-1|-1|3
2021-04-22 21:52:04.829 +0100|140535.65356225|-0.1640625|0.9389495849609375|0.171905517578125|140535.63360025|-2.58902628273157|-2.258786809511563|-1.334636321577231|-0.001292751403525472|-0.01232733204960823|-0.03251687809824944|0.03057138621807098|-0.02062922716140747|0.01167942583560944|XArbitraryZVertical|-0.7553859824306972|0.06063535555787102|-0.1702011309411972|0.6298787626145996|-0.1807492524385452|0.97224360704422|0.148569256067276|0|0|0|-1|-1|3
2021-04-22 21:52:04.849 +0100|140535.67352325|-0.156890869140625|0.948822021484375|0.1804351806640625|140535.65356225|-2.593252583146485|-2.263250725005882|-1.33325764119488|-0.07802817970514297|-0.001943881157785654|-0.02060500346124172|0.01982869207859039|-0.01041823625564575|0.01868616044521332|XArbitraryZVertical|-0.7559460844152445|0.06050023984466116|-0.17015256571297|0.6292324085575203|-0.1811149120330811|0.9719200730323792|0.1502295285463333|0|0|0|-1|-1|3
2021-04-22 21:52:04.869 +0100|140535.69348525|-0.151947021484375|0.9799041748046875|0.1827545166015625|140535.67352325|-2.602990075683611|-2.272793883434696|-1.331154862540688|-0.1282547265291214|0.00586125859990716|-0.02604921348392963|0.01828427612781525|-0.03666973114013672|0.02396084368228912|XArbitraryZVertical|-0.7569361803280017|0.06068857180832441|-0.1700698726273025|0.6280453799554003|-0.1812337189912796|0.9714231491088867|0.1532709747552872|0|0|0|-1|-1|3
2021-04-22 21:52:04.889 +0100|140535.71344625|-0.1649017333984375|0.99578857421875|0.186431884765625|140535.69348525|-2.611805048882383|-2.281765487293636|-1.328961233855552|-0.1017153263092041|-0.02602295763790607|-0.03567307814955711|0.0306309312582016|0.002259373664855957|0.02656659483909607|XArbitraryZVertical|-0.7579284186582164|0.06070151707600264|-0.1699177096787082|0.6268874370317306|-0.1814648807048798|0.9709001183509827|0.1562803238630295|0|0|0|-1|-1|3
2021-04-22 21:52:04.909 +0100|140535.73340825|-0.163238525390625|0.982391357421875|0.1787872314453125|140535.71344625|-2.617262509880435|-2.287746821399502|-1.327772604499509|-0.06078412383794785|-0.02650610916316509|-0.02351894415915012|0.0242762565612793|0.0163692831993103|0.03319428861141205|XArbitraryZVertical|-0.7585417487372174|0.06062216433281172|-0.1696176875113159|0.6262342235794047|-0.1813968420028687|0.9706147909164429|0.158121258020401|0|0|0|-1|-1|3
2021-04-22 21:52:04.929 +0100|140535.75337025|-0.1606292724609375|0.9541473388671875|0.1660919189453125|140535.73340825|-2.620274304222547|-2.29123687634925|-1.327206473261644|-0.03685811907052994|-0.02890151552855968|-0.02099870704114437|0.01542335748672485|0.01847398281097412|0.02255617082118988|XArbitraryZVertical|-0.7588758311676626|0.06054215748903704|-0.1693585626628644|0.6259072272937289|-0.1812566965818405|0.9704784154891968|0.1591157615184784|0|0|0|-1|-1|3
2021-04-22 21:52:04.949 +0100|140535.77333125|-0.1661224365234375|0.9538726806640625|0.1700286865234375|140535.75337025|-2.624070921026874|-2.295845869603912|-1.326095150020565|-0.0752527266740799|-0.0564710907638073|-0.02519132196903229|0.02030245959758759|-0.007486999034881592|0.006312504410743713|XArbitraryZVertical|-0.7594064266694104|0.06028712161573382|-0.1690356349573126|0.6253755472693225|-0.1813293099403381|0.9702097773551941|0.1606653183698654|0|0|0|-1|-1|3
2021-04-22 21:52:04.969 +0100|140535.79329325|-0.1602935791015625|0.9940185546875|0.1601104736328125|140535.77333125|-2.631458928122958|-2.304471912761156|-1.324386098459486|-0.09310691058635712|-0.03210796415805817|-0.01716535165905952|0.01509000360965729|-0.01705092191696167|-0.001421228051185608|XArbitraryZVertical|-0.7603060340428814|0.06001077020141871|-0.1684305461182156|0.6244715709813082|-0.1811674833297729|0.9697942733764648|0.1633331179618835|0|0|0|-1|-1|3
2021-04-22 21:52:04.989 +0100|140535.81325425|-0.1699981689453125|0.9685821533203125|0.1555023193359375|140535.79329325|-2.636349035842151|-2.310098475256709|-1.32322818347503|-0.04375762119889259|-0.05737587437033653|-0.05407250672578812|0.01782043278217316|0.01738125085830688|-0.005803599953651428|XArbitraryZVertical|-0.7609011832459068|0.05985377159899386|-0.1680611879796184|0.6238609138978165|-0.1810750514268875|0.9695112109184265|0.1651061624288559|0|0|0|-1|-1|3
2021-04-22 21:52:05.009 +0100|140535.83321625|-0.174407958984375|0.9675140380859375|0.1397857666015625|140535.81325425|-2.637918541107301|-2.313068831806385|-1.322362175711858|-0.02309107407927513|-0.0734589695930481|-0.03338036313652992|0.02681328356266022|-0.009307324886322021|0.003193005919456482|XArbitraryZVertical|-0.7613049946261804|0.0593305805863782|-0.1676021636973511|0.6235416622027771|-0.1812025457620621|0.9692986011505127|0.1662108302116394|0|0|0|-1|-1|3
2021-04-22 21:52:05.029 +0100|140535.85317725|-0.164215087890625|0.937530517578125|0.1239166259765625|140535.83321625|-2.637937482716448|-2.314712974257574|-1.32187777209606|-0.0150587810203433|-0.07644202560186386|-0.03270099312067032|0.003432407975196838|0.006162166595458984|-0.0134747177362442|XArbitraryZVertical|-0.7615546667560839|0.05871687913157093|-0.1670836051035365|0.6234340059118207|-0.1812743991613388|0.9691793918609619|0.1668263673782349|0|0|0|-1|-1|3
2021-04-22 21:52:05.049 +0100|140535.87313925|-0.1653594970703125|0.9294281005859375|0.116943359375|140535.85317725|-2.638231140624805|-2.316730668247589|-1.321779875130487|0.009610014036297798|-0.1026310250163078|0.005025702994316816|0.01460921764373779|-0.02814602851867676|-0.03692999482154846|XArbitraryZVertical|-0.7617371063747461|0.05817788598562965|-0.1664272533406755|0.6234372116630952|-0.1810071170330048|0.9691553115844727|0.1672561764717102|0|0|0|-1|-1|3
2021-04-22 21:52:05.069 +0100|140535.89310025|-0.1622161865234375|0.9334564208984375|0.1211700439453125|140535.87313925|-2.638392868519686|-2.319255645174851|-1.322308717949369|0.0154967475682497|-0.1315327733755112|0.007760680746287107|0.01667909324169159|-0.01843440532684326|-0.04860357940196991|XArbitraryZVertical|-0.7618185150001229|0.05757027504834774|-0.1654052524452717|0.6236660139865554|-0.1802083253860474|0.9692854881286621|0.1673635691404343|0|0|0|-1|-1|3
2021-04-22 21:52:05.089 +0100|140535.91306225|-0.1588287353515625|0.9472808837890625|0.152557373046875|140535.89310025|-2.6394824283132|-2.323071071283967|-1.323074527042086|-0.00637008436024189|-0.1425117999315262|0.01438334118574858|0.01468871533870697|-0.04802602529525757|-0.0503697544336319|XArbitraryZVertical|-0.761922811954988|0.05696560675941641|-0.1641320023722144|0.6239305146379182|-0.1790266782045364|0.9694735407829285|0.1675429046154022|0|0|0|-1|-1|3
2021-04-22 21:52:05.109 +0100|140535.93302425|-0.1646575927734375|0.95758056640625|0.17645263671875|140535.91306225|-2.641193955407009|-2.327781222057931|-1.323391875860514|-0.03631356731057167|-0.1567189246416092|0.02799200639128685|0.01904484629631042|-0.03040367364883423|-0.03241446614265442|XArbitraryZVertical|-0.7621849392083767|0.0562185884211726|-0.1628052305669889|0.6240256773334385|-0.1780117005109787|0.9695513248443604|0.1681728214025497|0|0|0|-1|-1|3
2021-04-22 21:52:05.129 +0100|140535.95298525|-0.1650238037109375|0.977813720703125|0.1703033447265625|140535.93302425|-2.643504030621457|-2.333100398883162|-1.323819530313856|-0.03765600174665451|-0.1565733551979065|0.02879317291080952|0.01591010391712189|-0.01433396339416504|-0.004096299409866333|XArbitraryZVertical|-0.7624510015864117|0.05553361847839659|-0.1614101070923421|0.6241244150048612|-0.1768148243427277|0.9696559309959412|0.1688310205936432|0|0|0|-1|-1|3
2021-04-22 21:52:05.149 +0100|140535.97294725|-0.1601715087890625|0.946319580078125|0.1619873046875|140535.95298525|-2.643032293101898|-2.335564598343744|-1.324675987875046|0.01222763489931822|-0.150972455739975|0.003590791951864958|0.01112596690654755|-0.01129263639450073|0.005884900689125061|XArbitraryZVertical|-0.762460404978627|0.05477268349389454|-0.1601469129510548|0.6245056217546796|-0.1757996678352356|0.9698649644851685|0.1686918288469315|0|0|0|-1|-1|3
2021-04-22 21:52:05.169 +0100|140535.99290825|-0.16021728515625|0.957183837890625|0.1739959716796875|140535.97294725|-2.639240830317437|-2.334688991531135|-1.325192448190544|-0.001302704913541675|-0.1505140215158463|-0.02874912694096565|0.01136927306652069|0.000422358512878418|0.002708420157432556|XArbitraryZVertical|-0.7623714549109435|0.0537145093082084|-0.1591894743566707|0.624950670945623|-0.1755851805210114|0.9699906706809998|0.1681909710168839|0|0|0|-1|-1|3
2021-04-22 21:52:05.189 +0100|140536.01287025|-0.17315673828125|1.00238037109375|0.199737548828125|140535.99290825|-2.638401396212274|-2.336856473277445|-1.324668451084949|-0.09227780252695084|-0.1548876315355301|-0.0480114184319973|0.01596347987651825|-0.02204841375350952|-0.005684033036231995|XArbitraryZVertical|-0.7626891860851364|0.05260187485321118|-0.158209261409523|0.6249065441325857|-0.1755864769220352|0.9698631167411804|0.1689234972000122|0|0|0|-1|-1|3
2021-04-22 21:52:05.209 +0100|140536.03283125|-0.189056396484375|1.036849975585938|0.2147674560546875|140536.01287025|-2.64259151331649|-2.344131953579056|-1.322602424974581|-0.1123703718185425|-0.1596262902021408|-0.06219176948070526|0.01233372092247009|0.01166027784347534|0.01785790920257568|XArbitraryZVertical|-0.7636414677518842|0.05147612282837792|-0.1571674470397377|0.6240997743392562|-0.1757866889238358|0.9693576693534851|0.1715961694717407|0|0|0|-1|-1|3
2021-04-22 21:52:05.229 +0100|140536.05279325|-0.1970977783203125|1.0367431640625|0.205902099609375|140536.03283125|-2.644394667337889|-2.348971336833043|-1.32020489885807|-0.07387685775756836|-0.1458009630441666|-0.09737870097160339|-0.005521580576896667|0.05941671133041382|0.03614611923694611|XArbitraryZVertical|-0.7645417699222201|0.05013369760966463|-0.1563716802920731|0.6233060030699917|-0.1766080856323242|0.968765914440155|0.1740750074386597|0|0|0|-1|-1|3
2021-04-22 21:52:05.249 +0100|140536.07275525|-0.1908416748046875|1.0323486328125|0.174957275390625|140536.05279325|-2.642858379423959|-2.350166081775115|-1.318187840249725|-0.05923444777727127|-0.1262170523405075|-0.1130811423063278|-0.01529556512832642|0.06554949283599854|0.03727804124355316|XArbitraryZVertical|-0.7651499486935451|0.04873548041246905|-0.155848539520405|0.6228014985458638|-0.1777899414300919|0.9682638049125671|0.1756591796875|0|0|0|-1|-1|3
2021-04-22 21:52:05.269 +0100|140536.09271625|-0.189056396484375|0.999237060546875|0.164703369140625|140536.07275525|-2.638633990268097|-2.348550337706058|-1.316443437318662|-0.03052981570363045|-0.1399602293968201|-0.1131100803613663|-0.01635730266571045|0.06806200742721558|0.01367577910423279|XArbitraryZVertical|-0.7655366348123663|0.04724213459079193|-0.1555087828239563|0.6225261775142734|-0.1792764067649841|0.9678263068199158|0.1765563189983368|0|0|0|-1|-1|3
2021-04-22 21:52:05.289 +0100|140536.11267825|-0.18719482421875|1.010604858398438|0.166290283203125|140536.09271625|-2.635818231469822|-2.348846866408134|-1.31461879470621|-0.04067213088274002|-0.1574451625347137|-0.09973835200071335|-0.007445663213729858|0.03992807865142822|-0.007468923926353455|XArbitraryZVertical|-0.766053972897544|0.04567321143615558|-0.1548941163343729|0.6221601924245963|-0.1804824024438858|0.9673656225204468|0.1778494566679001|0|0|0|-1|-1|3
2021-04-22 21:52:05.309 +0100|140536.13263925|-0.1802215576171875|1.000595092773438|0.182647705078125|140536.11267825|-2.63327686764044|-2.349717441943598|-1.312822757716424|-0.003209677990525961|-0.1662061661481857|-0.09048724174499512|-0.009889572858810425|0.03977411985397339|-0.01842823624610901|XArbitraryZVertical|-0.766598966267144|0.0440362789105771|-0.1541394086982648|0.6217941449965011|-0.1815632283687592|0.9669089317321777|0.1792263388633728|0|0|0|-1|-1|3
2021-04-22 21:52:05.328 +0100|140536.15260125|-0.1830902099609375|0.9949188232421875|0.182586669921875|140536.13263925|-2.630078432853955|-2.350187164278215|-1.311653691243379|0.01319817453622818|-0.1867739260196686|-0.06125939637422562|0.00112973153591156|0.04112589359283447|-0.002675801515579224|XArbitraryZVertical|-0.7669774841900171|0.04240823443195498|-0.1532058078768677|0.6216712215630896|-0.1822828501462936|0.9666100144386292|0.1801058351993561|0|0|0|-1|-1|3
2021-04-22 21:52:05.349 +0100|140536.17256225|-0.1761016845703125|0.969512939453125|0.1810302734375|140536.15260125|-2.626083363552715|-2.349978977060731|-1.311161553302607|0.03245678916573524|-0.1789668649435043|-0.0487772524356842|0.001429229974746704|0.03241723775863647|0.002979010343551636|XArbitraryZVertical|-0.7671594867631368|0.04083285816368426|-0.1521452887296387|0.6218125231993966|-0.1826586425304413|0.9664838314056396|0.1804019957780838|0|0|0|-1|-1|3
2021-04-22 21:52:05.368 +0100|140536.19252425|-0.1826934814453125|0.963958740234375|0.1844329833984375|140536.17256225|-2.620299218755874|-2.34772501585272|-1.311531429536255|0.06507806479930878|-0.1574583202600479|-0.03175388276576996|0.003823801875114441|0.0130048394203186|0.001718863844871521|XArbitraryZVertical|-0.7670186734075596|0.0393967393562868|-0.1511341001401352|0.6223253417583686|-0.1828101724386215|0.9665787220001221|0.1797394901514053|0|0|0|-1|-1|3
2021-04-22 21:52:05.388 +0100|140536.21248625|-0.186187744140625|0.949310302734375|0.192169189453125|140536.19252425|-2.613550334819641|-2.344031003417134|-1.312376442071162|0.07549179345369339|-0.1298427283763885|-0.02461998537182808|0.005015745759010315|0.003694295883178711|0.007528409361839294|XArbitraryZVertical|-0.7666753270838781|0.03814606184279502|-0.1502727687840142|0.623034501071042|-0.1828882247209549|0.9667949676513672|0.1784923523664474|0|0|0|-1|-1|3
2021-04-22 21:52:05.408 +0100|140536.23244725|-0.1778717041015625|0.9432220458984375|0.19036865234375|140536.21248625|-2.607701999593071|-2.340572427659272|-1.313385739139916|0.06630486249923706|-0.09050964564085007|-0.02521218173205853|0.0005975961685180664|-0.01095223426818848|0.0160740464925766|XArbitraryZVertical|-0.7662932437071952|0.03720730358627057|-0.1495630571234623|0.6237316828800334|-0.1828035712242126|0.9670524001121521|0.1771794408559799|0|0|0|-1|-1|3
2021-04-22 21:52:05.428 +0100|140536.25240925|-0.1780548095703125|0.958465576171875|0.173980712890625|140536.23244725|-2.603962840712114|-2.338752930510871|-1.313922627874974|0.04080083966255188|-0.08346664905548096|-0.02052927948534489|0.00100409984588623|-0.02736985683441162|0.004697784781455994|XArbitraryZVertical|-0.7661027928469761|0.03646239087054116|-0.1489801598985528|0.6241490232706646|-0.1827522963285446|0.9671889543533325|0.1764859855175018|0|0|0|-1|-1|3
2021-04-22 21:52:05.448 +0100|140536.27237025|-0.16912841796875|0.9518890380859375|0.159881591796875|140536.25240925|-2.600315844987827|-2.336648266708802|-1.314535396940056|0.0743434727191925|-0.05444303900003433|-0.01772763580083847|0.00569365918636322|-0.01246476173400879|0.006958141922950745|XArbitraryZVertical|-0.7658715751269449|0.03585995261794497|-0.1485177682088323|0.6245778101379708|-0.1826964169740677|0.9673444628715515|0.1756904125213623|0|0|0|-1|-1|3
2021-04-22 21:52:05.468 +0100|140536.29233225|-0.1674346923828125|0.9393768310546875|0.1708984375|140536.27237025|-2.594286874934619|-2.331709696808168|-1.315684192199394|0.1302796453237534|-0.03964326903223991|-0.01823292672634125|0.008409306406974792|-0.01743984222412109|-0.004752993583679199|XArbitraryZVertical|-0.7653495482640049|0.03535396383242097|-0.1482792309298109|0.6253028365955476|-0.1827570199966431|0.9676349759101868|0.1740196645259857|0|0|0|-1|-1|3
2021-04-22 21:52:05.488 +0100|140536.31229325|-0.17962646484375|0.9462890625|0.186187744140625|140536.29233225|-2.586933262541642|-2.325518716178053|-1.316937111562118|0.1173748672008514|-0.04227101057767868|-0.008998148143291473|0.01743441820144653|-0.01793837547302246|-0.008097290992736816|XArbitraryZVertical|-0.7647342981193722|0.03476232491684596|-0.1480770354314846|0.6261360462128226|-0.1829472929239273|0.9679504036903381|0.1720539331436157|0|0|0|-1|-1|3
2021-04-22 21:52:05.508 +0100|140536.33225525|-0.1710205078125|0.956512451171875|0.188446044921875|140536.31229325|-2.580920313636815|-2.320182566256854|-1.317939453320135|0.111675925552845|-0.004747603088617325|-0.008513540960848331|0.005280300974845886|-0.02595621347427368|0.00820566713809967|XArbitraryZVertical|-0.764216207171884|0.0343644364677861|-0.1480159572331732|0.6268047497287468|-0.1831528097391129|0.9682016372680664|0.1704146564006805|0|0|0|-1|-1|3
2021-04-22 21:52:05.528 +0100|140536.35221625|-0.1698760986328125|0.9460296630859375|0.1965789794921875|140536.33225525|-2.574076522620172|-2.313419400294377|-1.319172878317671|0.1383159756660461|0.01793571002781391|-0.0110692884773016|0.006341308355331421|-0.01254671812057495|0.02121253311634064|XArbitraryZVertical|-0.7635542938417647|0.03415560542421984|-0.1481828051553344|0.6275827130850195|-0.1834203004837036|0.9685094952583313|0.1683635264635086|0|0|0|-1|-1|3
2021-04-22 21:52:05.548 +0100|140536.37217825|-0.179718017578125|0.9523773193359375|0.2098236083984375|140536.35221625|-2.567330547266129|-2.306612428685757|-1.320484688628747|0.08189717680215836|0.01888848468661308|-0.007351337466388941|0.01548288762569427|-0.01337599754333496|0.02887198328971863|XArbitraryZVertical|-0.7628706262860681|0.03402300540569655|-0.1483729433301611|0.6283759357125043|-0.1836202442646027|0.9688352942466736|0.1662583202123642|0|0|0|-1|-1|3
2021-04-22 21:52:05.568 +0100|140536.39214025|-0.162017822265625|0.9373931884765625|0.2315673828125|140536.37217825|-2.566375109401581|-2.305250312984985|-1.320884031587617|-0.07117807120084763|0.03916174545884132|-0.0002983994781970978|0.007243961095809937|-0.01602286100387573|0.0351792573928833|XArbitraryZVertical|-0.7626968221950891|0.03417956398358758|-0.1485039808658546|0.6285475997566118|-0.1835600584745407|0.9689341187477112|0.1657493710517883|0|0|0|-1|-1|3
2021-04-22 21:52:05.588 +0100|140536.41210125|-0.166046142578125|0.9907684326171875|0.2260589599609375|140536.39214025|-2.577555587259701|-2.315061243735602|-1.318831781452515|-0.2458144128322601|0.07420233637094498|0.03546501323580742|0.009772151708602905|-0.03345751762390137|0.04526902735233307|XArbitraryZVertical|-0.7636931269231518|0.0348899728362619|-0.1487224576356355|0.6272458381581362|-0.1833874583244324|0.9684244990348816|0.1688890010118484|0|0|0|-1|-1|3
2021-04-22 21:52:05.608 +0100|140536.43206325|-0.1828155517578125|0.977783203125|0.2107696533203125|140536.41210125|-2.596974937378055|-2.333141607487274|-1.315391477483096|-0.3093063831329346|0.02908407710492611|0.05435241758823395|0.02061691880226135|0.0008376240730285645|0.04528173804283142|XArbitraryZVertical|-0.7654746681339382|0.03586918018469414|-0.1486338244174213|0.6250359339019069|-0.1827117949724197|0.9675610661506653|0.1744761317968369|0|0|0|-1|-1|3
2021-04-22 21:52:05.628 +0100|140536.45202425|-0.1676788330078125|0.9362640380859375|0.141571044921875|140536.43206325|-2.621468225599927|-2.356644923836524|-1.311572125015449|-0.4181254208087921|0.00784163735806942|0.09490446001291275|0.00261293351650238|0.02272957563400269|0.03453171253204346|XArbitraryZVertical|-0.7676541343586742|0.03707838708922827|-0.1480672295430228|0.6224215431510632|-0.1811720728874207|0.9665891528129578|0.1813353598117828|0|0|0|-1|-1|3
2021-04-22 21:52:05.648 +0100|140536.47198625|-0.15435791015625|0.963043212890625|0.1012420654296875|140536.45202425|-2.656819146045016|-2.390791990568688|-1.305844896146188|-0.5896232128143311|-0.06030519306659698|0.1434171348810196|0.001829683780670166|-0.02357703447341919|-0.002356171607971191|XArbitraryZVertical|-0.7708566056617265|0.03885517871185939|-0.1470569320345498|0.6185828640188877|-0.1786493211984634|0.9651052355766296|0.1914592683315277|0|0|0|-1|-1|3
2021-04-22 21:52:05.668 +0100|140536.49194725|-0.13909912109375|1.01068115234375|0.0549774169921875|140536.47198625|-2.698105147094613|-2.433112581077054|-1.297861425142873|-0.6632207632064819|-0.1757611632347107|0.1446759253740311|0.02126751840114594|-0.01205623149871826|-0.07018372416496277|XArbitraryZVertical|-0.7750698431491275|0.04015138544543933|-0.1449420312658182|0.61371544632191|-0.1753973513841629|0.9629839062690735|0.2046907842159271|0|0|0|-1|-1|3
2021-04-22 21:52:05.688 +0100|140536.51190925|-0.1232757568359375|1.057708740234375|0.0530853271484375|140536.49194725|-2.734695584209455|-2.472703644010264|-1.290591617650976|-0.4776966869831085|-0.2602615058422089|0.1393156051635742|0.02055349946022034|0.02729731798171997|-0.145164892077446|XArbitraryZVertical|-0.7789793842689585|0.04086939591346649|-0.1420474910743433|0.6093794486195009|-0.1714942008256912|0.9609988331794739|0.2169583737850189|0|0|0|-1|-1|3
2021-04-22 21:52:05.708 +0100|140536.531869875|-0.1099700927734375|1.027801513671875|0.1146697998046875|140536.51190925|-2.757730067187043|-2.500907018358002|-1.287160982172478|-0.2286307960748672|-0.3408223688602448|0.1516072452068329|0.03853897750377655|0.0550616979598999|-0.173385351896286|XArbitraryZVertical|-0.7813595128252403|0.04065330776508386|-0.1386313392848938|0.607129484832566|-0.1672781854867935|0.9600444436073303|0.2243507653474808|0|0|0|-1|-1|3
2021-04-22 21:52:05.728 +0100|140536.551831875|-0.1154632568359375|1.026687622070312|0.134307861328125|140536.531869875|-2.773378260915235|-2.523869186149237|-1.286906047714308|-0.09450750052928925|-0.4670799374580383|0.2216372787952423|0.04802697896957397|0.09418022632598877|-0.1642131805419922|XArbitraryZVertical|-0.782678010891087|0.03976088745256968|-0.13444166739486|0.6064320287363422|-0.1622245162725449|0.9599730968475342|0.228331595659256|0|0|0|-1|-1|3
2021-04-22 21:52:05.748 +0100|140536.571793875|-0.1024322509765625|0.9968109130859375|0.1079559326171875|140536.551831875|-2.782581434235528|-2.542607506968376|-1.291112955294719|0.1721829771995544|-0.5326159596443176|0.2223977893590927|0.04183855652809143|0.06749767065048218|-0.08716928958892822|XArbitraryZVertical|-0.7826385877999387|0.03838802019302565|-0.1292398849231124|0.6077009110033199|-0.1556393653154373|0.961142897605896|0.2279935926198959|0|0|0|-1|-1|3
2021-04-22 21:52:05.768 +0100|140536.591754875|-0.1396636962890625|0.8786163330078125|0.086456298828125|140536.571793875|-2.776178853497618|-2.546326501982914|-1.301795382667546|0.4631866216659546|-0.5318306684494019|0.2220462560653687|0.0375426709651947|0.05354094505310059|-0.1009451597929001|XArbitraryZVertical|-0.7801877316682517|0.03653961304294717|-0.1241683237947267|0.6120083226024465|-0.1490241140127182|0.9640368819236755|0.2200560867786407|0|0|0|-1|-1|3
2021-04-22 21:52:05.787 +0100|140536.611716875|-0.1659393310546875|0.9964447021484375|0.1370391845703125|140536.591754875|-2.764807527363636|-2.546993774113393|-1.314580005108052|0.4097712934017181|-0.6129788160324097|0.2194801270961761|0.02640587091445923|-0.05321717262268066|-0.121625080704689|XArbitraryZVertical|-0.7770486090302373|0.03405489863124144|-0.1183988329986721|0.617266176622975|-0.1419614255428314|0.9673557877540588|0.2099285572767258|0|0|0|-1|-1|3
2021-04-22 21:52:05.808 +0100|140536.631677875|-0.1935577392578125|1.02874755859375|0.192230224609375|140536.611716875|-2.755106790624957|-2.548329221525699|-1.325574360683468|0.3521539568901062|-0.5063701272010803|0.1301672011613846|-0.02250766754150391|-0.02615964412689209|-0.0936359167098999|XArbitraryZVertical|-0.7743620076059166|0.03173769806626729|-0.1131201422210364|0.6217396427602253|-0.1357267051935196|0.970083475112915|0.2012875974178314|0|0|0|-1|-1|3
2021-04-22 21:52:05.828 +0100|140536.651639875|-0.2279052734375|1.061187744140625|0.218719482421875|140536.631677875|-2.743166380335014|-2.546601269604474|-1.333514872125084|0.3047823309898376|-0.5128118395805359|0.02009564451873302|-0.04578433930873871|0.05345559120178223|-0.0278569757938385|XArbitraryZVertical|-0.7723287837206014|0.02901307206349352|-0.1087803565979635|0.6251667073639448|-0.1317523866891861|0.9719805717468262|0.1946670114994049|0|0|0|-1|-1|3
2021-04-22 21:52:05.848 +0100|140536.671600875|-0.202178955078125|1.020187377929688|0.19268798828125|140536.651639875|-2.723702487170114|-2.53752487133144|-1.338991202005358|0.2806685566902161|-0.474997878074646|-0.1415693163871765|-0.08482865989208221|0.06028544902801514|0.0165485143661499|XArbitraryZVertical|-0.7706490553895635|0.02529844304135166|-0.1052771036087715|0.6279944033074563|-0.1304888427257538|0.9732533097267151|0.1890799552202225|0|0|0|-1|-1|3
2021-04-22 21:52:05.869 +0100|140536.691562875|-0.131103515625|0.94036865234375|0.1678009033203125|140536.671600875|-2.689851687150569|-2.512912451717421|-1.343143773529014|0.3441042304039001|-0.3693528473377228|-0.2528636455535889|-0.09367068111896515|0.09464865922927856|0.02810764312744141|XArbitraryZVertical|-0.768660737582019|0.02076480473612143|-0.1033785025285561|0.6309061726790159|-0.1327247023582458|0.9741988778114319|0.1825410127639771|0|0|0|-1|-1|3
2021-04-22 21:52:05.887 +0100|140536.711523875|-0.1056365966796875|0.95013427734375|0.1734619140625|140536.691562875|-2.647079666563305|-2.478243660480913|-1.346050391767037|0.3303796648979187|-0.3749996423721313|-0.2885630428791046|-0.02886489033699036|0.006182432174682617|-0.00100649893283844|XArbitraryZVertical|-0.7665166057611289|0.0158622179839751|-0.1026290946313208|0.633772903075707|-0.1372277289628983|0.9748507738113403|0.1755986362695694|0|0|0|-1|-1|3
2021-04-22 21:52:05.908 +0100|140536.731485875|-0.112945556640625|0.949249267578125|0.224609375|140536.711523875|-2.601848790567248|-2.44194890523475|-1.348400469595873|0.458646297454834|-0.4073916077613831|-0.2849690914154053|0.02922473847866058|-0.02874714136123657|-0.007952094078063965|XArbitraryZVertical|-0.7643715124349698|0.01055156208419199|-0.1016968198879901|0.6366182317619208|-0.1420336663722992|0.975371778011322|0.1687502861022949|0|0|0|-1|-1|3
2021-04-22 21:52:05.927 +0100|140536.751447875|-0.117706298828125|0.9603729248046875|0.3077239990234375|140536.731485875|-2.546309758994672|-2.395410592950451|-1.351449018916026|0.639052152633667|-0.3608405590057373|-0.3375434577465057|0.03654982149600983|-0.02082443237304688|0.03648422658443451|XArbitraryZVertical|-0.7614879703113239|0.004874021315386261|-0.1010861417696325|0.6402296058521573|-0.147710770368576|0.976039707660675|0.1597753763198853|0|0|0|-1|-1|3
2021-04-22 21:52:05.947 +0100|140536.771408875|-0.1609039306640625|0.992279052734375|0.4002532958984375|140536.751447875|-2.475948043509355|-2.333341139511|-1.355314276386847|0.7608208656311035|-0.3200941979885101|-0.3574482798576355|0.0432184636592865|-0.02983683347702026|0.1111221313476562|XArbitraryZVertical|-0.7575276664368074|-0.00101507696650893|-0.1011837916684204|0.6449129836757119|-0.1546083092689514|0.9768734574317932|0.147698387503624|0|0|0|-1|-1|3
