loggingTime(txt)|accelerometerTimestamp_sinceReboot(s)|accelerometerAccelerationX(G)|accelerometerAccelerationY(G)|accelerometerAccelerationZ(G)|motionTimestamp_sinceReboot(s)|motionYaw(rad)|motionRoll(rad)|motionPitch(rad)|motionRotationRateX(rad/s)|motionRotationRateY(rad/s)|motionRotationRateZ(rad/s)|motionUserAccelerationX(G)|motionUserAccelerationY(G)|motionUserAccelerationZ(G)|motionAttitudeReferenceFrame(txt)|motionQuaternionX(R)|motionQuaternionY(R)|motionQuaternionZ(R)|motionQuaternionW(R)|motionGravityX(G)|motionGravityY(G)|motionGravityZ(G)|motionMagneticFieldX(µT)|motionMagneticFieldY(µT)|motionMagneticFieldZ(µT)|motionHeading(°)|motionMagneticFieldCalibrationAccuracy(Z)|label
2021-04-22 20:42:24.302 +0100|137443.986729625|-0.027374267578125|-0.097991943359375|-1.006591796875|137443.966768625|-0.01589711998902667|-0.02438367604485187|0.08702269987079783|0.0744924321770668|-0.147380143404007|0.02463667467236519|0.002849819138646126|0.054946668446064|-0.03262948989868164|XArbitraryZVertical|0.04339619688034369|-0.01252532469191435|-0.008470647952272776|0.9989436404953494|-0.02428899891674519|-0.08691290766000748|-0.9959197640419006|0|0|0|-1|-1|3
2021-04-22 20:42:24.304 +0100|137444.006690625|-0.04248046875|-0.0630340576171875|-0.995574951171875|137443.986729625|-0.01487761317847199|-0.02792801905704178|0.08948077882519324|0.1302082687616348|-0.1453748345375061|0.05337431281805038|0.006693927571177483|0.009101122617721558|-0.01607739925384521|XArbitraryZVertical|0.04461609570570436|-0.01428186391651103|-0.0080550780627789|0.998869722806089|-0.02781267091631889|-0.08936141431331635|-0.9956108927726746|0|0|0|-1|-1|3
2021-04-22 20:42:24.305 +0100|137444.026650625|-0.0550384521484375|-0.0973358154296875|-0.9769439697265625|137444.006690625|-0.01377487387980157|-0.03026135526380099|0.09185521124747928|0.1945149153470993|-0.1205559298396111|0.05793355777859688|-0.0114973746240139|0.01746249943971634|-0.002779603004455566|XArbitraryZVertical|0.04580101346958213|-0.0154299585978358|-0.007573959523052953|0.9988028373546709|-0.03012918308377266|-0.09172609448432922|-0.9953283667564392|0|0|0|-1|-1|3
2021-04-22 20:42:24.305 +0100|137444.046611625|-0.04705810546875|-0.119842529296875|-0.9748077392578125|137444.026650625|-0.0121030812333976|-0.03239353735101355|0.09522342253438887|0.1915310621261597|-0.08582703024148941|0.08762860298156738|-0.01780826225876808|0.01381220668554306|0.01775926351547241|XArbitraryZVertical|0.04748870538355817|-0.01646538413477116|-0.006814668771611097|0.9987129394150064|-0.03224114328622818|-0.09507957845926285|-0.9949474334716797|0|0|0|-1|-1|3
2021-04-22 20:42:24.306 +0100|137444.066572625|-0.0475921630859375|-0.0977020263671875|-0.97607421875|137444.046611625|-0.009924862400869089|-0.03335171705077894|0.09635626585267087|0.04357992857694626|-0.04701194167137146|0.1268372535705566|-0.0235113836824894|-0.02686922997236252|0.02219724655151367|XArbitraryZVertical|0.04806955323320335|-0.01689448491119224|-0.005759017065619557|0.998684547395949|-0.03319085389375687|-0.09620723128318787|-0.9948077797889709|0|0|0|-1|-1|3
2021-04-22 20:42:24.322 +0100|137444.086533625|-0.047607421875|-0.112518310546875|-0.9755859375|137444.066572625|-0.007381415396330082|-0.03445204395681979|0.09576743756176292|0.009653466753661633|-0.06269209831953049|0.129686564207077|-0.01379362493753433|-0.0002489164471626282|0.0187070369720459|XArbitraryZVertical|0.04779449055118425|-0.01738193830488333|-0.004510405930433087|0.9986958479245724|-0.03428739309310913|-0.09562111645936966|-0.9948270916938782|0|0|0|-1|-1|3
2021-04-22 20:42:24.342 +0100|137444.106493625|-0.0571441650390625|-0.109161376953125|-0.9743194580078125|137444.086533625|-0.004926638281600163|-0.0361478880034322|0.095668184706777|0.00757906399667263|-0.0687839686870575|0.1090576350688934|-0.01067193225026131|-0.01456890255212784|0.02184605598449707|XArbitraryZVertical|0.04776342532552316|-0.01816999747573961|-0.003324268075888577|0.9986879569939857|-0.03597475960850716|-0.09552232176065445|-0.9947770237922668|0|0|0|-1|-1|3
2021-04-22 20:42:24.362 +0100|137444.126454625|-0.0544281005859375|-0.1228790283203125|-0.9719696044921875|137444.106493625|-0.003450114489064257|-0.03796967776541891|0.09528848174168367|-0.003913175314664841|-0.07291544228792191|0.04133842140436172|-0.0166708379983902|-0.006569795310497284|0.01879382133483887|XArbitraryZVertical|0.04758485156840402|-0.01904427040106157|-0.002626908558147209|0.998682221164754|-0.03778834640979767|-0.09514434635639191|-0.9947459697723389|0|0|0|-1|-1|3
2021-04-22 20:42:24.382 +0100|137444.146415625|-0.06683349609375|-0.0994720458984375|-0.977508544921875|137444.126454625|-0.002735020020550137|-0.04009467356467808|0.09579449931709953|0.007669311948120594|-0.09058892726898193|0.0302039235830307|-0.01388764381408691|-0.02546001225709915|0.01991426944732666|XArbitraryZVertical|0.04784188688856846|-0.02008844560816962|-0.002325446448418921|0.9986502670880485|-0.03990015387535095|-0.09564805775880814|-0.9946151971817017|0|0|0|-1|-1|3
2021-04-22 20:42:24.402 +0100|137444.166375625|-0.0666351318359375|-0.0908966064453125|-0.987945556640625|137444.146415625|-0.002158488387208862|-0.04194689092129171|0.09624024231599586|0.0197356790304184|-0.07314575463533401|0.01823842898011208|-0.02141615748405457|-0.01262617856264114|0.01816326379776001|XArbitraryZVertical|0.04806833129642326|-0.02099951866694459|-0.002086537803991939|0.9986212348684775|-0.0417405366897583|-0.09609174728393555|-0.9944968819618225|0|0|0|-1|-1|3
2021-04-22 20:42:24.422 +0100|137444.186336625|-0.071044921875|-0.094207763671875|-1.000030517578125|137444.166375625|-0.001986726136315728|-0.04329762610846784|0.09733057726193006|0.05983529612421989|-0.05713487789034843|-0.00605057505890727|-0.02578424662351608|0.008158139884471893|0.008051931858062744|XArbitraryZVertical|0.04861317915519181|-0.02166979406858438|-0.00204500135867311|0.9985805241650777|-0.04307924211025238|-0.09717697650194168|-0.99433434009552|0|0|0|-1|-1|3
2021-04-22 20:42:24.442 +0100|137444.206297625|-0.073516845703125|-0.102294921875|-0.9936065673828125|137444.186336625|-0.002035222539446234|-0.04428307732264747|0.09863987898185927|0.04974143207073212|-0.03060159459710121|0.001048169564455748|-0.0269768200814724|0.006500959396362305|-0.004631161689758301|XArbitraryZVertical|0.04926533062215799|-0.02216295037231345|-0.002107611095140102|0.9985376698043673|-0.04405341669917107|-0.09848000109195709|-0.994163453578949|0|0|0|-1|-1|3
2021-04-22 20:42:24.462 +0100|137444.22625725|-0.0700225830078125|-0.0954437255859375|-0.9918670654296875|137444.206297625|-0.001869056635766967|-0.0448723599980065|0.09970762473733852|0.01563802361488342|-0.005834994837641716|0.01067301165312529|-0.02998153865337372|8.665025234222412e-05|0.001752614974975586|XArbitraryZVertical|0.04979965464237613|-0.02245297066291058|-0.002051103206003389|0.9985048267273352|-0.04463450983166695|-0.09954249858856201|-0.9940317273139954|0|0|0|-1|-1|3
2021-04-22 20:42:24.482 +0100|137444.24621725|-0.074310302734375|-0.12750244140625|-0.9998626708984375|137444.22625725|-0.001515406657985424|-0.04566504735739252|0.1003637682224636|0.007255073636770248|-0.03318954631686211|0.01363444607704878|-0.01877483725547791|0.0007089897990226746|-0.002544701099395752|XArbitraryZVertical|0.0501304567007434|-0.02283978906199653|-0.001901750343428312|0.9984797303390507|-0.04541946202516556|-0.1001953631639481|-0.9939305782318115|0|0|0|-1|-1|3
2021-04-22 20:42:24.502 +0100|137444.26617825|-0.0768585205078125|-0.1003265380859375|-0.9942169189453125|137444.24621725|-0.001451896105031188|-0.04637512147864084|0.09941227837389199|-0.09814991056919098|0.01865969598293304|-0.01070826593786478|-0.03164500743150711|-0.01558809727430344|-0.002314567565917969|XArbitraryZVertical|0.04965548895093521|-0.0231928980203564|-0.00187684213021371|0.9984954055548326|-0.04612961411476135|-0.09924861043691635|-0.9939928650856018|0|0|0|-1|-1|3
2021-04-22 20:42:24.522 +0100|137444.28613925|-0.0759124755859375|-0.1009674072265625|-1.000518798828125|137444.26617825|-0.001837422701904052|-0.04624874964330759|0.0970475946411537|-0.1097133085131645|0.03388333320617676|-0.01306986808776855|-0.03093592450022697|-0.006604097783565521|-0.001268386840820312|XArbitraryZVertical|0.04847054751780592|-0.02313963627911477|-0.002038925945569004|0.9985545359407564|-0.04601472243666649|-0.09689532965421677|-0.994230329990387|0|0|0|-1|-1|3
2021-04-22 20:42:24.542 +0100|137444.30610025|-0.0733184814453125|-0.09454345703125|-1.014022827148438|137444.28613925|-0.002153280802609617|-0.04622467524854538|0.09533244558107261|-0.07823341339826584|0.01827987469732761|-0.02703814767301083|-0.02748850360512733|-0.00565628707408905|-0.008350670337677002|XArbitraryZVertical|0.04761056412612362|-0.02313530180660467|-0.002176291758320828|0.9985957249924264|-0.04599839821457863|-0.09518811106681824|-0.9943959712982178|0|0|0|-1|-1|3
2021-04-22 20:42:24.562 +0100|137444.32606025|-0.0749664306640625|-0.0959930419921875|-1.0054931640625|137444.30610025|-0.003108827104369875|-0.04659050848012718|0.09435691945812977|-0.03599049896001816|-0.03312430158257484|-0.06546835601329803|-0.02631170302629471|0.0008341223001480103|-0.01642346382141113|XArbitraryZVertical|0.04711193434131089|-0.02334048576080978|-0.002650787304089871|0.998613496034803|-0.04636647924780846|-0.0942169651389122|-0.9944713711738586|0|0|0|-1|-1|3
2021-04-22 20:42:24.581 +0100|137444.34602125|-0.0706787109375|-0.112274169921875|-0.995208740234375|137444.32606025|-0.004900620262743988|-0.04804532342699689|0.09420888702460788|-0.01806577853858471|-0.0684472918510437|-0.1163336709141731|-0.0268632173538208|-0.00231923907995224|-0.01310586929321289|XArbitraryZVertical|0.04701450328308256|-0.02410897827026565|-0.003577926656444826|0.9985968839607483|-0.04781387373805046|-0.09406959265470505|-0.9944167733192444|0|0|0|-1|-1|3
2021-04-22 20:42:24.602 +0100|137444.36598225|-0.0742645263671875|-0.112762451171875|-0.9706878662109375|137444.34602125|-0.007516136754604418|-0.0499170111401708|0.09455257273680213|0.001487399218603969|-0.0976865142583847|-0.1400096118450165|-0.02233339473605156|-0.01348221302032471|-0.004470884799957275|XArbitraryZVertical|0.04714993721350098|-0.02510539652708006|-0.004932065544332887|0.9985602530093347|-0.0496734082698822|-0.09441174566745758|-0.994293212890625|0|0|0|-1|-1|3
2021-04-22 20:42:24.622 +0100|137444.38594325|-0.05816650390625|-0.11181640625|-0.9558868408203125|137444.36598225|-0.0103341315277987|-0.05219228601108362|0.09515710581651957|0.03896836191415787|-0.1068100258708|-0.1512908488512039|-0.02106604725122452|-0.01852615177631378|0.01795458793640137|XArbitraryZVertical|0.04740909952941445|-0.02630896654267603|-0.006400428283184866|0.9985086038910217|-0.05193258076906204|-0.0950135663151741|-0.9941204190254211|0|0|0|-1|-1|3
2021-04-22 20:42:24.641 +0100|137444.40590325|-0.10595703125|-0.09527587890625|-0.923797607421875|137444.38594325|-0.01349455295711773|-0.05504087078100728|0.09747043199413033|0.1870007663965225|-0.1787912249565125|-0.1968905627727509|-0.005917564034461975|-0.01733743399381638|0.03325128555297852|XArbitraryZVertical|0.04851092098605258|-0.02781223305199143|-0.008077144393642972|0.9984028380902514|-0.05475196614861488|-0.09731616824865341|-0.9937463402748108|0|0|0|-1|-1|3
2021-04-22 20:42:24.661 +0100|137444.42586425|-0.2400054931640625|-0.1942901611328125|-0.8701324462890625|137444.40590325|-0.02013581363141269|-0.05962349226254187|0.1033016363687839|0.2167457044124603|-0.3744907975196838|-0.738976001739502|-0.004862762987613678|0.004562430083751678|0.04723817110061646|XArbitraryZVertical|0.05130260196685973|-0.03028561169656025|-0.01158865169632358|0.9981566796679975|-0.05927051603794098|-0.103118009865284|-0.992901623249054|0|0|0|-1|-1|3
2021-04-22 20:42:24.682 +0100|137444.44582525|-0.347198486328125|-0.2314605712890625|-0.852783203125|137444.42586425|-0.04648494717261161|-0.05378451162775012|0.1047346067130884|-0.2225183248519897|0.1890300363302231|-1.824832439422607|-0.2360568791627884|-0.1145415455102921|0.2068120241165161|XArbitraryZVertical|0.05168625654310187|-0.02806093959537324|-0.02460721041204359|0.9979657795005579|-0.05346400663256645|-0.1045432314276695|-0.9930822253227234|0|0|0|-1|-1|3
2021-04-22 20:42:24.702 +0100|137444.46578625|-0.616546630859375|-0.2671661376953125|-0.6360015869140625|137444.44582525|-0.07928182878794648|-0.05250051453895262|0.1025547418563979|-0.006770230829715729|-0.4612603187561035|-1.06029748916626|-0.1152193993330002|-0.09452345967292786|0.1315740942955017|XArbitraryZVertical|0.05015816516404349|-0.0282227083786007|-0.04090904834078556|0.9975039783505438|-0.05220068246126175|-0.1023750677704811|-0.993375301361084|0|0|0|-1|-1|3
2021-04-22 20:42:24.721 +0100|137444.48574625|-0.53759765625|-0.2552490234375|-0.6128997802734375|137444.46578625|-0.09771108410167254|-0.05302278747026094|0.09764282249945865|-0.7583511471748352|0.2117243856191635|-0.9390484690666199|-0.595097541809082|-0.1017453894019127|0.3733698725700378|XArbitraryZVertical|0.04743363985520797|-0.0288275736049554|-0.05005289207049129|0.9972029709742193|-0.05274550244212151|-0.09748774021863937|-0.9938380122184753|0|0|0|-1|-1|3
2021-04-22 20:42:24.742 +0100|137444.50570725|-0.558380126953125|-0.1551361083984375|-0.5702972412109375|137444.48574625|-0.1211647007920149|-0.04332890132299026|0.07520980084111174|-1.566908121109009|0.5611831545829773|-1.591159224510193|-0.5236412882804871|-0.2013036906719208|0.3749908208847046|XArbitraryZVertical|0.03620760804603624|-0.02388345579325784|-0.06130123414175619|0.997176421481929|-0.04319289699196815|-0.07513891905546188|-0.9962371587753296|0|0|0|-1|-1|3
2021-04-22 20:42:24.762 +0100|137444.52566825|-0.539703369140625|-0.09942626953125|-0.54534912109375|137444.50570725|-0.1598094159377568|-0.03142661088447898|0.03888719717343854|-2.132858514785767|0.4543950259685516|-2.069813251495361|-0.4785059690475464|-0.1622020751237869|0.4027575254440308|XArbitraryZVertical|0.01812400252956156|-0.01721125552196006|-0.0800992770424869|0.9964735616652919|-0.03139768168330193|-0.03887739777565002|-0.9987505674362183|0|0|0|-1|-1|3
2021-04-22 20:42:24.781 +0100|137444.54562925|-0.455810546875|-0.0315093994140625|-0.5618743896484375|137444.52566825|-0.2058862067969806|-0.0212370630883714|-0.007455690847111166|-2.676060676574707|0.4653951525688171|-2.443358659744263|-0.5452789068222046|-0.1092004030942917|0.4639343619346619|XArbitraryZVertical|-0.0047990392336971|-0.01017898902808339|-0.1027154940276897|0.9946471660474018|-0.02123487740755081|0.007455621846020222|-0.9997467398643494|0|0|0|-1|-1|3
2021-04-22 20:42:24.801 +0100|137444.56558925|-0.4454345703125|0.09906005859375|-0.5491943359375|137444.54562925|-0.2610320846440195|-0.01467175826341323|-0.0674686427236777|-3.443167448043823|0.3923279941082001|-2.967016458511353|-0.4550132155418396|-0.1250643879175186|0.4395273327827454|XArbitraryZVertical|-0.03439434388082917|-0.002879853377771555|-0.1298229447654558|0.990936333758445|-0.0146378530189395|0.06741746515035629|-0.9976174831390381|0|0|0|-1|-1|3
2021-04-22 20:42:24.821 +0100|137444.58555025|-0.4365081787109375|0.33843994140625|-0.57061767578125|137444.56558925|-0.3261595876925081|-0.01412027013621025|-0.146067248095125|-4.51021146774292|0.4311508536338806|-3.402207374572754|-0.4240044057369232|-0.07993486523628235|0.449900209903717|XArbitraryZVertical|-0.07314196661078246|0.004898918596458845|-0.1614127195754192|0.9841607126335503|-0.01396944094449282|0.1455483883619308|-0.989252507686615|0|0|0|-1|-1|3
2021-04-22 20:42:24.841 +0100|137444.60551125|-0.40582275390625|0.57763671875|-0.506805419921875|137444.58555025|-0.4001082360462096|-0.01662809645571792|-0.2426895526395001|-5.232991695404053|0.716860830783844|-3.686256170272827|-0.4293106496334076|0.02497576177120209|0.3942214250564575|XArbitraryZVertical|-0.1202689309268037|0.01596573034595772|-0.1962679785905338|0.9730156537982896|-0.01614006794989109|0.2403142303228378|-0.9705609679222107|0|0|0|-1|-1|3
2021-04-22 20:42:24.861 +0100|137444.62547225|-0.353790283203125|0.8130340576171875|-0.4678192138671875|137444.60551125|-0.481753970180751|-0.0234419999628614|-0.3498269582704064|-5.578280448913574|1.027448654174805|-3.918146848678589|-0.3894645571708679|0.1801382601261139|0.4245867729187012|XArbitraryZVertical|-0.1717404935210548|0.03030240669939444|-0.2329174841502032|0.9567322308265126|-0.02202014811336994|0.3427352607250214|-0.9391739368438721|0|0|0|-1|-1|3
2021-04-22 20:42:24.881 +0100|137444.64543225|-0.260772705078125|1.055770874023438|-0.4398956298828125|137444.62547225|-0.572065244265034|-0.03397730618484742|-0.457637519725406|-5.370910167694092|1.462796092033386|-4.064511775970459|-0.3440223038196564|0.3017313480377197|0.4088798761367798|XArbitraryZVertical|-0.2222481715916219|0.04811683247591035|-0.2710576682580804|0.9353172353929463|-0.03047513775527477|0.4418299496173859|-0.8965810537338257|0|0|0|-1|-1|3
2021-04-22 20:42:24.901 +0100|137444.66539325|-0.225311279296875|1.050674438476562|-0.41156005859375|137444.64543225|-0.6716710107780155|-0.05144080382430197|-0.5548975955510459|-4.750124931335449|1.57942795753479|-4.250746250152588|-0.2395468801259995|0.4895626306533813|0.4109641909599304|XArbitraryZVertical|-0.2666671467230241|0.06688474149169944|-0.3101994772412491|0.9100503120208183|-0.04370306059718132|0.5268562436103821|-0.8488301038742065|0|0|0|-1|-1|3
2021-04-22 20:42:24.930 +0100|137444.68535425|-0.278778076171875|1.16314697265625|-0.38226318359375|137444.66539325|-0.7828929639133428|-0.08249493382299367|-0.6415723977198046|-4.566427230834961|1.649433374404907|-4.33293342590332|-0.1553134471178055|0.4623964428901672|0.3757325410842896|XArbitraryZVertical|-0.3061439692679953|0.0840254390959784|-0.3497367960014827|0.8814191925886664|-0.06601635366678238|0.5984559059143066|-0.7984312176704407|0|0|0|-1|-1|3
2021-04-22 20:42:24.941 +0100|137444.70531525|-0.2280426025390625|1.30828857421875|-0.3541107177734375|137444.68535425|-0.9048763843329735|-0.1226121230554967|-0.7210207450482404|-4.287553787231445|2.044909477233887|-4.268233299255371|-0.1800758838653564|0.4538010954856873|0.3481088876724243|XArbitraryZVertical|-0.3417252918789511|0.1023581867595392|-0.3888514925377274|0.8494359017420259|-0.09186734259128571|0.6601517200469971|-0.7454932332038879|0|0|0|-1|-1|3
2021-04-22 20:42:24.961 +0100|137444.72527525|-0.158782958984375|1.31103515625|-0.3731689453125|137444.70531525|-1.035839906046088|-0.1685143044336579|-0.7905608647659222|-3.925138235092163|2.33256459236145|-4.171758651733398|-0.1306624561548233|0.5800083875656128|0.3444991111755371|XArbitraryZVertical|-0.3718302623113132|0.1224783759505899|-0.4271210109856078|0.8150516628474511|-0.1179806292057037|0.7107478976249695|-0.6934825778007507|0|0|0|-1|-1|3
2021-04-22 20:42:24.981 +0100|137444.74523625|-0.1730804443359375|1.318222045898438|-0.3614654541015625|137444.72527525|-1.174758491338973|-0.2229192698330774|-0.8462349139070506|-3.459308862686157|2.367397785186768|-4.071669101715088|-0.02526801824569702|0.5670209527015686|0.2663410305976868|XArbitraryZVertical|-0.3958701742875724|0.1417159828833295|-0.4641579537525858|0.779590168011411|-0.14653180539608|0.7487902045249939|-0.6464067697525024|0|0|0|-1|-1|3
2021-04-22 20:42:25.002 +0100|137444.76519725|-0.1908721923828125|1.391738891601562|-0.404571533203125|137444.76519725|-1.47739973913976|-0.358297980149577|-0.9322063213045179|-3.273254632949829|2.670700073242188|-3.801291942596436|0.01124268770217896|0.5677598118782043|0.1653125286102295|XArbitraryZVertical|-0.4341328411169076|0.1800643279380614|-0.5326668225876976|0.7038265225009219|-0.2090282291173935|0.8029370307922363|-0.5582110285758972|0|0|0|-1|-1|3
2021-04-22 20:42:25.021 +0100|137444.78515725|-0.149932861328125|1.425613403320312|-0.4571075439453125|137444.78515725|-1.636539366698718|-0.4336748171993659|-0.9623878948760446|-3.049954891204834|2.725015878677368|-3.612711191177368|0.08317643404006958|0.5974555611610413|0.07848119735717773|XArbitraryZVertical|-0.4481473757130152|0.199595036879651|-0.5638603787766095|0.6643699182251487|-0.2401752173900604|0.8205587267875671|-0.5186514854431152|0|0|0|-1|-1|3
2021-04-22 20:42:25.041 +0100|137444.80511825|-0.1734466552734375|1.452667236328125|-0.5326385498046875||||||||||||||||||||||||3
2021-04-22 20:42:25.061 +0100|137444.82507925|-0.2083587646484375|1.407638549804688|-0.578582763671875|137444.80511825|-1.792736585124737|-0.508822651295382|-0.9814485731543604|-2.679410219192505|2.680211782455444|-3.369241714477539|0.1034227311611176|0.6204327344894409|-0.03828978538513184|XArbitraryZVertical|-0.4581866099668909|0.2176268261252458|-0.5926544141564561|0.6256712614670696|-0.270766943693161|0.8313033580780029|-0.4854072034358978|0|0|0|-1|-1|3
2021-04-22 20:42:25.081 +0100|137444.84504025|-0.2026824951171875|1.3160400390625|-0.561492919921875|137444.82507925|-1.940820753832801|-0.5793358708749337|-0.9917896077642686|-2.473281145095825|2.633107662200928|-3.083277702331543|0.09861153364181519|0.5891100168228149|-0.1172288656234741|XArbitraryZVertical|-0.4649119502776032|0.2343162494180622|-0.6187082169075607|0.588347751521995|-0.2995707988739014|0.8370065689086914|-0.4579055607318878|0|0|0|-1|-1|3
2021-04-22 20:42:25.101 +0100|137444.86500025|-0.165313720703125|1.176254272460938|-0.576385498046875|137444.84504025|-2.081381216014706|-0.6447971202076657|-0.9996387305838703|-2.626338243484497|2.612930297851562|-2.739701271057129|0.1135888993740082|0.5048694610595703|-0.1444128751754761|XArbitraryZVertical|-0.4697608890765833|0.2515800308539649|-0.6414191946304326|0.5519182478871635|-0.3249240815639496|0.8412757515907288|-0.4320643842220306|0|0|0|-1|-1|3
2021-04-22 20:42:25.121 +0100|137444.88496125|-0.1211700439453125|1.059310913085938|-0.5804901123046875|137444.86500025|-2.217565531193073|-0.7080537764359793|-1.009546769184972|-2.724402189254761|2.536555290222168|-2.321319818496704|0.1704582571983337|0.3574494123458862|-0.1673622727394104|XArbitraryZVertical|-0.4738284798206537|0.2707993533196839|-0.6601931561174074|0.5160421579982545|-0.3461488783359528|0.8465906977653503|-0.404308557510376|0|0|0|-1|-1|3
2021-04-22 20:42:25.141 +0100|137444.90492225|-0.1003875732421875|0.9735870361328125|-0.5818634033203125|137444.88496125|-2.346917655134415|-0.7694342532346155|-1.022758807446419|-2.856844902038574|2.304818868637085|-1.833848595619202|0.2298995554447174|0.2368439435958862|-0.2125462293624878|XArbitraryZVertical|-0.4773187135331754|0.2916226497169283|-0.6742819757438177|0.4821483396762636|-0.3624840676784515|0.8535486459732056|-0.3742461502552032|0|0|0|-1|-1|3
2021-04-22 20:42:25.161 +0100|137444.92488325|-0.0804290771484375|0.948211669921875|-0.58074951171875|137444.90492225|-2.470812401984858|-0.8327476832415073|-1.040986192944667|-2.947688341140747|2.009098291397095|-1.293630719184875|0.2727888226509094|0.1260339021682739|-0.2399664521217346|XArbitraryZVertical|-0.4810347026236841|0.3139868131048458|-0.6830395826090246|0.4510820037814213|-0.3738638758659363|0.8629030585289001|-0.3400357961654663|0|0|0|-1|-1|3
2021-04-22 20:42:25.181 +0100|137444.94484325|-0.08782958984375|0.938201904296875|-0.54168701171875|137444.92488325|-2.586166850108215|-0.8959905637503502|-1.06307487940443|-2.824379682540894|1.668526172637939|-0.7463923096656799|0.2944841682910919|0.08116203546524048|-0.2814314067363739|XArbitraryZVertical|-0.4843354115475539|0.3369679831674897|-0.6870009026413945|0.4241481746691537|-0.3796290159225464|0.8738545775413513|-0.3037435710430145|0|0|0|-1|-1|3
2021-04-22 20:42:25.201 +0100|137444.96480425|-0.0507354736328125|0.9793243408203125|-0.4766693115234375|137444.94484325|-2.689095242764044|-0.9565213361722035|-1.08814881752126|-2.597855806350708|1.409580230712891|-0.2284746915102005|0.2969884872436523|0.04970097541809082|-0.2921252250671387|XArbitraryZVertical|-0.4868323170553144|0.3595010316762427|-0.6868057678052583|0.4025559448754397|-0.3792799413204193|0.885769248008728|-0.2675065994262695|0|0|0|-1|-1|3
2021-04-22 20:42:25.220 +0100|137444.98476525|-0.0809173583984375|1.006103515625|-0.4087371826171875|137444.96480425|-2.779711089392522|-1.011538072628942|-1.112207332669551|-2.128896236419678|1.139263868331909|0.0316447839140892|0.3169508576393127|0.06161928176879883|-0.2558540999889374|XArbitraryZVertical|-0.4878622896277135|0.3802049904585583|-0.6848331378457677|0.3852768223986399|-0.3752401769161224|0.8966780304908752|-0.2348691076040268|0|0|0|-1|-1|3
2021-04-22 20:42:25.241 +0100|137445.00472625|-0.086761474609375|0.993896484375|-0.3558197021484375|137444.98476525|-2.845615557126857|-1.05042301120807|-1.132787863993735|-1.381256461143494|0.9263644814491272|0.2460283637046814|0.2879623472690582|0.1120558977127075|-0.2237493693828583|XArbitraryZVertical|-0.4869301797578021|0.3968094077120532|-0.6824560363129584|0.3737580938092768|-0.367995411157608|0.9055981636047363|-0.2108825892210007|0|0|0|-1|-1|3
2021-04-22 20:42:25.261 +0100|137445.02468625|-0.0789794921875|1.035659790039062|-0.309906005859375|137445.00472625|-2.878050011141955|-1.062443092805646|-1.147933968873188|-0.5320382118225098|0.8282003402709961|0.3943477869033813|0.2724957168102264|0.06856554746627808|-0.1683743894100189|XArbitraryZVertical|-0.483229365164154|0.4081876510485663|-0.6816092926965321|0.3678057237646505|-0.3584797382354736|0.911918044090271|-0.1997444480657578|0|0|0|-1|-1|3
2021-04-22 20:42:25.281 +0100|137445.04464725|-0.0691986083984375|0.9811553955078125|-0.2711944580078125|137445.02468625|-2.872121175667965|-1.041392981755042|-1.156637696082336|0.2850710451602936|0.7201175689697266|0.4729235768318176|0.2669937908649445|0.1187087893486023|-0.1156798303127289|XArbitraryZVertical|-0.4765045803547904|0.4139186479739922|-0.683294987292895|0.3670459508456171|-0.3473320603370667|0.9154552221298218|-0.2032294720411301|0|0|0|-1|-1|3
2021-04-22 20:42:25.301 +0100|137445.06460825|-0.0470123291015625|0.96234130859375|-0.2650299072265625|137445.04464725|-2.833758848305352|-0.9930377313550768|-1.15856375382063|0.8419494032859802|0.6136260628700256|0.4866335988044739|0.2611462771892548|0.07618743181228638|-0.06170080602169037|XArbitraryZVertical|-0.4677293873415426|0.4145123873482036|-0.6871246960490094|0.3704975853058221|-0.3356251418590546|0.9162285923957825|-0.2188173979520798|0|0|0|-1|-1|3
2021-04-22 20:42:25.321 +0100|137445.08456925|-0.0411376953125|0.974517822265625|-0.254425048828125|137445.06460825|-2.781929659834179|-0.9345788986789281|-1.15535712502549|1.041530728340149|0.4792070686817169|0.4386727213859558|0.2762883305549622|0.04666942358016968|-0.02447044849395752|XArbitraryZVertical|-0.4584888049509324|0.4121764470374417|-0.6918615503085184|0.3758009742988902|-0.3246289193630219|0.9149391651153564|-0.2397971898317337|0|0|0|-1|-1|3
2021-04-22 20:42:25.341 +0100|137445.10452925|-0.0353546142578125|0.9997100830078125|-0.2636566162109375|137445.08456925|-2.728209053142417|-0.8777411988712591|-1.148580358429218|1.09095823764801|0.2907966077327728|0.3791566789150238|0.2738625407218933|0.06428742408752441|0.007472306489944458|XArbitraryZVertical|-0.450077975071845|0.4080767293946054|-0.6964643975336922|0.3818908133569607|-0.3152450621128082|0.9121831059455872|-0.2618063986301422|0|0|0|-1|-1|3
2021-04-22 20:42:25.361 +0100|137445.12449025|-0.0660552978515625|1.063812255859375|-0.26910400390625|137445.10452925|-2.676522700477712|-0.826924771701659|-1.139597399221254|1.104026079177856|0.07347308844327927|0.3670438230037689|0.2723393440246582|0.07990717887878418|0.02227580547332764|XArbitraryZVertical|-0.443040174678259|0.4027481759876163|-0.7003571028323251|0.3885993041687404|-0.3075573444366455|0.9084653258323669|-0.2830186188220978|0|0|0|-1|-1|3
2021-04-22 20:42:25.380 +0100|137445.14445125|-0.1303863525390625|1.013427734375|-0.2708587646484375|137445.12449025|-2.626268627811033|-0.782417771495012|-1.129778824502062|1.105064153671265|-0.1841523349285126|0.4073371887207031|0.2467194199562073|0.1457763910293579|0.03022646903991699|XArbitraryZVertical|-0.437542511163544|0.3964714918052171|-0.7030427341448297|0.3963557694337445|-0.3009346425533295|0.9043177962303162|-0.3027338087558746|0|0|0|-1|-1|3
2021-04-22 20:42:25.400 +0100|137445.16441225|-0.1809844970703125|0.916015625|-0.2624664306640625|137445.14445125|-2.574888288872602|-0.7418322736954074|-1.119194941361516|1.189203381538391|-0.3816672563552856|0.4770223498344421|0.1790695488452911|0.1361083388328552|0.04945471882820129|XArbitraryZVertical|-0.4332510475349636|0.3891361761451737|-0.7045469135798494|0.4055616470864509|-0.2948539555072784|0.8997493982315063|-0.321733146905899|0|0|0|-1|-1|3
2021-04-22 20:42:25.431 +0100|137445.18437225|-0.1728973388671875|0.8167724609375|-0.2637481689453125|137445.16441225|-2.52247420195501|-0.7031217026867277|-1.108698882748417|1.111681222915649|-0.4414660930633545|0.5493533611297607|0.1145963370800018|0.04349416494369507|0.0784611701965332|XArbitraryZVertical|-0.4294264920579154|0.3815080736121935|-0.7050755828578197|0.4158282299495782|-0.2882726192474365|0.8951193690299988|-0.340088963508606|0|0|0|-1|-1|3
2021-04-22 20:42:25.440 +0100|137445.20433325|-0.16888427734375|0.7401885986328125|-0.290283203125|137445.18437225|-2.474378725377298|-0.6694717546841004|-1.09978188314264|0.9432409405708313|-0.5042413473129272|0.5610758662223816|0.1049275100231171|-0.04996800422668457|0.09418153762817383|XArbitraryZVertical|-0.4262749776885082|0.3746594682083732|-0.7046468269293444|0.4259025394440625|-0.2816097736358643|0.8911083936691284|-0.3558398485183716|0|0|0|-1|-1|3
2021-04-22 20:42:25.462 +0100|137445.22429425|-0.1671295166015625|0.692352294921875|-0.294097900390625|137445.20433325|-2.433106395002339|-0.6437774820241181|-1.09371656100195|0.6418272256851196|-0.6246945261955261|0.5954026579856873|0.1100246012210846|-0.1309548020362854|0.08771666884422302|XArbitraryZVertical|-0.424559271657162|0.3689345325469696|-0.7029159009030015|0.4353688262236944|-0.2756137251853943|0.888339638710022|-0.3672734797000885|0|0|0|-1|-1|3
2021-04-22 20:42:25.480 +0100|137445.2442559167|-0.1246795654296875|0.7490997314453125|-0.361236572265625|137445.22429425|-2.402537499940028|-0.62885858807525|-1.093835350187019|0.23875992000103|-0.5998281240463257|0.5349065065383911|0.08890411257743835|-0.1924564838409424|0.09954530000686646|XArbitraryZVertical|-0.4249518908291311|0.3657681466810146|-0.6993360095312867|0.4433496099797|-0.2700420022010803|0.8883941769599915|-0.3712590932846069|0|0|0|-1|-1|3
2021-04-22 20:42:25.500 +0100|137445.2642159167|-0.0874176025390625|0.6518096923828125|-0.4003143310546875|137445.2442559167|-2.37751547144491|-0.6197680173221591|-1.097495150292566|0.1552300453186035|-0.7309476137161255|0.5785566568374634|0.1320437788963318|-0.1481864452362061|0.01756370067596436|XArbitraryZVertical|-0.4266219532164126|0.3639629580956052|-0.6946597667957319|0.4505247857220628|-0.2647655308246613|0.8900683522224426|-0.3710493445396423|0|0|0|-1|-1|3
2021-04-22 20:42:25.520 +0100|137445.2841769167|-0.07989501953125|0.6002960205078125|-0.4319000244140625|137445.2642159167|-2.353252919266827|-0.6143910968875589|-1.102151097960461|0.09917829185724258|-0.8935925960540771|0.5920421481132507|0.1665935218334198|-0.2150574326515198|-0.02340981364250183|XArbitraryZVertical|-0.4295383737353616|0.3618814186850392|-0.6889983120663019|0.4580611161556078|-0.2603748142719269|0.8921810388565063|-0.3690772354602814|0|0|0|-1|-1|3
2021-04-22 20:42:25.540 +0100|137445.3041379167|-0.078857421875|0.581573486328125|-0.41595458984375|137445.2841769167|-2.328214074057935|-0.6110873291814831|-1.106792299400102|0.1787644028663635|-1.025546669960022|0.6065757870674133|0.1762540936470032|-0.2896996140480042|-0.06207966804504395|XArbitraryZVertical|-0.4333149363163392|0.3591212341371981|-0.6826245710764185|0.4661480003897788|-0.2567755579948425|0.894267737865448|-0.3665402233600616|0|0|0|-1|-1|3
2021-04-22 20:42:25.560 +0100|137445.3240989167|-0.0861053466796875|0.6457977294921875|-0.421539306640625|137445.3041379167|-2.298629422721663|-0.6065134984871176|-1.109379786159987|0.4538045525550842|-1.143152236938477|0.6226186752319336|0.1797401309013367|-0.3129798173904419|-0.04843759536743164|XArbitraryZVertical|-0.4372773465738534|0.354801758405249|-0.6759288222059147|0.4754205335649046|-0.2537766396999359|0.8954227566719055|-0.3658084571361542|0|0|0|-1|-1|3
2021-04-22 20:42:25.580 +0100|137445.3440589167|-0.0856781005859375|0.6606292724609375|-0.405975341796875|137445.3440589167|-2.198382802541459|-0.5668305673580496|-1.088497683016794|1.717928171157837|-1.396113991737366|0.6498902440071106|0.1672941446304321|-0.2244019508361816|-0.009050726890563965|XArbitraryZVertical|-0.4389684248350233|0.3341662359521866|-0.6659442799745875|0.5021533472828653|-0.2490516304969788|0.885931134223938|-0.3912793099880219|0|0|0|-1|-1|3
2021-04-22 20:42:25.600 +0100|137445.3640199167|-0.1808013916015625|0.7754364013671875|-0.479461669921875||||||||||||||||||||||||3
2021-04-22 20:42:25.620 +0100|137445.3839809167|-0.285858154296875|1.027572631835938|-0.541107177734375|137445.3640199167|-2.132119268594609|-0.5364734215356763|-1.060486431714656|2.30402684211731|-1.375214815139771|0.5496768355369568|0.09667941927909851|-0.1466261148452759|-0.03939980268478394|XArbitraryZVertical|-0.4359477425704858|0.3162831375650101|-0.663288547284656|0.5195797249123077|-0.2496496737003326|0.8725931644439697|-0.4198290705680847|0|0|0|-1|-1|3
2021-04-22 20:42:25.640 +0100|137445.4039419167|-0.4010467529296875|1.280166625976562|-0.5907745361328125|137445.3839809167|-2.067743563472487|-0.5081088024686223|-1.022812218297189|2.547108888626099|-1.352478981018066|0.3918395340442657|-0.006317555904388428|0.1078031659126282|-0.07644939422607422|XArbitraryZVertical|-0.4306262536728465|0.2949323139283798|-0.6623785050754706|0.5374298657973733|-0.2534642815589905|0.8535764813423157|-0.4551519155502319|0|0|0|-1|-1|3
2021-04-22 20:42:25.660 +0100|137445.4239019167|-0.5684356689453125|1.347869873046875|-0.737640380859375|137445.4039419167|-2.012690833398074|-0.4883092239388688|-0.9811870685563574|2.393065452575684|-1.327588558197021|0.2527931332588196|-0.1115364134311676|0.3874236941337585|-0.08292397856712341|XArbitraryZVertical|-0.4247166181887676|0.2721953955067148|-0.6622016818028241|0.5540888814136712|-0.2608552277088165|0.8311579823493958|-0.4910509288311005|0|0|0|-1|-1|3
2021-04-22 20:42:25.680 +0100|137445.4438629167|-0.6535491943359375|1.410797119140625|-0.759033203125|137445.4239019167|-1.973187494712838|-0.4809659972562791|-0.9488988732050518|1.603906631469727|-1.10719096660614|0.2719418108463287|-0.2538557350635529|0.5502469539642334|-0.1866717338562012|XArbitraryZVertical|-0.4214440241163447|0.2532644827147756|-0.6606508624232862|0.5672588525924533|-0.2695216834545135|0.8127744793891907|-0.5164840817451477|0|0|0|-1|-1|3
2021-04-22 20:42:25.700 +0100|137445.4638239167|-0.5325469970703125|1.41571044921875|-0.7459564208984375|137445.4438629167|-1.940195533414436|-0.4706669552101478|-0.9321544215763995|0.7353234887123108|-0.5112547278404236|0.6900705695152283|-0.3779786229133606|0.5931811332702637|-0.2400127649307251|XArbitraryZVertical|-0.41883284570702|0.2427646215098461|-0.6574135911284769|0.5774529715765556|-0.2703225016593933|0.8029060363769531|-0.531288743019104|0|0|0|-1|-1|3
2021-04-22 20:42:25.720 +0100|137445.4837849167|-0.4420928955078125|1.57855224609375|-0.7508087158203125|137445.4638239167|-1.904708348566212|-0.4462845496480743|-0.9280545456287654|0.7198740243911743|0.05951935052871704|1.075974464416504|-0.3107662796974182|0.5740407705307007|-0.1936280131340027|XArbitraryZVertical|-0.4142842947027472|0.2408846291788226|-0.6531397052802487|0.5863035851176884|-0.2587080001831055|0.8004553914070129|-0.5406862497329712|0|0|0|-1|-1|3
2021-04-22 20:42:25.740 +0100|137445.5037449167|-0.359527587890625|1.194686889648438|-0.6664886474609375|137445.4837849167|-1.851352486953537|-0.4010783838934265|-0.9213683986413798|1.257893323898315|0.1121099144220352|1.535909175872803|-0.2322604060173035|0.789049506187439|-0.2200089693069458|XArbitraryZVertical|-0.4045263042015216|0.2408080604875407|-0.6481361919816515|0.5985729910434924|-0.2360938787460327|0.7964298725128174|-0.556739866733551|0|0|0|-1|-1|3
2021-04-22 20:42:25.760 +0100|137445.5237059167|-0.385833740234375|0.83660888671875|-0.505401611328125|137445.5037449167|-1.783369921956002|-0.345484362362513|-0.9028973643609793|1.921169877052307|0.08207003772258759|1.661273121833801|-0.1603473424911499|0.5225685834884644|-0.1028506755828857|XArbitraryZVertical|-0.3902925361553651|0.237277487756813|-0.6426543256437756|0.6151153269973747|-0.2097403407096863|0.785124659538269|-0.5827422738075256|0|0|0|-1|-1|3
2021-04-22 20:42:25.780 +0100|137445.5436669167|-0.304840087890625|0.5847930908203125|-0.292510986328125|137445.5237059167|-1.712717911736762|-0.2883860845892001|-0.8765051969988306|1.922889471054077|0.2430950254201889|1.787635803222656|-0.1906617283821106|0.1112834215164185|0.08264094591140747|XArbitraryZVertical|-0.3734468596459771|0.2320094299350673|-0.6370155488856294|0.63318276484332|-0.1819741725921631|0.7685074806213379|-0.6134181618690491|0|0|0|-1|-1|3
2021-04-22 20:42:25.799 +0100|137445.5636279167|-0.183868408203125|0.592926025390625|-0.28924560546875|137445.5436669167|-1.649031534322252|-0.2340495583555766|-0.8536179360572754|1.522847890853882|0.4437656104564667|1.595324158668518|-0.1809440553188324|-0.08606100082397461|0.3089878559112549|XArbitraryZVertical|-0.3571614040033894|0.2297070360735112|-0.6309675067915603|0.6492693540556336|-0.15243099629879|0.7536632418632507|-0.6393408179283142|0|0|0|-1|-1|3
2021-04-22 20:42:25.819 +0100|137445.5835879167|-0.120574951171875|0.61370849609375|-0.2888641357421875|137445.5636279167|-1.590874355173473|-0.1819370424643529|-0.8296750588032278|1.61134934425354|0.3540310561656952|1.667765140533447|-0.07451951503753662|-0.1672014594078064|0.3734605312347412|XArbitraryZVertical|-0.3403259362304212|0.2284553190579237|-0.6252641829237274|0.6641018686599048|-0.1221520304679871|0.737712025642395|-0.6639728546142578|0|0|0|-1|-1|3
2021-04-22 20:42:25.839 +0100|137445.6035489167|-0.03656005859375|0.607208251953125|-0.351409912109375|137445.5835879167|-1.538333608460802|-0.1374830805053725|-0.8041936496481907|1.469482779502869|0.2731527090072632|1.463737607002258|-0.0471268892288208|-0.1092183589935303|0.4063694477081299|XArbitraryZVertical|-0.324480510749286|0.226139476372865|-0.6192372770271645|0.6783204483647344|-0.09507079422473907|0.7202715277671814|-0.6871466636657715|0|0|0|-1|-1|3
2021-04-22 20:42:25.859 +0100|137445.6235099167|0.028778076171875|0.4912872314453125|-0.28582763671875|137445.6035489167|-1.496992903312234|-0.103831797409942|-0.7789497538968774|1.399547576904297|0.1283375173807144|1.133276462554932|0.01215860247612|-0.08307158946990967|0.3669832944869995|XArbitraryZVertical|-0.3105082907972417|0.2228790576830141|-0.6142859796131271|0.6903349273402102|-0.07375938445329666|0.7025324106216431|-0.7078190445899963|0|0|0|-1|-1|3
2021-04-22 20:42:25.879 +0100|137445.6434709167|0.052947998046875|0.2398681640625|-0.319732666015625|137445.6235099167|-1.466539552599651|-0.08248291668788292|-0.755543337881195|1.049306273460388|-0.09425822645425797|0.8187586069107056|0.07995915412902832|-0.1524204015731812|0.4078431129455566|XArbitraryZVertical|-0.2994683522848766|0.2181891438858667|-0.6102812457772625|0.7001921517080183|-0.05997118726372719|0.6856842637062073|-0.7254244089126587|0|0|0|-1|-1|3
2021-04-22 20:42:25.899 +0100|137445.6634309167|0.0516815185546875|0.324371337890625|-0.607025146484375|137445.6434709167|-1.448285617608338|-0.07158379312664691|-0.7438686198241579|0.1615156084299088|-0.04924212396144867|0.4195734262466431|0.0998552143573761|-0.38212651014328|0.4669562578201294|XArbitraryZVertical|-0.2941363132401766|0.2156358430939669|-0.6070596781776463|0.7060196975412231|-0.05263028666377068|0.6771396994590759|-0.733970046043396|0|0|0|-1|-1|3
2021-04-22 20:42:25.919 +0100|137445.6833919167|-0.0389404296875|0.818603515625|-0.753997802734375|137445.6634309167|-1.443420446782038|-0.06746082625010434|-0.756109429325359|-1.214331388473511|0.1141724213957787|-0.02924404665827751|0.1131729185581207|-0.4095614552497864|0.1777449250221252|XArbitraryZVertical|-0.2976342707295414|0.2201949515803859|-0.6043222287525257|0.705494706192405|-0.0490412674844265|0.68609619140625|-0.7258560657501221|0|0|0|-1|-1|3
2021-04-22 20:42:25.939 +0100|137445.7033529167|-0.1205596923828125|0.9816131591796875|-0.760040283203125|137445.6833919167|-1.452124657592906|-0.06993093771326761|-0.7819999095658866|-1.306061863899231|0.1945851296186447|-0.4092606008052826|0.04641637206077576|-0.02189970016479492|-0.00067901611328125|XArbitraryZVertical|-0.3062782986727495|0.2287091023330029|-0.6034842445144397|0.6997803905699873|-0.04957596585154533|0.7046997547149658|-0.7077714800834656|0|0|0|-1|-1|3
2021-04-22 20:42:25.959 +0100|137445.7233139167|-0.2654266357421875|0.664031982421875|-0.48455810546875|137445.7033529167|-1.472279679033496|-0.08030236382839889|-0.8048962023361877|-1.027901411056519|0.1523061692714691|-0.8415561318397522|-0.04064878448843956|0.276662290096283|-0.0539361834526062|XArbitraryZVertical|-0.314819113889347|0.2353992327901574|-0.6056392896804288|0.6918649921389275|-0.05560467392206192|0.7207586765289307|-0.6909522414207458|0|0|0|-1|-1|3
2021-04-22 20:42:25.979 +0100|137445.7432739167|-0.40789794921875|0.6386566162109375|-0.643585205078125|137445.7233139167|-1.504567807888446|-0.1009769946232782|-0.8286014305299159|-1.880156397819519|0.3188407719135284|-1.10866916179657|-0.1600610613822937|0.02465540170669556|0.05381172895431519|XArbitraryZVertical|-0.3251063818149094|0.2409849296401594|-0.6098688643905261|0.6813898513233712|-0.06813514977693558|0.7369868159294128|-0.6724641919136047|0|0|0|-1|-1|3
2021-04-22 20:42:25.999 +0100|137445.7632349167|-0.4246368408203125|0.9020233154296875|-0.6147308349609375|137445.7432739167|-1.543375675603248|-0.1166391714467934|-0.8714021322359485|-3.061783790588379|0.9168943166732788|-0.918660581111908|-0.3125658929347992|-0.1963391304016113|-0.03255605697631836|XArbitraryZVertical|-0.3388292911458837|0.2559386842260691|-0.6134898004883599|0.6658231514164857|-0.07491682469844818|0.7652323246002197|-0.6393802165985107|0|0|0|-1|-1|3
2021-04-22 20:42:26.019 +0100|137445.7831959167|-0.2880706787109375|0.8839874267578125|-0.5161590576171875|137445.7632349167|-1.586690586291585|-0.1265938599889985|-0.9409470465682613|-4.187970638275146|1.388243675231934|-0.8887694478034973|-0.3896836042404175|0.04724538326263428|-0.07703721523284912|XArbitraryZVertical|-0.3575270934032871|0.2828774253289688|-0.613885350389932|0.6444374267990303|-0.07436768710613251|0.8081163167953491|-0.584309458732605|0|0|0|-1|-1|3
2021-04-22 20:42:26.039 +0100|137445.8031569167|-0.2621612548828125|0.96282958984375|-0.3282623291015625|137445.7831959167|-1.643997811212845|-0.145758230976538|-1.029015478820945|-4.781435012817383|1.435715436935425|-1.034223675727844|-0.2380777895450592|0.05095338821411133|-0.06411594152450562|XArbitraryZVertical|-0.3805482345582328|0.3163632692001336|-0.6115879583661817|0.6172986092723992|-0.07489622384309769|0.8567917346954346|-0.5101946592330933|0|0|0|-1|-1|3
2021-04-22 20:42:26.059 +0100|137445.8231169167|-0.1657257080078125|0.98248291015625|-0.3314971923828125|137445.8031569167|-1.716705693136572|-0.1822927310654024|-1.112738475569933|-3.873607397079468|1.315577507019043|-1.01298713684082|-0.192159116268158|0.03037869930267334|0.07651185989379883|XArbitraryZVertical|-0.4022745675567525|0.3474695720849424|-0.6085408171020243|0.58916747903903|-0.08016544580459595|0.8969129920005798|-0.4348801374435425|0|0|0|-1|-1|3
2021-04-22 20:42:26.079 +0100|137445.8430779167|-0.1876678466796875|0.68133544921875|-0.332977294921875|137445.8231169167|-1.794261922029621|-0.231486131233259|-1.17099498314443|-2.509297132492065|0.7873179912567139|-1.018536925315857|-0.102091908454895|0.08485817909240723|0.00301361083984375|XArbitraryZVertical|-0.4176670376105442|0.3689547614175287|-0.6071931936752525|0.5663419109478495|-0.08930007368326187|0.9211383461952209|-0.3788532614707947|0|0|0|-1|-1|3
2021-04-22 20:42:26.099 +0100|137445.8630389167|-0.4406585693359375|0.5692138671875|-0.346923828125|137445.8430779167|-1.885379084214388|-0.3048355212919568|-1.210470442990692|-2.416914701461792|0.3285559713840485|-1.118714094161987|-0.02789175510406494|-0.142096221446991|0.09483838081359863|XArbitraryZVertical|-0.4314787140137332|0.3816594101314569|-0.6069379817932051|0.5475296624554719|-0.1058219447731972|0.9357819557189941|-0.3363244235515594|0|0|0|-1|-1|3
2021-04-22 20:42:26.119 +0100|137445.8829999167|-0.159088134765625|1.093856811523438|-0.45654296875|137445.8630389167|-2.002055256207354|-0.4087647048279562|-1.257854704243323|-3.404820680618286|0.4508278965950012|-0.8548020720481873|-0.2890569865703583|-0.4450540542602539|-0.06195688247680664|XArbitraryZVertical|-0.4489334684609591|0.3964984632277111|-0.6023318314360586|0.5276781814331275|-0.1223666593432426|0.9514321088790894|-0.2824954092502594|0|0|0|-1|-1|3
2021-04-22 20:42:26.139 +0100|137445.9029599167|0.0320892333984375|1.264938354492188|-0.6035614013671875|137445.8829999167|-2.175520806430647|-0.5637901787155133|-1.315442024522446|-3.787962913513184|0.5726727843284607|-0.7625381946563721|-0.1234116405248642|-0.004332542419433594|-0.1781968772411346|XArbitraryZVertical|-0.4676886211138849|0.4177547392259045|-0.5941969907642297|0.503664858106245|-0.1349815726280212|0.967573881149292|-0.213496670126915|0|0|0|-1|-1|3
2021-04-22 20:42:26.159 +0100|137445.9229209167|0.0428924560546875|1.18902587890625|-0.4999237060546875|137445.9029599167|-2.444888784443346|-0.8190825450289635|-1.366330822260775|-4.046140670776367|0.1613186746835709|-0.7449721693992615|0.1679043620824814|0.2985250949859619|-0.4476464986801147|XArbitraryZVertical|-0.4879351690349406|0.4388512774591565|-0.5829092537708122|0.4791094583232765|-0.1483282595872879|0.9791696667671204|-0.1386576592922211|0|0|0|-1|-1|3
2021-04-22 20:42:26.179 +0100|137445.9428819167|0.163787841796875|1.266098022460938|-0.3939208984375|137445.9428819167|2.929895173373077|-1.708916706572612|-1.39224909940532|-3.892447471618652|0.004104561172425747|-0.6617476344108582|0.3056997656822205|0.2588934302330017|-0.4403464794158936|XArbitraryZVertical|-0.5310097203614217|0.4798487884536374|-0.5521292443388741|0.427699935033135|-0.1759093999862671|0.984102725982666|0.02445236593484879|0|0|0|-1|-1|3
2021-04-22 20:42:26.199 +0100|137445.9628429167|0.2400665283203125|1.292617797851562|-0.3377838134765625||||||||||||||||||||||||3
2021-04-22 20:42:26.219 +0100|137445.9828039167|0.2507171630859375|1.17010498046875|-0.3296661376953125|137445.9628429167|2.616360701863127|-2.019319176978502|-1.361576966801916|-2.699060678482056|-0.257518082857132|-0.4886648952960968|0.4204592704772949|0.3184984922409058|-0.4370499849319458|XArbitraryZVertical|-0.5484030463133002|0.494253389324274|-0.5376844636562611|0.4072630656818573|-0.1871532946825027|0.9781933426856995|0.0900646299123764|0|0|0|-1|-1|3
2021-04-22 20:42:26.239 +0100|137446.0027639167|0.2714996337890625|1.055313110351562|-0.3246612548828125|137445.9828039167|2.472185441376188|-2.16649915998015|-1.333822526468814|-1.552296876907349|-0.3867662847042084|-0.3389164209365845|0.4412426352500916|0.2373892664909363|-0.4649755954742432|XArbitraryZVertical|-0.5604770033506511|0.5017241307286704|-0.5271762238876101|0.3952515390258936|-0.1943258345127106|0.9720528721809387|0.1317231506109238|0|0|0|-1|-1|3
2021-04-22 20:42:26.258 +0100|137446.0227249167|0.26800537109375|1.049560546875|-0.3493804931640625|137446.0027639167|2.410680343196328|-2.23461366121798|-1.31554054731124|-0.7567434906959534|-0.4532943069934845|-0.2569417357444763|0.4655680060386658|0.09622883796691895|-0.4805965423583984|XArbitraryZVertical|-0.5686732889276215|0.5043758480474708|-0.520201762583192|0.3893662170706482|-0.1988758593797684|0.9675987362861633|0.1555686146020889|0|0|0|-1|-1|3
2021-04-22 20:42:26.279 +0100|137446.0426859167|0.2249298095703125|0.969024658203125|-0.3274688720703125|137446.0227249167|2.389709968631648|-2.264915668138467|-1.30597152544684|-0.2559846341609955|-0.5509696006774902|-0.159838542342186|0.4772854745388031|0.1045180559158325|-0.5150032043457031|XArbitraryZVertical|-0.5742786805211294|0.503907726842684|-0.5155505428693054|0.3879288776281659|-0.2011786550283432|0.9651383757591248|0.1674380004405975|0|0|0|-1|-1|3
2021-04-22 20:42:26.298 +0100|137446.0626469167|0.2136688232421875|0.92974853515625|-0.2938079833984375|137446.0426859167|2.38798703680735|-2.277649966580564|-1.302483658784401|-0.06888134032487869|-0.543674111366272|-0.07986274361610413|0.4359171390533447|0.02520614862442017|-0.5063090324401855|XArbitraryZVertical|-0.5782246468953954|0.5017389963924195|-0.5121692629003803|0.3893547319227314|-0.2015888839960098|0.9642195701599121|0.1721715182065964|0|0|0|-1|-1|3
2021-04-22 20:42:26.319 +0100|137446.0826069167|0.153289794921875|0.8990478515625|-0.2471771240234375|137446.0626469167|2.387268492424628|-2.288808243419862|-1.30155004405766|-0.1001617610454559|-0.5282198190689087|0.02834095433354378|0.4153738617897034|-0.03402477502822876|-0.4938499927520752|XArbitraryZVertical|-0.5811895835512598|0.4997195643480256|-0.5090602408043107|0.3916079641142152|-0.2003327012062073|0.9639716744422913|0.1750019490718842|0|0|0|-1|-1|3
2021-04-22 20:42:26.338 +0100|137446.1025679167|0.0932769775390625|0.9179229736328125|-0.1878662109375|137446.0826069167|2.367688460430436|-2.317821879099801|-1.298160718692731|-0.4874799251556396|-0.4435264766216278|0.05515845119953156|0.3718221485614777|-0.05588376522064209|-0.4325624704360962|XArbitraryZVertical|-0.5847228270013602|0.499578413955181|-0.5043697540143078|0.3925963255976818|-0.1975677162408829|0.9630645513534546|0.1829587519168854|0|0|0|-1|-1|3
2021-04-22 20:42:26.358 +0100|137446.1225289167|-0.0119781494140625|0.79388427734375|0.107879638671875|137446.1025679167|2.328232630600492|-2.36339516563523|-1.288578899074129|-1.034896612167358|-0.2827414870262146|-0.02287855744361877|0.3080446720123291|-0.04176956415176392|-0.3944694995880127|XArbitraryZVertical|-0.5892978270834737|0.5018908405402812|-0.4983941638700579|0.3904319043710623|-0.1954967975616455|0.9604402780532837|0.1983326822519302|0|0|0|-1|-1|3
2021-04-22 20:42:26.379 +0100|137446.1424899167|-0.200042724609375|0.7501373291015625|0.4658660888671875|137446.1225289167|2.255924205703893|-2.43712792028962|-1.25953947321842|-2.9008948802948|-0.1778323799371719|-0.4615258574485779|0.2217302322387695|-0.08657759428024292|-0.3108999729156494|XArbitraryZVertical|-0.5983110717206361|0.5086266551815218|-0.4887934327054792|0.3800052244945605|-0.1983394771814346|0.951949417591095|0.2333544194698334|0|0|0|-1|-1|3
2021-04-22 20:42:26.398 +0100|137446.1624499167|-0.2890777587890625|0.8630218505859375|0.836669921875|137446.1424899167|2.14992921408966|-2.537872857561328|-1.188797110400006|-4.760639190673828|0.06683116406202316|-0.8619300127029419|0.01826819777488708|-0.2156409621238708|0.04710754752159119|XArbitraryZVertical|-0.6165556046688722|0.5227805756779267|-0.4710299301582518|0.3531154615388154|-0.2116284817457199|0.9279212355613708|0.3068806827068329|0|0|0|-1|-1|3
2021-04-22 20:42:26.418 +0100|137446.1824109167|-0.3681640625|1.241546630859375|0.9471588134765625|137446.1624499167|2.05782815184654|-2.621376554002748|-1.093741064414161|-4.925615310668945|0.02946935966610909|-0.9418793916702271|-0.02165773510932922|-0.05729615688323975|0.3530411124229431|XArbitraryZVertical|-0.6381968302762905|0.5402929791469109|-0.44738201543022|0.3172345509027423|-0.2282363623380661|0.8883509039878845|0.3984234035015106|0|0|0|-1|-1|3
2021-04-22 20:42:26.438 +0100|137446.2023719167|-0.525390625|1.132537841796875|1.117279052734375|137446.1824109167|2.011532538078211|-2.660363814829963|-1.014233753612912|-3.051140785217285|0.01730047166347504|-0.8605786561965942|-0.1169156432151794|0.3092188239097595|0.4676542282104492|XArbitraryZVertical|-0.6550452606521003|0.5523156446709211|-0.4284826340570609|0.286820402814125|-0.2445202469825745|0.8490760326385498|0.4682737290859222|0|0|0|-1|-1|3
2021-04-22 20:42:26.458 +0100|137446.2223329167|-0.5251007080078125|1.0556640625|1.023117065429688|137446.2023719167|1.996909396013068|-2.674670921130758|-0.9675851552409455|-1.765262365341187|-0.1720883697271347|-0.5576865673065186|-0.2190216183662415|0.339705228805542|0.5765019655227661|XArbitraryZVertical|-0.6656927011848536|0.5568989874207869|-0.4172452024803424|0.2694872098885868|-0.2553598582744598|0.8235182166099548|0.5065665245056152|0|0|0|-1|-1|3
2021-04-22 20:42:26.478 +0100|137446.2422940417|-0.432464599609375|0.834503173828125|0.8498687744140625|137446.2223329167|1.985541759772685|-2.688599183573856|-0.9344694798584049|-1.548064231872559|-0.3278518617153168|-0.3082510828971863|-0.2822366952896118|0.2669899463653564|0.5363832116127014|XArbitraryZVertical|-0.6734095349791407|0.560066773805946|-0.4077342828485486|0.258065163529264|-0.2600768506526947|0.8042839169502258|0.5343104004859924|0|0|0|-1|-1|3
2021-04-22 20:42:26.499 +0100|137446.2622550417|-0.3611602783203125|0.7559814453125|0.7318267822265625|137446.2422940417|1.969943533542534|-2.708673912889738|-0.905364854327802|-1.466105937957764|-0.4433940947055817|-0.08884159475564957|-0.2124239802360535|0.09878671169281006|0.3270556926727295|XArbitraryZVertical|-0.6799055005150542|0.5638696711041997|-0.3971136250834073|0.2491594855980564|-0.2590125203132629|0.7866504788398743|0.5604410171508789|0|0|0|-1|-1|3
2021-04-22 20:42:26.544 +0100|137446.2822160417|-0.3267669677734375|0.6442718505859375|0.62786865234375|137446.2622550417|1.953051812741732|-2.731535957387055|-0.88359968918422|-0.9417507648468018|-0.4855442345142365|0.1493509113788605|-0.1120150089263916|-0.01341426372528076|0.1657149791717529|XArbitraryZVertical|-0.6845744658821366|0.5676696818428416|-0.3868756795414839|0.2437954198612015|-0.2528998851776123|0.7730274200439453|0.5817821621894836|0|0|0|-1|-1|3
2021-04-22 20:42:26.548 +0100|137446.3021770417|-0.303253173828125|0.5945587158203125|0.634124755859375|137446.2822160417|1.93786621645273|-2.752494887677939|-0.8729932524762977|-0.4324254393577576|-0.4669667482376099|0.3020527362823486|-0.08604061603546143|-0.1082353591918945|0.06625843048095703|XArbitraryZVertical|-0.6866295766530486|0.5707834526204728|-0.3792587350022832|0.2427119583182623|-0.2437485903501511|0.7662556171417236|0.5945078730583191|0|0|0|-1|-1|3
2021-04-22 20:42:26.558 +0100|137446.3221370417|-0.326385498046875|0.6074676513671875|0.6465911865234375|137446.3221370417|1.912402920285575|-2.791352097588464|-0.8758203388952824|0.406909316778183|-0.4840212166309357|0.5380198359489441|-0.1065087020397186|-0.1584650278091431|0.03321355581283569|XArbitraryZVertical|-0.6859961781398997|0.5745907738944539|-0.3696906161519541|0.2501671693188134|-0.2197252064943314|0.7680690884590149|0.6014906167984009|0|0|0|-1|-1|3
2021-04-22 20:42:26.578 +0100|137446.3420980417|-0.376861572265625|0.60247802734375|0.5540924072265625||||||||||||||||||||||||3
2021-04-22 20:42:26.598 +0100|137446.3620590417|-0.3845062255859375|0.44818115234375|0.4764556884765625|137446.3420980417|1.900671851730028|-2.809567229015383|-0.8925936583163033|0.8837948441505432|-0.4272182583808899|0.7153528928756714|-0.1584266126155853|-0.1674800515174866|-0.01888012886047363|XArbitraryZVertical|-0.6823585245879971|0.5752837458804662|-0.3687836068060426|0.25968106902322|-0.2045046836137772|0.7787016034126282|0.5931290984153748|0|0|0|-1|-1|3
2021-04-22 20:42:26.618 +0100|137446.3820200417|-0.4165802001953125|0.340545654296875|0.4228973388671875|137446.3620590417|1.886520378434493|-2.828628162554502|-0.9147545961458049|0.8607223033905029|-0.3250994086265564|0.8726537227630615|-0.2102238535881042|-0.3010033369064331|-0.08429265022277832|XArbitraryZVertical|-0.6769916828822828|0.5760729519398533|-0.3693020074740779|0.2709952958990893|-0.1878026574850082|0.7924129366874695|0.5803555846214294|0|0|0|-1|-1|3
2021-04-22 20:42:26.638 +0100|137446.4019800417|-0.44873046875|0.28082275390625|0.4046173095703125|137446.3820200417|1.863487552345061|-2.85282191144752|-0.9327650757984889|0.401869922876358|-0.2458117008209229|0.9845695495605469|-0.2316759824752808|-0.4343578815460205|-0.1426706314086914|XArbitraryZVertical|-0.6708889457082577|0.5791243485475425|-0.3685573317159031|0.2805150418320476|-0.1696158945560455|0.8032699227333069|0.5709539651870728|0|0|0|-1|-1|3
2021-04-22 20:42:26.657 +0100|137446.4219410417|-0.461334228515625|0.3596954345703125|0.4378204345703125|137446.4019800417|1.831064167885374|-2.882344000975805|-0.938597654250333|-0.3434385061264038|-0.1235905513167381|1.043807625770569|-0.2966055274009705|-0.5256171226501465|-0.1635811924934387|XArbitraryZVertical|-0.6656080363374146|0.5852801210503343|-0.3646909549163209|0.2853312059574367|-0.1514851003885269|0.8067302107810974|0.5711737275123596|0|0|0|-1|-1|3
2021-04-22 20:42:26.677 +0100|137446.4419020417|-0.413482666015625|0.490966796875|0.4649658203125|137446.4219410417|1.7911591991782|-2.916269273957343|-0.9309604994514903|-0.90184086561203|-0.04001139476895332|1.101772308349609|-0.3325158357620239|-0.4644555449485779|-0.1511397957801819|XArbitraryZVertical|-0.6615596284025301|0.594411098519574|-0.3572017529627273|0.2853442088092132|-0.1333969831466675|0.8021937608718872|0.5819714069366455|0|0|0|-1|-1|3
2021-04-22 20:42:26.697 +0100|137446.4618630417|-0.4415435791015625|0.57025146484375|0.5434722900390625|137446.4419020417|1.747120198924506|-2.950740606261168|-0.9151667839618891|-1.176660418510437|0.08064993470907211|1.163195610046387|-0.3084999322891235|-0.3299410343170166|-0.1373621821403503|XArbitraryZVertical|-0.6575947074850599|0.6056929098733276|-0.3479077832075382|0.2822511493452764|-0.1156495958566666|0.7926642894744873|0.5985894203186035|0|0|0|-1|-1|3
2021-04-22 20:42:26.717 +0100|137446.4818230417|-0.3519287109375|0.54083251953125|0.6835784912109375|137446.4618630417|1.703697888537685|-2.980435119471653|-0.8959932303938641|-1.156492829322815|0.4121037125587463|1.107604146003723|-0.3409466445446014|-0.2295143008232117|-0.09655308723449707|XArbitraryZVertical|-0.6530772088651443|0.6179114193604861|-0.3389436158683262|0.2771155646574485|-0.1002469584345818|0.7808299660682678|0.6166487336158752|0|0|0|-1|-1|3
2021-04-22 20:42:26.737 +0100|137446.5017840417|-0.298492431640625|0.5571136474609375|0.843780517578125|137446.4818230417|1.666118777225563|-2.997261662337796|-0.8767413473601283|-1.113804817199707|0.7737974524497986|0.9567287564277649|-0.2933286130428314|-0.214809775352478|0.01046925783157349|XArbitraryZVertical|-0.6476928171158267|0.6300781483817336|-0.3330688075426025|0.269371353093787|-0.09200254082679749|0.7686585187911987|0.6330088973045349|0|0|0|-1|-1|3
2021-04-22 20:42:26.757 +0100|137446.5217450417|-0.25823974609375|0.625762939453125|0.8722686767578125|137446.5017840417|1.633905985858483|-3.004862805763062|-0.8562950173957427|-1.219918489456177|0.9257600903511047|0.7985140681266785|-0.2129806876182556|-0.2048978209495544|0.1639232635498047|XArbitraryZVertical|-0.6422941714889961|0.6418886801267696|-0.3288168073214644|0.2594547322963536|-0.08931212872266769|0.7554200887680054|0.6491257548332214|0|0|0|-1|-1|3
2021-04-22 20:42:26.777 +0100|137446.5417060417|-0.2176666259765625|0.6431427001953125|0.862762451171875|137446.5217450417|1.609540702482667|-3.003550646935761|-0.8348355395570356|-1.1277174949646|1.022178530693054|0.4928322732448578|-0.1757242679595947|-0.1183676719665527|0.1976497173309326|XArbitraryZVertical|-0.6378418424467759|0.6523916463283209|-0.3258206216270077|0.2477579824566336|-0.0923735722899437|0.7411861419677734|0.6649141311645508|0|0|0|-1|-1|3
2021-04-22 20:42:26.797 +0100|137446.5616660417|-0.198211669921875|0.717498779296875|0.8672637939453125|137446.5417060417|1.596383491046482|-2.992110280989587|-0.8141562539438467|-1.048961639404297|1.08063018321991|0.09349013119935989|-0.1279139071702957|-0.09192270040512085|0.1889093518257141|XArbitraryZVertical|-0.6351049445287112|0.6603448708074607|-0.3246895770732998|0.2348686227368102|-0.1022353321313858|0.7271466255187988|0.6788272857666016|0|0|0|-1|-1|3
2021-04-22 20:42:26.817 +0100|137446.5816270417|-0.1976318359375|0.9133148193359375|0.878021240234375|137446.5616660417|1.595048822792618|-2.97092573798284|-0.7935157085201|-0.9906275868415833|1.128952026367188|-0.3228119313716888|-0.08526113629341125|-0.02152347564697266|0.178748607635498|XArbitraryZVertical|-0.6346317154765138|0.6654471608549435|-0.3251867482633138|0.2206273249926343|-0.1191159933805466|0.7128233909606934|0.6911546587944031|0|0|0|-1|-1|3
2021-04-22 20:42:26.837 +0100|137446.6015880417|-0.186431884765625|1.05938720703125|0.8813934326171875|137446.5816270417|1.603842261745954|-2.942096337156662|-0.7749146932617077|-0.6982279419898987|1.14940345287323|-0.6281054615974426|-0.05015008151531219|0.1487797498703003|0.1785803437232971|XArbitraryZVertical|-0.6359485357544961|0.6676261054881871|-0.327677670010611|0.2060880556885422|-0.1415927410125732|0.6996551156044006|0.7003102898597717|0|0|0|-1|-1|3
2021-04-22 20:42:26.857 +0100|137446.6215490417|-0.2308502197265625|1.173736572265625|0.9376678466796875|137446.6015880417|1.620979008381047|-2.907237721978557|-0.7614178125603387|-0.3555724620819092|1.126432538032532|-0.8377722501754761|-0.01945534348487854|0.3458338975906372|0.1675863265991211|XArbitraryZVertical|-0.6381920922764381|0.6668933435022755|-0.3329651904889286|0.1926096379126496|-0.1680913269519806|0.6899484395980835|0.7040717601776123|0|0|0|-1|-1|3
2021-04-22 20:42:26.877 +0100|137446.6415100417|-0.1829681396484375|1.181503295898438|0.8751373291015625|137446.6215490417|1.642999740966484|-2.870186117894908|-0.7534404204487707|0.01573068462312222|1.091378211975098|-0.9078830480575562|-0.0270087718963623|0.4583044052124023|0.2311344742774963|XArbitraryZVertical|-0.6406681247991771|0.6639768995208005|-0.3403702149738845|0.181182822478743|-0.1955262720584869|0.6841520667076111|0.7026419639587402|0|0|0|-1|-1|3
2021-04-22 20:42:26.897 +0100|137446.6614700417|-0.0867767333984375|1.063522338867188|0.7469329833984375|137446.6415100417|1.668805853163895|-2.831939160947628|-0.7530077102195425|0.4490379393100739|0.9668570756912231|-0.8971248269081116|0.02673757076263428|0.5140247344970703|0.1986054182052612|XArbitraryZVertical|-0.6426788466606865|0.6591135958255598|-0.3502317846626901|0.1728322947503529|-0.2223408818244934|0.6838364005088806|0.6949336528778076|0|0|0|-1|-1|3
2021-04-22 20:42:26.917 +0100|137446.6814310417|0.0186767578125|0.9661712646484375|0.6278228759765625|137446.6614700417|1.696798794447091|-2.794992423937237|-0.7570368234222974|0.5582482814788818|0.7943605780601501|-0.9092708230018616|0.1278709024190903|0.4132511615753174|0.1021167039871216|XArbitraryZVertical|-0.6445430965398383|0.6529846487128118|-0.3608837791372936|0.1671474509015896|-0.2469208538532257|0.6867706179618835|0.683649480342865|0|0|0|-1|-1|3
2021-04-22 20:42:26.937 +0100|137446.7013920417|0.082000732421875|0.9895782470703125|0.57342529296875|137446.6814310417|1.724814314472685|-2.762311366874799|-0.7594384149308527|0.3839927017688751|0.5560605525970459|-0.9067769050598145|0.2697969079017639|0.2948542237281799|-0.01807361841201782|XArbitraryZVertical|-0.6472129569101945|0.6464956745174761|-0.3697885322270339|0.1625283486890861|-0.2685161232948303|0.6885142922401428|0.6736825108528137|0|0|0|-1|-1|3
2021-04-22 20:42:26.957 +0100|137446.7213530417|0.09783935546875|0.9713134765625|0.5780181884765625|137446.7013920417|1.750824618343892|-2.735451425037735|-0.7590359572931054|0.3016629815101624|0.3397051990032196|-0.8434549570083618|0.3530115783214569|0.2851972579956055|-0.09090596437454224|XArbitraryZVertical|-0.6506495768155548|0.6402314556138029|-0.3763086693129225|0.1585900193742234|-0.2866215109825134|0.688222348690033|0.6664823889732361|0|0|0|-1|-1|3
2021-04-22 20:42:26.977 +0100|137446.7413130417|0.109832763671875|0.959686279296875|0.6104583740234375|137446.7213530417|1.774335867004063|-2.714240224863441|-0.7578107452008584|0.3176424503326416|0.1745906472206116|-0.7732217907905579|0.3955999910831451|0.2958219051361084|-0.09017413854598999|XArbitraryZVertical|-0.6543709351849358|0.6342782487933467|-0.3810631155027167|0.1558235876571342|-0.301042228937149|0.6873329281806946|0.6610204577445984|0|0|0|-1|-1|3
2021-04-22 20:42:26.997 +0100|137446.7612740417|0.0938568115234375|0.893157958984375|0.65008544921875|137446.7413130417|1.79742568623704|-2.696420652767864|-0.7581991115164354|0.4050129950046539|0.01984485611319542|-0.7371681928634644|0.4224133491516113|0.2812879085540771|-0.05405312776565552|XArbitraryZVertical|-0.6581650669273993|0.6280714225955832|-0.3852159090195097|0.1547702712481101|-0.3126577436923981|0.6876149773597717|0.6553099155426025|0|0|0|-1|-1|3
2021-04-22 20:42:27.017 +0100|137446.7812350417|0.084014892578125|0.852508544921875|0.661407470703125|137446.7612740417|1.82020882340557|-2.681725629681558|-0.7597732036898112|0.4660546481609344|-0.1181703209877014|-0.687005877494812|0.4218236207962036|0.2102147936820984|-0.005082309246063232|XArbitraryZVertical|-0.6621153594743917|0.6216432216319342|-0.3886899559674601|0.1551875224109877|-0.3217726349830627|0.688757061958313|0.649674117565155|0|0|0|-1|-1|3
2021-04-22 20:42:27.037 +0100|137446.8011960417|0.04498291015625|0.72735595703125|0.6448211669921875|137446.7812350417|1.842906630670515|-2.670091866529852|-0.76277162202356|0.510383129119873|-0.2911931872367859|-0.6564482450485229|0.4159081280231476|0.1799069046974182|0.01615744829177856|XArbitraryZVertical|-0.6662377262438811|0.6149385112593527|-0.3915041789658794|0.1571704556064192|-0.3283693790435791|0.6909277439117432|0.6440441608428955|0|0|0|-1|-1|3
2021-04-22 20:42:27.057 +0100|137446.8211560417|-0.00628662109375|0.6305389404296875|0.6320343017578125|137446.8011960417|1.864981157421029|-2.662386762255068|-0.7646405512693097|0.3601320087909698|-0.4581136703491211|-0.6867768168449402|0.3900523483753204|0.06495523452758789|0.008745253086090088|XArbitraryZVertical|-0.6710834537883962|0.6081290621058904|-0.3927709920782129|0.159865917253719|-0.332726001739502|0.6922776699066162|0.6403478980064392|0|0|0|-1|-1|3
2021-04-22 20:42:27.077 +0100|137446.8411170417|-0.0348358154296875|0.6013641357421875|0.639373779296875|137446.8211560417|1.885117829658251|-2.658861550811358|-0.7612007633318453|0.02436385303735733|-0.5625925660133362|-0.7806915044784546|0.3447050154209137|-0.03317487239837646|-0.0009875893592834473|XArbitraryZVertical|-0.6772089599685938|0.6016861583722862|-0.3915473669212203|0.1614081145005662|-0.3360847234725952|0.6897913217544556|0.6412764191627502|0|0|0|-1|-1|3
2021-04-22 20:42:27.097 +0100|137446.8610780417|-0.14654541015625|0.61578369140625|0.7406463623046875|137446.8411170417|1.904078540574037|-2.65776780992075|-0.7512125626746333|-0.2825416922569275|-0.6522809267044067|-0.9057098627090454|0.3148266077041626|-0.08126789331436157|-0.02412724494934082|XArbitraryZVertical|-0.684772253324178|0.595461739187868|-0.3881190662256753|0.1608603209792739|-0.3399740159511566|0.6825254559516907|0.6469754576683044|0|0|0|-1|-1|3
2021-04-22 20:42:27.117 +0100|137446.8810390417|-0.2459869384765625|0.6968231201171875|0.824188232421875|137446.8610780417|1.921405743307538|-2.660084378619635|-0.7342149084338732|-0.5901643633842468|-0.7529522776603699|-1.012848377227783|0.2284100949764252|-0.06398606300354004|0.06141048669815063|XArbitraryZVertical|-0.6938894443532414|0.589484770366928|-0.3821076908504827|0.1581744879957054|-0.3437980711460114|0.6700045466423035|0.657949686050415|0|0|0|-1|-1|3
2021-04-22 20:42:27.137 +0100|137446.9009990417|-0.25634765625|0.738494873046875|0.7874603271484375|137446.8810390417|1.93796563323508|-2.664890828823343|-0.7127830454159302|-0.6714888215065002|-0.8151436448097229|-1.079256772994995|0.1215852499008179|0.0275006890296936|0.1462807655334473|XArbitraryZVertical|-0.7040370200127686|0.5834655231805399|-0.3743290031452405|0.1542004596406573|-0.3471416532993317|0.653941810131073|0.6722002625465393|0|0|0|-1|-1|3
2021-04-22 20:42:27.157 +0100|137446.9209600417|-0.25469970703125|0.6754608154296875|0.7122802734375|137446.9009990417|1.95633929360838|-2.66997407163977|-0.6925791671534361|-0.4856913089752197|-0.8858898282051086|-1.090838432312012|0.09124377369880676|0.1003980040550232|0.1207169890403748|XArbitraryZVertical|-0.7143545725542971|0.5766206288702924|-0.3666151501163856|0.1509954067018951|-0.3496522903442383|0.6385242342948914|0.6855875849723816|0|0|0|-1|-1|3
2021-04-22 20:42:27.177 +0100|137446.9409210417|-0.24200439453125|0.6556243896484375|0.6610870361328125|137446.9209600417|1.976693456408156|-2.675313581954291|-0.6758688408853667|-0.2999131679534912|-0.9295761585235596|-1.070187926292419|0.09554597735404968|0.06593781709671021|0.03165119886398315|XArbitraryZVertical|-0.7244355973642478|0.5688872714796562|-0.3594638423574222|0.149486429668674|-0.3507349491119385|0.6255753636360168|0.6968793272972107|0|0|0|-1|-1|3
2021-04-22 20:42:27.197 +0100|137446.9608820417|-0.22711181640625|0.6748046875|0.63238525390625|137446.9409210417|1.998164879893613|-2.680560669344592|-0.663161016574897|-0.0529991127550602|-0.9257087111473083|-0.9998116493225098|0.1047620177268982|0.04019665718078613|-0.03115195035934448|XArbitraryZVertical|-0.7338884390285876|0.5606196292619966|-0.3531604974971587|0.1496368774745151|-0.3505820631980896|0.6156109571456909|0.7057732343673706|0|0|0|-1|-1|3
2021-04-22 20:42:27.217 +0100|137446.9808430417|-0.2619171142578125|0.726654052734375|0.629638671875|137446.9608820417|2.020873418669443|-2.685065020270847|-0.6582259364914087|0.4226315319538116|-0.9132910966873169|-0.8067706227302551|0.120156854391098|0.05305010080337524|-0.07424527406692505|XArbitraryZVertical|-0.7419371656357848|0.5518704068156297|-0.3487158041472948|0.1528583123997739|-0.3487344682216644|0.6117143630981445|0.7100633978843689|0|0|0|-1|-1|3
2021-04-22 20:42:27.237 +0100|137447.0008030417|-0.3008575439453125|0.7157440185546875|0.63934326171875|137446.9808430417|2.044236174495805|-2.688027078027169|-0.6654431616768112|1.055071353912354|-0.8027889132499695|-0.5304945707321167|0.09332725405693054|0.09575754404067993|-0.07603365182876587|XArbitraryZVertical|-0.7474709921567441|0.5429920072551315|-0.3473072817194499|0.1607003147522453|-0.3446862697601318|0.6174077987670898|0.7071064114570618|0|0|0|-1|-1|3
2021-04-22 20:42:27.257 +0100|137447.0207640417|-0.348785400390625|0.645721435546875|0.68536376953125|137447.0008030417|2.068356365902296|-2.68736392926593|-0.6866995993414594|1.651678681373596|-0.6463128328323364|-0.2301133126020432|0.04552543163299561|0.0964043140411377|-0.06093859672546387|XArbitraryZVertical|-0.7497448044885848|0.5341775038521891|-0.3499062409192273|0.1735018455167227|-0.3393191993236542|0.6339883208274841|0.6949257254600525|0|0|0|-1|-1|3
2021-04-22 20:42:27.276 +0100|137447.0407250417|-0.3672943115234375|0.73052978515625|0.7222747802734375|137447.0207640417|2.090645859217291|-2.684239626345382|-0.7177001731116502|1.844840288162231|-0.4577054679393768|0.05424507707357407|-0.003138601779937744|0.004302978515625|-0.003031134605407715|XArbitraryZVertical|-0.7489602021813423|0.5263150031301018|-0.355196348751181|0.189438351343499|-0.3326473534107208|0.6576539278030396|0.6758977174758911|0|0|0|-1|-1|3
2021-04-22 20:42:27.297 +0100|137447.0606860417|-0.4339447021484375|0.8989715576171875|0.7463836669921875|137447.0407250417|2.108095852087884|-2.680191237201416|-0.7536792248701314|1.990246891975403|-0.3399964570999146|0.3852191865444183|-0.03996267914772034|0.007507443428039551|0.06211572885513306|XArbitraryZVertical|-0.7454348961022048|0.5203747446633974|-0.3618419357776654|0.2064159995740893|-0.3246318697929382|0.684326171875|0.6529261469841003|0|0|0|-1|-1|3
2021-04-22 20:42:27.316 +0100|137447.0806460417|-0.376220703125|0.9224700927734375|0.6474151611328125|137447.0606860417|2.121825135570715|-2.677211815559702|-0.7987482098176155|2.48340630531311|-0.2746945321559906|0.7643429040908813|-0.09264039993286133|0.1410912275314331|0.1178798079490662|XArbitraryZVertical|-0.738865904215529|0.5156947048527623|-0.3697262798432522|0.2268013905063367|-0.3124357461929321|0.7164834141731262|0.6237276792526245|0|0|0|-1|-1|3
2021-04-22 20:42:27.336 +0100|137447.1006070417|-0.33306884765625|1.030197143554688|0.5139007568359375|137447.0806460417|2.133232773108024|-2.672647821087008|-0.8560612501828873|3.004098415374756|-0.1516977101564407|1.13357412815094|-0.1169655919075012|0.1707127094268799|0.09772557020187378|XArbitraryZVertical|-0.7281975021080459|0.5119175733729272|-0.3801035962235121|0.2513765021309067|-0.2962128818035126|0.7552669048309326|0.5846624374389648|0|0|0|-1|-1|3
2021-04-22 20:42:27.356 +0100|137447.1205680417|-0.2382659912109375|1.0684814453125|0.365814208984375|137447.1006070417|2.14263973631235|-2.667427413819317|-0.9255909248178866|3.387188673019409|-0.01535270642489195|1.469144701957703|-0.0603974461555481|0.1937757730484009|0.006151020526885986|XArbitraryZVertical|-0.7132970619228122|0.5086410812687114|-0.3923403738716585|0.2802867277191607|-0.274579793214798|0.7989762425422668|0.5350168943405151|0|0|0|-1|-1|3
2021-04-22 20:42:27.376 +0100|137447.1405290417|-0.1166839599609375|1.195053100585938|0.2003326416015625|137447.1205680417|2.149365472731438|-2.65890614394107|-1.000716490420801|3.59853720664978|0.2889879643917084|1.652218818664551|-0.0303318202495575|0.2286987900733948|-0.07851889729499817|XArbitraryZVertical|-0.6946858347609433|0.5063905154167295|-0.4061681950500911|0.3098511768896736|-0.2505071759223938|0.84185791015625|0.4780395328998566|0|0|0|-1|-1|3
2021-04-22 20:42:27.396 +0100|137447.1604890417|0.021484375|1.337234497070312|0.0288543701171875|137447.1405290417|2.154677590362158|-2.646383290506577|-1.082867108332257|3.890047311782837|0.4475066661834717|2.010416507720947|0.1007089167833328|0.3029280304908752|-0.1443538963794708|XArbitraryZVertical|-0.6718885259897277|0.5047834017905917|-0.4216421247844701|0.3405547346450385|-0.2227802574634552|0.883305549621582|0.4124809503555298|0|0|0|-1|-1|3
2021-04-22 20:42:27.416 +0100|137447.1804500417|0.1694488525390625|1.37353515625|-0.3025970458984375|137447.1604890417|2.164674957377287|-2.623707202908327|-1.170862052543042|4.016394138336182|0.8186804056167603|1.944575190544128|0.1455682367086411|0.3923594951629639|-0.2155595123767853|XArbitraryZVertical|-0.6450724895727984|0.5030227634766938|-0.4391126847357881|0.3715235436840755|-0.1927494257688522|0.9210866093635559|0.3383008241653442|0|0|0|-1|-1|3
2021-04-22 20:42:27.436 +0100|137447.2004110417|0.26898193359375|1.331314086914062|-0.5392608642578125|137447.1804500417|2.201856815358211|-2.571515271305059|-1.265492273446041|4.507944583892822|0.8316643834114075|1.914397358894348|0.3087383508682251|0.4509687423706055|-0.4663525521755219|XArbitraryZVertical|-0.6147133233121185|0.4986505249528979|-0.4591296858963527|0.4033303547689806|-0.1622244864702225|0.9537556171417236|0.2530496418476105|0|0|0|-1|-1|3
2021-04-22 20:42:27.456 +0100|137447.2203720417|0.4783477783203125|1.252731323242188|-0.432159423828125|137447.2004110417|2.293663112013327|-2.460562838070955|-1.367612654929738|5.256990432739258|1.364698648452759|2.100204229354858|0.3537596464157104|0.298693060874939|-0.6162638664245605|XArbitraryZVertical|-0.5791809831447056|0.4928865568951196|-0.4809315246167504|0.4362537464600905|-0.1270455718040466|0.9794291257858276|0.1567755341529846|0|0|0|-1|-1|3
2021-04-22 20:42:27.476 +0100|137447.240331875|0.608062744140625|1.220169067382812|-0.375396728515625|137447.2203720417|2.696874394581174|-2.030555025616087|-1.468607709773942|5.624042510986328|1.76247775554657|1.852363109588623|0.5088222026824951|0.2902051210403442|-0.5018093585968018|XArbitraryZVertical|-0.5372162219522757|0.48376825051261|-0.5073889044361493|0.46896014996823|-0.0914190411567688|0.9947832822799683|0.04526598006486893|0|0|0|-1|-1|3
2021-04-22 20:42:27.496 +0100|137447.260292875|0.4672393798828125|0.67742919921875|-0.2605438232421875|137447.240331875|-2.200567058975484|-0.6126085349767073|-1.469918487451805|6.803298473358154|1.902503252029419|1.360130786895752|0.63410884141922|0.2453487515449524|-0.3471105694770813|XArbitraryZVertical|-0.4892328197466647|0.4684593106124135|-0.538802123152882|0.5008887201483537|-0.05790739506483078|0.9949161410331726|-0.08239424228668213|0|0|0|-1|-1|3
2021-04-22 20:42:27.523 +0100|137447.280253875|0.507598876953125|-0.118560791015625|-0.115081787109375|137447.260292875|-1.762775406762706|-0.1441883227438508|-1.333441976996011|8.067141532897949|1.714015960693359|0.6615023612976074|0.5505697727203369|-0.1111083626747131|-0.1089217066764832|XArbitraryZVertical|-0.4360173628415948|0.4399347470123142|-0.5764726873552585|0.5329406126485721|-0.03378601372241974|0.9719634652137756|-0.2326925545930862|0|0|0|-1|-1|3
2021-04-22 20:42:27.536 +0100|137447.300214875|0.8283233642578125|0.0583953857421875|-0.0894927978515625|137447.280253875|-1.693469896863975|-0.03829506805077307|-1.196295140607803|5.420641422271729|2.25138521194458|0.1082766205072403|0.4501310586929321|-0.8796954154968262|0.2852177619934082|XArbitraryZVertical|-0.3848085198187381|0.4112811044472581|-0.6118036566464725|0.5553978390600439|-0.01400524564087391|0.9306902289390564|-0.3655405044555664|0|0|0|-1|-1|3
2021-04-22 20:42:27.556 +0100|137447.320175875|0.6561126708984375|0.742767333984375|-0.189788818359375|137447.300214875|-1.700796928372242|0.0005893000192646876|-1.125634437072502|1.536861896514893|2.191744804382324|-0.5265089869499207|0.798039436340332|-1.030226707458496|0.3656317591667175|XArbitraryZVertical|-0.3518008142315969|0.4011658962365351|-0.6357254450132925|0.55781313624977|0.0002537551044952124|0.9025409817695618|-0.4306042194366455|0|0|0|-1|-1|3
2021-04-22 20:42:27.576 +0100|137447.340135875|0.71221923828125|1.188140869140625|-0.1753692626953125|137447.320175875|-1.728497970775476|0.01587248881001093|-1.111874458134917|0.2572033107280731|1.910114645957947|-0.5737500190734863|0.7011896371841431|-0.319595992565155|0.2787868082523346|XArbitraryZVertical|-0.3374765862781697|0.405766545215056|-0.6487637871935957|0.5482414853277147|0.007030930370092392|0.8965306282043457|-0.4429261386394501|0|0|0|-1|-1|3
2021-04-22 20:42:27.596 +0100|137447.360096875|0.6147003173828125|0.7070465087890625|-0.0385284423828125|137447.340135875|-1.748178584548818|0.03460297784826096|-1.107650624519779|-0.1572668850421906|1.696552395820618|-0.3479264974594116|0.672210693359375|0.2638717889785767|0.271066427230835|XArbitraryZVertical|-0.3261603839683447|0.4127599069803732|-0.6580547266215941|0.5387139879955726|0.01545630674809217|0.8946515321731567|-0.4464973211288452|0|0|0|-1|-1|3
2021-04-22 20:42:27.616 +0100|137447.380057875|0.3939208984375|0.7617950439453125|0.1871490478515625|137447.360096875|-1.757158988377213|0.05655630039006368|-1.129860341072602|-2.476622581481934|1.360240936279297|-0.1624693870544434|0.6610095500946045|-0.09005224704742432|0.3042618632316589|XArbitraryZVertical|-0.3231678179848967|0.4272126044553283|-0.6596220800481655|0.5272103860546898|0.02412458695471287|0.904352605342865|-0.4261038899421692|0|0|0|-1|-1|3
2021-04-22 20:42:27.636 +0100|137447.400018875|0.5202178955078125|1.572280883789062|0.436798095703125|137447.380057875|-1.752287658955137|0.09023947395780932|-1.204213569596886|-4.05694055557251|1.529425501823425|-0.2054159641265869|0.3669297397136688|-0.3127996921539307|0.4921919703483582|XArbitraryZVertical|-0.3336225934248888|0.4584881053129589|-0.6488786231677799|0.5073867491787387|0.0323004387319088|0.9335576295852661|-0.3569692373275757|0|0|0|-1|-1|3
2021-04-22 20:42:27.656 +0100|137447.419978875|0.278839111328125|0.950286865234375|0.629241943359375|137447.400018875|-1.735454645698836|0.1315222867528917|-1.264193549533273|-1.80020010471344|0.9362689256668091|0.09731300920248032|0.4908738136291504|0.5345200300216675|0.7282307147979736|XArbitraryZVertical|-0.340742707292193|0.4840317879601226|-0.6392425527353219|0.4908938414439628|0.03958197310566902|0.9533644318580627|-0.2992152571678162|0|0|0|-1|-1|3
2021-04-22 20:42:27.676 +0100|137447.439939875|0.085540771484375|1.000885009765625|0.9220428466796875|137447.419978875|-1.722817715302131|0.1552683734662883|-1.277244528756994|0.08871486037969589|0.2803871929645538|0.06153130903840065|0.2901824414730072|0.1564556956291199|0.8312675952911377|XArbitraryZVertical|-0.3398560216795974|0.491488795802952|-0.6375008171885191|0.4863429656030025|0.0447472557425499|0.9572221636772156|-0.2858732938766479|0|0|0|-1|-1|3
2021-04-22 20:42:27.696 +0100|137447.459900875|-0.215118408203125|1.200698852539062|1.057525634765625|137447.439939875|-1.720357216253732|0.1576211818733323|-1.274634163097206|-0.00962650403380394|-0.3343351185321808|0.07599902153015137|0.08439067006111145|-0.02589118480682373|1.161158323287964|XArbitraryZVertical|-0.3389827725067565|0.490890620013464|-0.6378356010383167|0.4871170578887905|0.04581182822585106|0.956463634967804|-0.288234144449234|0|0|0|-1|-1|3
2021-04-22 20:42:27.716 +0100|137447.479861875|-0.6684417724609375|1.864517211914062|1.069183349609375|137447.459900875|-1.709248132526062|0.1524193484650483|-1.28560989163797|-1.232246279716492|-1.202930092811584|0.02165464498102665|-0.1600867211818695|0.1896674633026123|1.306074500083923|XArbitraryZVertical|-0.3464244451178657|0.4908690805187397|-0.631983989465158|0.4895243732123304|0.04271535202860832|0.9596092104911804|-0.2780753076076508|0|0|0|-1|-1|3
2021-04-22 20:42:27.736 +0100|137447.499821875|-1.595535278320312|2.4959716796875|1.043716430664062|137447.479861875|-1.696576332144423|0.133415055032668|-1.313256145597069|-1.284800052642822|-2.050958156585693|-0.004521920345723629|-0.5719977021217346|0.6580720543861389|1.352795958518982|XArbitraryZVertical|-0.3631675928894075|0.4918226754851494|-0.6197462169589206|0.4920716320869641|0.03388049080967903|0.9670194387435913|-0.2524394989013672|0|0|0|-1|-1|3
2021-04-22 20:42:27.756 +0100|137447.519782875|-2.172119140625|1.930465698242188|1.066085815429688|137447.499821875|-1.675881823069341|0.09891777495524445|-1.336088597403857|-0.8091829419136047|-3.319823026657104|0.242096483707428|-1.346637010574341|1.505460262298584|1.261527538299561|XArbitraryZVertical|-0.3850562804268994|0.4858192953962189|-0.6032648706460934|0.5017797966288955|0.02296675927937031|0.9725823402404785|-0.2314225435256958|0|0|0|-1|-1|3
2021-04-22 20:42:27.776 +0100|137447.539743875|-2.435455322265625|1.4915771484375|0.8661956787109375|137447.519782875|-1.62722027567127|0.0733510008190741|-1.342715016893769|0.01955090463161469|-4.011208534240723|0.8434962630271912|-2.109253168106079|1.119251251220703|1.294256806373596|XArbitraryZVertical|-0.4061201228779088|0.4715038230380905|-0.5843304289583643|0.5208729321265818|0.01657046563923359|0.9741020202636719|-0.2255011796951294|0|0|0|-1|-1|3
2021-04-22 20:42:27.795 +0100|137447.559704875|-2.538055419921875|1.274200439453125|0.65875244140625|137447.539743875|-1.526875973542586|0.08161665793273561|-1.337461115047263|0.350249320268631|-5.012905120849609|1.446286201477051|-2.392005443572998|0.6060025691986084|1.126495838165283|XArbitraryZVertical|-0.4254155987410163|0.4514359102481024|-0.5603083762354314|0.5488914668861724|0.0188507903367281|0.9729006290435791|-0.2304543703794479|0|0|0|-1|-1|3
2021-04-22 20:42:27.815 +0100|137447.579665875|-2.953170776367188|1.442047119140625|-0.298248291015625|137447.559704875|-1.379889142751462|0.1147293873627465|-1.326504775704649|0.4023029208183289|-5.986080169677734|2.118062257766724|-2.563410520553589|0.3059361577033997|0.9589065313339233|XArbitraryZVertical|-0.445327946176117|0.4260792371679648|-0.5279542831696331|0.5842977161773102|0.02768865786492825|0.9703088998794556|-0.2402790039777756|0|0|0|-1|-1|3
2021-04-22 20:42:27.835 +0100|137447.599625875|-2.491806030273438|0.881927490234375|-0.8599700927734375|137447.579665875|-1.206825580501106|0.1610168806096897|-1.310566412971338|1.059578657150269|-5.834599494934082|2.277399063110352|-2.77277398109436|0.4978873133659363|0.642325758934021|XArbitraryZVertical|-0.4639603083283846|0.3971820451685364|-0.4888174743395913|0.6229323796668014|0.04125130176544189|0.9663308262825012|-0.2539744973182678|0|0|0|-1|-1|3
2021-04-22 20:42:27.855 +0100|137447.619586875|-1.90936279296875|0.797821044921875|-1.189224243164062|137447.599625875|-1.038692827329601|0.2191478089404157|-1.281011638404715|1.127150774002075|-4.551470279693604|2.57843017578125|-2.744036912918091|0.06740570068359375|-0.4487340152263641|XArbitraryZVertical|-0.4721755557881867|0.3709370133087543|-0.452287513765502|0.6594634722978063|0.06212060526013374|0.9583054184913635|-0.2789119482040405|0|0|0|-1|-1|3
2021-04-22 20:42:27.875 +0100|137447.639547875|-1.685943603515625|0.310302734375|-1.43804931640625|137447.619586875|-0.8982997686492734|0.2724049283140874|-1.240991186820383|1.654179811477661|-3.565317630767822|2.493484973907471|-2.112952709197998|-0.06014949083328247|-0.7985413670539856|XArbitraryZVertical|-0.4709522307349152|0.3496361889522618|-0.4211075081535493|0.6918287859079574|0.08713372051715851|0.9461054801940918|-0.3119170665740967|0|0|0|-1|-1|3
2021-04-22 20:42:27.896 +0100|137447.659508875|-1.621322631835938|0.30340576171875|-1.661422729492188|137447.659508875|-0.6920259844462143|0.3566186992268234|-1.154257704937856|1.464886784553528|-1.897157549858093|2.500762701034546|-1.76772940158844|-0.5972949266433716|-1.216363310813904|XArbitraryZVertical|-0.4547336081584219|0.3219419564711926|-0.3707510941629467|0.7430440628701361|0.1412481516599655|0.9144948720932007|-0.3791414499282837|0|0|0|-1|-1|3
2021-04-22 20:42:27.915 +0100|137447.679468875|-1.589340209960938|0.0059051513671875|-1.798187255859375||||||||||||||||||||||||3
2021-04-22 20:42:27.935 +0100|137447.699429875|-1.323486328125|-0.0360870361328125|-1.703094482421875|137447.679468875|-0.6005009425465087|0.4094403500132824|-1.11300070186379|0.6757025718688965|-1.100262999534607|2.635279417037964|-1.778807878494263|-0.8212839961051941|-1.362183570861816|XArbitraryZVertical|-0.4429964060432153|0.3178586140209936|-0.3484668315662507|0.7624244467331931|0.1759472489356995|0.897028923034668|-0.4054401814937592|0|0|0|-1|-1|3
2021-04-22 20:42:27.955 +0100|137447.719390875|-0.963348388671875|0.2522735595703125|-1.421401977539062|137447.699429875|-0.4900161017915858|0.4948747661464946|-1.094206201561036|-1.247573614120483|-0.22480408847332|2.591155529022217|-1.636848092079163|-0.9783162474632263|-1.372942209243774|XArbitraryZVertical|-0.4385711536640873|0.3252659864461904|-0.3244550279783829|0.7723900638598861|0.2178712040185928|0.8885643482208252|-0.4037147760391235|0|0|0|-1|-1|3
2021-04-22 20:42:27.975 +0100|137447.739351875|-0.57830810546875|0.683074951171875|-1.047012329101562|137447.719390875|-0.3513601441210901|0.6213633279024432|-1.107148323611735|-2.881139278411865|0.4938751459121704|1.958110928535461|-1.299681425094604|-0.6874562501907349|-1.111260414123535|XArbitraryZVertical|-0.4474059636079813|0.3435348026113574|-0.2998031808682999|0.7693698984706153|0.2603432238101959|0.8944270014762878|-0.3636234998703003|0|0|0|-1|-1|3
2021-04-22 20:42:27.995 +0100|137447.759312875|-0.1324615478515625|0.854583740234375|-0.971832275390625|137447.739351875|-0.2072684746598188|0.7670622454481213|-1.132877663863212|-3.268690824508667|1.121423006057739|1.082921743392944|-0.9958587288856506|-0.4079246520996094|-0.8564736843109131|XArbitraryZVertical|-0.4623093978113204|0.3655408024315692|-0.2806784078440419|0.7575418204359171|0.294304370880127|0.9056362509727478|-0.3052998781204224|0|0|0|-1|-1|3
2021-04-22 20:42:28.015 +0100|137447.779272875|-0.0068817138671875|1.147796630859375|-0.8772430419921875|137447.759312875|-0.09515910316867909|0.8936547045150031|-1.1560535893902|-1.555886507034302|1.271628975868225|0.494520902633667|-0.5313968062400818|-0.1136448383331299|-0.7444849014282227|XArbitraryZVertical|-0.4749603476630805|0.3849329988425164|-0.2717477447418003|0.7432311673466734|0.3140496015548706|0.9152200222015381|-0.2524785101413727|0|0|0|-1|-1|3
2021-04-22 20:42:28.035 +0100|137447.799233875|0.065399169921875|0.97760009765625|-0.6701507568359375|137447.779272875|-0.05887487049764354|0.9528848944794756|-1.159069341330528|0.06023350358009338|1.323983430862427|0.1301381587982178|-0.3441233336925507|0.1876801252365112|-0.638973593711853|XArbitraryZVertical|-0.4751402720062835|0.3978932529527209|-0.2729322383443633|0.7358198324712604|0.3261933028697968|0.9164310693740845|-0.2318453639745712|0|0|0|-1|-1|3
2021-04-22 20:42:28.055 +0100|137447.819194875|0.3769989013671875|1.2235107421875|-0.5919952392578125|137447.799233875|-0.07240728618269708|0.9699794286429697|-1.156401104028704|0.4536104500293732|1.71861743927002|-0.2830965518951416|-0.2969695031642914|0.114837646484375|-0.5098552107810974|XArbitraryZVertical|-0.4690449566004301|0.4076618544868066|-0.2814355005289188|0.7311654751171063|0.3321247398853302|0.9153599739074707|-0.2276172786951065|0|0|0|-1|-1|3
2021-04-22 20:42:28.075 +0100|137447.839155875|0.7074127197265625|1.00732421875|-0.68377685546875|137447.819194875|-0.09998027821700302|0.9864818764527409|-1.162805167499956|-0.2142331898212433|2.556954860687256|-0.8435248136520386|-0.06194311380386353|0.1653938889503479|-0.1896865665912628|XArbitraryZVertical|-0.4633574299808489|0.4193639614427995|-0.2964916336361177|0.7221680921613225|0.3309393525123596|0.9179196953773499|-0.2188675254583359|0|0|0|-1|-1|3
2021-04-22 20:42:28.095 +0100|137447.859115875|0.85699462890625|1.008392333984375|0.0873565673828125|137447.839155875|-0.06565956739317755|1.071230809494052|-1.190973885648204|-2.351320266723633|2.752084970474243|-0.8857479095458984|0.3569565117359161|0.1955680251121521|-0.5783272981643677|XArbitraryZVertical|-0.4682300713565221|0.4381282746132087|-0.3094869462197488|0.7021553696030149|0.3254460394382477|0.9287304878234863|-0.1776084303855896|0|0|0|-1|-1|3
2021-04-22 20:42:28.115 +0100|137447.879076875|1.103805541992188|1.274795532226562|0.3503875732421875|137447.859115875|0.08469301583205886|1.277205251340441|-1.236314334051301|-3.982683658599854|3.709937572479248|-1.240347862243652|0.4470264613628387|0.008758664131164551|0.01528958976268768|XArbitraryZVertical|-0.4854724799990978|0.4656347183223044|-0.317434494944532|0.6683833494082161|0.3142335712909698|0.9445804953575134|-0.09500156342983246|0|0|0|-1|-1|3
2021-04-22 20:42:28.135 +0100|137447.899037875|0.902008056640625|1.47509765625|0.63702392578125|137447.879076875|0.2907230257812836|1.547636595009312|-1.274849358867483|-2.279383182525635|3.533391952514648|-1.473937749862671|0.8006398677825928|0.2623918652534485|0.3292787075042725|XArbitraryZVertical|-0.5025272375078957|0.4940541004521756|-0.3282720543121073|0.6289789247892622|0.2915679514408112|0.9565263986587524|-0.006753842812031507|0|0|0|-1|-1|3
2021-04-22 20:42:28.155 +0100|137447.918998875|0.7916717529296875|1.2354736328125|0.549346923828125|137447.899037875|0.3560315938643223|1.67519367659178|-1.30275214934921|0.4556886553764343|3.029667139053345|-1.359001517295837|0.702491283416748|0.4989359378814697|0.5687600374221802|XArbitraryZVertical|-0.503976748999204|0.5097126281517531|-0.349125953851729|0.6035823262540759|0.2634043395519257|0.9642907381057739|0.02759905345737934|0|0|0|-1|-1|3
2021-04-22 20:42:28.175 +0100|137447.938958875|0.81927490234375|0.7958526611328125|0.3648834228515625|137447.918998875|0.2347153674954078|1.616341041855593|-1.333291243155172|2.579932689666748|2.835448265075684|-1.442809224128723|0.5482126474380493|0.3439140915870667|0.5721582174301147|XArbitraryZVertical|-0.4907665253674557|0.5142997471291932|-0.3804395765842777|0.5915318315627013|0.2350353300571442|0.9719280004501343|0.01071202475577593|0|0|0|-1|-1|3
2021-04-22 20:42:28.195 +0100|137447.958919875|0.7130889892578125|0.54388427734375|0.241119384765625|137447.938958875|-0.05570026947909095|1.383905287460845|-1.356949167549516|3.523784637451172|2.311825513839722|-1.27964174747467|0.6186982989311218|-0.09776598215103149|0.4748103618621826|XArbitraryZVertical|-0.4692380061625067|0.5099998492778268|-0.416976986784425|0.5880867411297904|0.2085254043340683|0.9772217273712158|-0.03943169489502907|0|0|0|-1|-1|3
2021-04-22 20:42:28.215 +0100|137447.978880875|0.6924285888671875|0.5328521728515625|0.1409759521484375|137447.958919875|-0.377063087148763|1.111164571306923|-1.360331944422224|2.591226577758789|1.853873372077942|-1.119044303894043|0.5658944249153137|-0.3411539793014526|0.4044303297996521|XArbitraryZVertical|-0.4480067736021874|0.5029420994788453|-0.4496340047754314|0.5866588346688176|0.1872326880693436|0.9779340028762817|-0.09267835319042206|0|0|0|-1|-1|3
2021-04-22 20:42:28.235 +0100|137447.998841875|0.694305419921875|0.4529266357421875|0.0135345458984375|137447.978880875|-0.6169250673759124|0.912029787833692|-1.354376358367032|1.955517530441284|1.642288565635681|-1.105844974517822|0.4937868714332581|-0.4755887389183044|0.2453092187643051|XArbitraryZVertical|-0.4318282052302838|0.4977952408450672|-0.4753406314865353|0.5829029326785647|0.1698016226291656|0.9766724705696106|-0.1314485967159271|0|0|0|-1|-1|3
2021-04-22 20:42:28.255 +0100|137448.018802875|0.6213226318359375|0.164703369140625|-0.028411865234375|137447.998841875|-0.778060186015065|0.7837972699564889|-1.353265822886626|0.463040292263031|1.313493967056274|-1.148657560348511|0.5694229602813721|-0.4742971062660217|0.1913639456033707|XArbitraryZVertical|-0.4225052014015034|0.4950391454131004|-0.4945987840370179|0.5760187920943254|0.152362585067749|0.9764333963394165|-0.1528511941432953|0|0|0|-1|-1|3
2021-04-22 20:42:28.275 +0100|137448.038762875|0.514129638671875|0.1776885986328125|-0.036834716796875|137448.018802875|-0.8000670251449481|0.7871578032593117|-1.382818135910759|-2.206291198730469|1.189915180206299|-1.239309549331665|0.5007451772689819|-0.7451098561286926|0.1150146424770355|XArbitraryZVertical|-0.4273262582363318|0.5014369268218208|-0.5022936096810184|0.560048589562567|0.1323715895414352|0.9823840856552124|-0.1319065541028976|0|0|0|-1|-1|3
2021-04-22 20:42:28.295 +0100|137448.058723875|0.3889312744140625|-0.02825927734375|0.1776275634765625|137448.038762875|-0.5123559392756728|1.093434044746926|-1.44795173723104|-4.977455615997314|0.9762738943099976|-1.392651557922363|0.4353033900260925|-0.8318192958831787|0.03392875194549561|XArbitraryZVertical|-0.4486636116347781|0.520145829763049|-0.4952771817366323|0.5318364959635038|0.1088393703103065|0.9924640655517578|-0.05629855766892433|0|0|0|-1|-1|3
2021-04-22 20:42:28.314 +0100|137448.078684875|0.2808074951171875|-0.1989898681640625|0.595855712890625|137448.058723875|0.6982769042349447|2.31612167639456|-1.463583027280576|-7.90262508392334|0.8527246713638306|-1.681901574134827|0.3418011069297791|-0.9206646680831909|0.03269410878419876|XArbitraryZVertical|-0.4849915429984552|0.5486994737621165|-0.4730759700394503|0.4898075983631005|0.07863865047693253|0.9942581653594971|0.07257581502199173|0|0|0|-1|-1|3
2021-04-22 20:42:28.335 +0100|137448.098645875|0.201995849609375|0.2461090087890625|0.6928253173828125|137448.078684875|1.360998807051899|2.986456896597441|-1.316094724669643|-9.616246223449707|0.7490602135658264|-2.15833568572998|0.269524484872818|-1.21204662322998|0.2212982028722763|XArbitraryZVertical|-0.5331387421638263|0.5832913892082957|-0.4353464622950985|0.4312862676944167|0.03893100097775459|0.9677385091781616|0.2489315271377563|0|0|0|-1|-1|3
2021-04-22 20:42:28.354 +0100|137448.118605875|-0.1063690185546875|-0.0038299560546875|0.7929534912109375|137448.098645875|1.543571166398075|-3.111169729657086|-1.133916587586725|-8.635894775390625|0.568198561668396|-2.928792953491211|0.2197481393814087|-0.7454009056091309|0.2679224014282227|XArbitraryZVertical|-0.5823745284311116|0.6101634126337913|-0.3938031720709912|0.3653213725955545|-0.01287040207535028|0.9060763120651245|0.422918975353241|0|0|0|-1|-1|3
2021-04-22 20:42:28.374 +0100|137448.138566875|-0.452301025390625|0.5207366943359375|1.10589599609375|137448.118605875|1.648616155510151|-3.014398742734563|-0.9752831539163045|-6.649649143218994|0.05715504661202431|-3.411784172058105|0.09509522467851639|-0.7659250497817993|0.160668671131134|XArbitraryZVertical|-0.6269820544554933|0.6205600207657636|-0.3587441511435721|0.305125316929536|-0.07115514576435089|0.8278607726097107|0.5564024448394775|0|0|0|-1|-1|3
2021-04-22 20:42:28.395 +0100|137448.158527875|-0.508880615234375|0.612579345703125|1.0968017578125|137448.138566875|1.737364365528058|-2.941851854032819|-0.8559707238775265|-4.034837245941162|0.2096575051546097|-3.870291709899902|-0.2867668271064758|-0.3973884582519531|0.4389210343360901|XArbitraryZVertical|-0.6644290520507422|0.6162475225569911|-0.3359664616524767|0.2567095517037447|-0.1300585120916367|0.7552075386047363|0.6424539685249329|0|0|0|-1|-1|3
2021-04-22 20:42:28.414 +0100|137448.178488875|-0.4896087646484375|0.2768402099609375|0.9434814453125|137448.158527875|1.834481087336835|-2.866219254853453|-0.7916161664761742|-0.7369729280471802|0.2490529119968414|-4.022054672241211|-0.3016396462917328|-0.02850615978240967|0.4421862363815308|XArbitraryZVertical|-0.693437071313685|0.5977088543328718|-0.332746669757185|0.2262055396643906|-0.1910676509141922|0.7114898562431335|0.6762216687202454|0|0|0|-1|-1|3
2021-04-22 20:42:28.435 +0100|137448.198449875|-0.4783172607421875|0.1074981689453125|0.887542724609375|137448.178488875|1.944229276376434|-2.783639664107649|-0.7697283988906581|0.8645921945571899|0.252253383398056|-4.094156742095947|-0.2612264752388|-0.3478107452392578|0.3399126529693604|XArbitraryZVertical|-0.7157554721479031|0.5691977899273112|-0.344500432933167|0.2121970905781831|-0.2515919208526611|0.6959402561187744|0.672584056854248|0|0|0|-1|-1|3
2021-04-22 20:42:28.454 +0100|137448.218409875|-0.557373046875|-0.014617919921875|0.9924163818359375|137448.198449875|2.061856028493786|-2.69857099983074|-0.7585808552063557|1.299701452255249|0.1419359296560287|-4.183839321136475|-0.1502913534641266|-0.5507764220237732|0.2237725853919983|XArbitraryZVertical|-0.7355287179606663|0.5356019575783283|-0.3607354085581235|0.2049348415134546|-0.3111355006694794|0.6878920793533325|0.6557438969612122|0|0|0|-1|-1|3
2021-04-22 20:42:28.474 +0100|137448.23837075|-0.60235595703125|0.0464019775390625|1.16876220703125|137448.218409875|2.180718850864033|-2.614987900008467|-0.7437985693630342|1.394407510757446|0.1098502725362778|-4.190100193023682|-0.1719143390655518|-0.6840766668319702|0.3250260353088379|XArbitraryZVertical|-0.7539865030633187|0.4996047980091404|-0.3771846044970615|0.1990763009242512|-0.3698652386665344|0.6770881414413452|0.6362012028694153|0|0|0|-1|-1|3
2021-04-22 20:42:28.494 +0100|137448.25833175|-0.7129364013671875|0.3867950439453125|1.432098388671875|137448.23837075|2.296607409608518|-2.53732110710467|-0.724742491249595|1.64622437953949|-0.1417215019464493|-4.059455394744873|-0.1596410870552063|-0.6599977612495422|0.4623673558235168|XArbitraryZVertical|-0.7709563520402974|0.4622476382026943|-0.3925410408714752|0.1945897044969984|-0.4253667593002319|0.66294264793396|0.6160931587219238|0|0|0|-1|-1|3
2021-04-22 20:42:28.514 +0100|137448.27829275|-0.7109222412109375|0.8299713134765625|1.513839721679688|137448.25833175|2.408344814769092|-2.470166330448256|-0.7057645206334496|1.871039986610413|-0.5122064352035522|-3.868962049484253|-0.2242162525653839|-0.3240616321563721|0.7801021337509155|XArbitraryZVertical|-0.7863015402133116|0.423889360326441|-0.4055690982390218|0.1938079992286147|-0.4734929203987122|0.6486158967018127|0.5959045886993408|0|0|0|-1|-1|3
2021-04-22 20:42:28.534 +0100|137448.29825275|-0.7662200927734375|1.338973999023438|1.534011840820312|137448.27829275|2.515572676365617|-2.416911405662372|-0.687085245558667|2.048863649368286|-1.094600081443787|-3.610894441604614|-0.1959211230278015|0.09641081094741821|0.9219051003456116|XArbitraryZVertical|-0.8008881865181581|0.3846967818820738|-0.4145170231943935|0.1968812652673489|-0.5124843716621399|0.6342864632606506|0.5788270235061646|0|0|0|-1|-1|3
2021-04-22 20:42:28.554 +0100|137448.31821375|-0.7250823974609375|1.649673461914062|1.339279174804688|137448.29825275|2.620324431655061|-2.378764279036957|-0.676681134486099|2.759018898010254|-1.646637201309204|-3.073608160018921|-0.2215219140052795|0.5783348679542542|0.9912388920783997|XArbitraryZVertical|-0.8141122059356235|0.3449954745184986|-0.418659183285343|0.2071814282998414|-0.5387178063392639|0.6262089014053345|0.5636011362075806|0|0|0|-1|-1|3
2021-04-22 20:42:28.574 +0100|137448.33817475|-0.733428955078125|2.205062866210938|1.218704223632812|137448.31821375|2.729131135593647|-2.347670812947461|-0.684611301107518|3.807778358459473|-2.131816148757935|-2.372366428375244|-0.1878305077552795|0.9357429146766663|0.8506248593330383|XArbitraryZVertical|-0.8237524945745305|0.3049146722252573|-0.4198590158278699|0.2284239513679363|-0.5524201989173889|0.6323719620704651|0.5430822372436523|0|0|0|-1|-1|3
2021-04-22 20:42:28.620 +0100|137448.35813575|-0.733489990234375|3.098556518554688|1.001419067382812|137448.33817475|2.844456518010217|-2.323049520246145|-0.7157919344266347|4.790324687957764|-2.844229698181152|-1.488483667373657|-0.161907970905304|1.380725741386414|0.7327166795730591|XArbitraryZVertical|-0.829179938518579|0.2650573481154058|-0.4161904167174013|0.2626610454571714|-0.5509530305862427|0.6562151908874512|0.5155895352363586|0|0|0|-1|-1|3
2021-04-22 20:42:28.621 +0100|137448.37809675|-0.5859222412109375|3.437423706054688|0.5671234130859375|137448.35813575|2.973462671673616|-2.299581890623733|-0.7756723870439276|6.331314086914062|-3.544178009033203|-0.4961414337158203|-0.2146283388137817|2.235777378082275|0.5860274434089661|XArbitraryZVertical|-0.82893236861192|0.2249530263621727|-0.4059714768717679|0.31217701196413|-0.5325954556465149|0.7001962661743164|0.4754654765129089|0|0|0|-1|-1|3
2021-04-22 20:42:28.634 +0100|137448.39805675|-0.4397735595703125|3.3865966796875|-0.2931976318359375|137448.37809675|3.134678747758666|-2.255297667858081|-0.8738904373649345|8.115443229675293|-3.800891637802124|0.8700549602508545|-0.1474076509475708|2.663007736206055|0.2900908589363098|XArbitraryZVertical|-0.8178980856633433|0.184279074789831|-0.3898193836601392|0.3809525318358605|-0.4972618818283081|0.7668318152427673|0.4058321118354797|0|0|0|-1|-1|3
2021-04-22 20:42:28.654 +0100|137448.41801775|-0.3000335693359375|3.28839111328125|-1.466354370117188|137448.41801775|-2.654305259373544|-1.985472318104717|-1.156528987480984|10.05485725402832|-3.647013902664185|4.24119234085083|0.04471924901008606|2.34194278717041|-1.355882287025452|XArbitraryZVertical|-0.752684702386458|0.1206316877424224|-0.3336168769793875|0.5546292755518095|-0.368404895067215|0.9154114723205566|0.1621725261211395|0|0|0|-1|-1|3
2021-04-22 20:42:28.678 +0100|137448.43797875|-0.3310089111328125|2.979934692382812|-2.301605224609375||||||||||||||||||||||||3
2021-04-22 20:42:28.694 +0100|137448.45793975|-0.29779052734375|2.231948852539062|-2.576889038085938|137448.45793975|-1.132596895129207|-0.6552895379865674|-1.326661554586296|9.607293128967285|-2.75705623626709|6.623435497283936|-0.1232700049877167|1.412175893783569|-2.329695701599121|XArbitraryZVertical|-0.6280243720866165|0.09879289758120896|-0.233031965111586|0.7358814906276174|-0.1472997814416885|0.9703468084335327|-0.1916507035493851|0|0|0|-1|-1|3
2021-04-22 20:42:28.714 +0100|137448.47789975|-0.12689208984375|0.9909210205078125|-2.515640258789062|137448.47789975|-0.5155796398292888|-0.1083056914678061|-1.211694406688095|7.337103366851807|-1.567522883415222|5.645426750183105|-0.1034924983978271|0.4278621673583984|-2.13904333114624|XArbitraryZVertical|-0.5611773886178771|0.1019445161231102|-0.1794576351314322|0.8015499121215015|-0.03798789903521538|0.9362128376960754|-0.3493745028972626|0|0|0|-1|-1|3
2021-04-22 20:42:28.734 +0100|137448.49786075|0.005950927734375|-1.035125732421875|-2.591049194335938||||||||||||||||||||||||3
2021-04-22 20:42:28.754 +0100|137448.51782175|-2.199462890625|-0.91455078125|-2.485305786132812|137448.51782175|-0.3141587732806239|0.09270954933095826|-1.028632734854844|1.975027203559875|4.004711151123047|-1.755056619644165|-1.416559338569641|-2.17025351524353|-2.20888090133667|XArbitraryZVertical|-0.4790501283314037|0.1167201953619534|-0.158564822687933|0.8554207708003879|0.04776876047253609|0.8565942645072937|-0.5137747526168823|0|0|0|-1|-1|3
2021-04-22 20:42:28.773 +0100|137448.53778275|-3.700546264648438|2.435165405273438|-1.563491821289062||||||||||||||||||||||||3
2021-04-22 20:42:28.794 +0100|137448.55774375|-3.264633178710938|3.686370849609375|0.829437255859375|137448.53778275|-0.4284217525509039|0.1201759293089731|-0.9958723311081036|2.11325740814209|8.555832862854004|-4.273999214172363|-3.348974943161011|0.6034548282623291|-1.736380100250244|XArbitraryZVertical|-0.4546394263718204|0.1528999251282622|-0.2144522073574245|0.8508436972387787|0.06519101560115814|0.8392336368560791|-0.5398492217063904|0|0|0|-1|-1|3
2021-04-22 20:42:28.813 +0100|137448.57770375|-3.170440673828125|1.778533935546875|0.673797607421875|137448.55774375|-0.6262283477106871|0.1408722373760321|-0.9477786307241761|4.26357889175415|9.06324291229248|-5.844091892242432|-3.160738468170166|2.594830989837646|0.5200153589248657|XArbitraryZVertical|-0.4137965402005632|0.1997952879868772|-0.3039545906432956|0.8345453731174529|0.08192574977874756|0.8121213912963867|-0.5777085423469543|0|0|0|-1|-1|3
2021-04-22 20:42:28.833 +0100|137448.59766475|-2.913848876953125|-5.107421875|-4.707412719726562|137448.57770375|-0.8235213713024937|0.1959189424146772|-0.824784714564347|9.710708618164062|13.27907276153564|-4.782756328582764|-3.765227556228638|2.006229639053345|2.63654088973999|XArbitraryZVertical|-0.3296798670887936|0.2417556206430521|-0.4008358494624777|0.8198757289025348|0.1321241110563278|0.7344017028808594|-0.6657308340072632|0|0|0|-1|-1|3
2021-04-22 20:42:28.853 +0100|137448.61762575|-6.999649047851562|-0.0659942626953125|0.96990966796875|137448.59766475|-1.039240025121653|0.300687359159345|-0.74584150344115|0.5818319320678711|11.91085529327393|-7.463571071624756|-2.35158109664917|-4.438813209533691|-3.163947582244873|XArbitraryZVertical|-0.2434195398299986|0.2999434706427252|-0.504571632450227|0.7721323776005283|0.2175469398498535|0.6785901784896851|-0.7015616893768311|0|0|0|-1|-1|3
2021-04-22 20:42:28.873 +0100|137448.63758675|-5.213211059570312|2.221160888671875|3.497329711914062|137448.61762575|-1.154265284518547|0.4052800744915421|-0.8618789232949504|-5.989589214324951|9.178898811340332|-4.722553730010986|-6.290798187255859|-3.031054973602295|-0.475394606590271|XArbitraryZVertical|-0.243132704586198|0.3764954510302285|-0.5560482917757152|0.6999630102662191|0.2566787302494049|0.7590671181678772|-0.5982753038406372|0|0|0|-1|-1|3
2021-04-22 20:42:28.893 +0100|137448.65754675|-1.973587036132812|1.976348876953125|1.632720947265625|137448.63758675|-1.197863031199594|0.5845943448490958|-0.9937276545240119|-4.409890651702881|11.07620811462402|-3.157538890838623|-6.909279823303223|1.970253586769104|4.286512851715088|XArbitraryZVertical|-0.2341958567719028|0.4665480932227291|-0.5880165455938297|0.6178364967229785|0.3010787963867188|0.838065505027771|-0.4549703598022461|0|0|0|-1|-1|3
2021-04-22 20:42:28.913 +0100|137448.67750775|-1.017745971679688|0.2250518798828125|0.277557373046875|137448.65754675|-1.145106536692252|0.8186493337228649|-1.063446618731349|-2.658878803253174|7.952849864959717|0.5165101885795593|-2.617896318435669|0.7428470253944397|2.25285816192627|XArbitraryZVertical|-0.2051021916325502|0.5403336794616651|-0.5980090680483033|0.5552997051407453|0.3547883331775665|0.8740352392196655|-0.3319452106952667|0|0|0|-1|-1|3
2021-04-22 20:42:28.933 +0100|137448.69746875|-0.8492889404296875|-1.448974609375|1.0162353515625|137448.67750775|-1.060660688461697|1.023614644340503|-1.059800794038632|-1.175843000411987|4.905570983886719|1.655269026756287|-1.56365430355072|0.1230727434158325|0.7232369184494019|XArbitraryZVertical|-0.1663954250121449|0.587444938182978|-0.594064874002752|0.5237441847351187|0.4176423847675323|0.8722580671310425|-0.2544420063495636|0|0|0|-1|-1|3
2021-04-22 20:42:28.953 +0100|137448.71742975|-0.5041046142578125|0.49652099609375|1.623397827148438|137448.69746875|-0.9643195221368881|1.177820702872803|-1.047598850771092|-2.85236120223999|2.254161834716797|1.922656297683716|-1.407794237136841|-2.445098638534546|0.8636987805366516|XArbitraryZVertical|-0.1454725638112042|0.6190069083388767|-0.5800368531655965|0.5091418668619395|0.461565762758255|0.8662259578704834|-0.1913363635540009|0|0|0|-1|-1|3
2021-04-22 20:42:28.973 +0100|137448.73738975|-0.495635986328125|0.04730224609375|1.183181762695312|137448.71742975|-0.8450283808781122|1.309696720987125|-1.026982146045256|-1.822044730186462|0.7941978573799133|1.74994170665741|-1.111851930618286|-0.6377390027046204|1.762545824050903|XArbitraryZVertical|-0.1378138020543704|0.643603343658035|-0.5561513461424706|0.5074227166026795|0.4998672604560852|0.8557414412498474|-0.1335641890764236|0|0|0|-1|-1|3
2021-04-22 20:42:28.993 +0100|137448.75735075|0.057159423828125|-0.12115478515625|0.801116943359375|137448.73738975|-0.8025606098386353|1.348727462925568|-1.00287456323338|0.07469575107097626|0.8820954561233521|0.7646462321281433|-0.4463502168655396|-0.7793301939964294|1.318631291389465|XArbitraryZVertical|-0.131775338487703|0.6506931393743464|-0.543835543075832|0.5132998599253987|0.5246731638908386|0.8430206179618835|-0.1184673979878426|0|0|0|-1|-1|3
2021-04-22 20:42:29.013 +0100|137448.77731175|0.1487274169921875|-0.3567047119140625|0.749725341796875|137448.75735075|-0.8136697545533816|1.332353761050026|-0.9838244646352511|1.125054955482483|-0.4714992940425873|0.5300424098968506|-0.6511492133140564|-0.9683635234832764|1.076367616653442|XArbitraryZVertical|-0.125474080047312|0.647186479624727|-0.5422700554956309|0.5209120010944011|0.538172721862793|0.8326216340065002|-0.1308118253946304|0|0|0|-1|-1|3
2021-04-22 20:42:29.033 +0100|137448.79727275|0.210662841796875|-0.33453369140625|0.713623046875|137448.77731175|-0.8605353248335887|1.281810989658266|-0.9754102666046038|1.434830784797668|-0.7384448051452637|-0.3252538740634918|-0.3984742760658264|-1.127965450286865|0.9180941581726074|XArbitraryZVertical|-0.1210493589285109|0.6367375070513639|-0.5500073364533017|0.5266919527542796|0.537572979927063|0.8279320597648621|-0.1598248034715652|0|0|0|-1|-1|3
2021-04-22 20:42:29.053 +0100|137448.81723375|0.285003662109375|-0.1031951904296875|0.6273193359375|137448.79727275|-0.9109738266122451|1.224720290339486|-0.9789926428371448|1.106306791305542|-0.7945243716239929|-0.8254632949829102|-0.3478435873985291|-1.184046387672424|0.9206752777099609|XArbitraryZVertical|-0.122358716397552|0.6248303148435709|-0.5604026222273792|0.5296832894239382|0.5247840881347656|0.8299358487129211|-0.1892308443784714|0|0|0|-1|-1|3
2021-04-22 20:42:29.073 +0100|137448.83719375|0.4975738525390625|-0.015350341796875|0.4525299072265625|137448.81723375|-0.9525398952343576|1.173534822345245|-0.9902618531563219|0.5910856127738953|-0.8485975861549377|-1.049732446670532|-0.2296051383018494|-1.000155687332153|0.8637956380844116|XArbitraryZVertical|-0.1282815827534811|0.6143643943618128|-0.5697304312650889|0.5305728245614045|0.5057582855224609|0.8361696004867554|-0.2122004479169846|0|0|0|-1|-1|3
2021-04-22 20:42:29.093 +0100|137448.85715475|0.842041015625|0.2248077392578125|0.2611083984375|137448.83719375|-0.9758951757000195|1.138646983875338|-1.010614362603508|-0.2990624904632568|-0.688133180141449|-1.348103761672974|-0.07491612434387207|-0.8659571409225464|0.7391996383666992|XArbitraryZVertical|-0.1390021540563371|0.6077906267610418|-0.5760118443893691|0.5286581394065561|0.4824931621551514|0.8471584320068359|-0.2225379049777985|0|0|0|-1|-1|3
2021-04-22 20:42:29.113 +0100|137448.87711575|0.7191619873046875|1.004547119140625|0.1447296142578125|137448.85715475|-0.9730388072938971|1.127177049326062|-1.044437831940114|-1.222049355506897|-0.78752201795578|-1.609824776649475|0.3285278975963593|-0.7762783765792847|0.5217363834381104|XArbitraryZVertical|-0.1562485958464278|0.6064412626058535|-0.5781148084535565|0.523066778419171|0.4537593126296997|0.8646422624588013|-0.2156307399272919|0|0|0|-1|-1|3
2021-04-22 20:42:29.133 +0100|137448.89707675|0.8334808349609375|1.286727905273438|0.0447845458984375|137448.87711575|-0.9536272666327738|1.126791107141|-1.084445062972461|-1.199040651321411|-0.5087596774101257|-1.42870557308197|0.5574541091918945|-0.1032212972640991|0.3117693066596985|XArbitraryZVertical|-0.1776727435238659|0.6066659186283451|-0.5772196117027335|0.5169201407300485|0.4220832884311676|0.8840441703796387|-0.2007777243852615|0|0|0|-1|-1|3
2021-04-22 20:42:29.153 +0100|137448.91703775|1.00115966796875|1.112258911132812|-0.1097869873046875|137448.89707675|-0.9419328129680286|1.113519503162105|-1.11868684130963|-0.6877869367599487|-0.7625139355659485|-1.14507532119751|0.8017756342887878|0.2556696534156799|0.2109896838665009|XArbitraryZVertical|-0.1982086892468952|0.603551299986961|-0.5763903924893145|0.514016831175925|0.3919798731803894|0.8995275497436523|-0.1928782910108566|0|0|0|-1|-1|3
2021-04-22 20:42:29.173 +0100|137448.93699775|0.7763214111328125|1.394638061523438|-0.242767333984375|137448.91703775|-0.942451307999725|1.086003225600679|-1.147601398318943|-0.6830821633338928|-1.516087770462036|-1.260399460792542|0.6827114224433899|0.2075576186180115|0.106240525841713|XArbitraryZVertical|-0.2170907764615465|0.5976444728613307|-0.5763441547568657|0.5133422141676898|0.3633542656898499|0.9117814898490906|-0.1913853585720062|0|0|0|-1|-1|3
2021-04-22 20:42:29.193 +0100|137448.95695875|0.5906829833984375|1.40045166015625|-0.1947479248046875|137448.93699775|-0.9399838356585737|1.058824596930539|-1.176386615335777|-0.743426501750946|-1.38105833530426|-1.239430069923401|0.4990514814853668|0.3895512223243713|-0.03423963487148285|XArbitraryZVertical|-0.2366958190789015|0.5914814514417414|-0.5750265974886741|0.5132925865667438|0.334993302822113|0.9232235550880432|-0.1882495582103729|0|0|0|-1|-1|3
2021-04-22 20:42:29.213 +0100|137448.97691975|0.2474822998046875|1.241973876953125|-0.0952606201171875|137448.95695875|-0.9375711174036151|1.034114101457718|-1.205734709184426|-0.9064533114433289|-1.219899892807007|-1.233595252037048|0.3945236802101135|0.4928850531578064|-0.04497604072093964|XArbitraryZVertical|-0.2557468033131485|0.5859410712531281|-0.5735542680865613|0.5121545159239905|0.3068153858184814|0.9341017603874207|-0.1825332641601562|0|0|0|-1|-1|3
2021-04-22 20:42:29.233 +0100|137448.99688075|-0.046417236328125|1.251235961914062|-0.1236114501953125|137448.97691975|-0.9167412586871944|1.026832498652504|-1.240427275932463|-1.428662419319153|-0.921116828918457|-1.345928907394409|0.2503061592578888|0.2660678029060364|0.04083801805973053|XArbitraryZVertical|-0.2771608978491877|0.5824432388274972|-0.5696490894296458|0.5093542625478396|0.2775709927082062|0.9459226727485657|-0.167883425951004|0|0|0|-1|-1|3
2021-04-22 20:42:29.253 +0100|137449.01684075|-0.1624298095703125|1.395416259765625|-0.1022186279296875|137448.99688075|-0.8668320567748485|1.049791728468574|-1.285799560025693|-2.055225372314453|-0.4215453267097473|-1.671166300773621|0.09843367338180542|0.1836786270141602|0.005636528134346008|XArbitraryZVertical|-0.3023957950324073|0.5818799102106527|-0.5635325417336473|0.5023979121423323|0.2438507676124573|0.9596625566482544|-0.1399451047182083|0|0|0|-1|-1|3
2021-04-22 20:42:29.273 +0100|137449.03680175|-0.2970123291015625|1.370437622070312|0.000732421875|137449.01684075|-0.7771996182524199|1.116647130058751|-1.338801704908672|-2.183314561843872|-0.009166769683361053|-1.820768356323242|0.09911076724529266|0.2467764019966125|-0.0255545899271965|XArbitraryZVertical|-0.3296410256615638|0.5838700078030189|-0.5562232143025693|0.4909668386632132|0.2066136449575424|0.9732097387313843|-0.1008652150630951|0|0|0|-1|-1|3
2021-04-22 20:42:29.293 +0100|137449.05676275|-0.3791656494140625|1.32757568359375|0.118316650390625|137449.03680175|-0.650307956272382|1.223873112802626|-1.391610983678721|-2.022090911865234|0.1785042285919189|-1.979794263839722|0.04300564527511597|0.2506453990936279|0.03130137920379639|XArbitraryZVertical|-0.356340566250396|0.5854245849199021|-0.549632098199664|0.4777072277550682|0.167610689997673|0.9839892387390137|-0.06059891358017921|0|0|0|-1|-1|3
2021-04-22 20:42:29.313 +0100|137449.07672375|-0.2664031982421875|1.323410034179688|0.13031005859375|137449.07672375|-0.08457878385344293|1.759624246645749|-1.479491094252921|-1.671128273010254|0.3001973628997803|-1.922438859939575|-0.0171554833650589|0.2192686200141907|0.136815071105957|XArbitraryZVertical|-0.4051527075899998|0.5868634665701802|-0.5389109946188845|0.4483497413618673|0.08955767005681992|0.9958345890045166|0.01711488887667656|0|0|0|-1|-1|3
2021-04-22 20:42:29.333 +0100|137449.09668475|-0.1439666748046875|1.152252197265625|0.084197998046875||||||||||||||||||||||||3
2021-04-22 20:42:29.353 +0100|137449.11664475|-0.05743408203125|1.056869506835938|0.059783935546875|137449.09668475|0.4835815493220992|2.315243561403294|-1.496939851797612|-1.439973711967468|0.2116714417934418|-1.864854216575623|0.1189320608973503|0.07378643751144409|0.05560802668333054|XArbitraryZVertical|-0.4259752146126023|0.586126118813647|-0.534678197370254|0.4348799227201|0.05426964163780212|0.997273862361908|0.04999742284417152|0|0|0|-1|-1|3
2021-04-22 20:42:29.373 +0100|137449.13660575|-0.034149169921875|1.18646240234375|0.11614990234375|137449.11664475|1.070244570861335|2.889141943676554|-1.486437901358657|-1.520537257194519|0.08302030712366104|-1.749792456626892|0.2090555131435394|-0.02603054046630859|-0.01228427886962891|XArbitraryZVertical|-0.4457600848019055|0.5848867410678726|-0.5301692389089844|0.4220499252123899|0.02104624174535275|0.9964439272880554|0.08158910274505615|0|0|0|-1|-1|3
2021-04-22 20:42:29.392 +0100|137449.15656675|0.0263214111328125|1.278839111328125|0.1678466796875|137449.13660575|1.404299906574697|-3.074024343824822|-1.456781036502635|-1.469382047653198|-0.01312055066227913|-1.463481307029724|0.2114770114421844|0.04845470190048218|-0.001985177397727966|XArbitraryZVertical|-0.4645300729634045|0.5839240680388758|-0.5241987507799837|0.4104392621821894|-0.007681440562009811|0.9935072660446167|0.1135110110044479|0|0|0|-1|-1|3
2021-04-22 20:42:29.412 +0100|137449.17652775|0.119171142578125|1.203094482421875|0.1401824951171875|137449.15656675|1.560104910796956|-2.931926115797103|-1.428635906792092|-0.8920072913169861|-0.03998555988073349|-1.144800424575806|0.2448352575302124|0.173143208026886|0.02061519026756287|XArbitraryZVertical|-0.4797356332891477|0.5823601113259269|-0.5187449722520278|0.4020125121956844|-0.02948879264295101|0.989912211894989|0.1385791599750519|0|0|0|-1|-1|3
2021-04-22 20:42:29.432 +0100|137449.19648775|0.0925750732421875|1.15545654296875|0.1861724853515625|137449.17652775|1.65476215783561|-2.850365871377027|-1.411086390503423|-0.386963963508606|-0.1627033799886703|-0.9584026336669922|0.3320845663547516|0.1757516264915466|-0.006600156426429749|XArbitraryZVertical|-0.4907987868654106|0.5790377163719804|-0.5155437537344759|0.3975507978142068|-0.04566268622875214|0.9872734546661377|0.1523362547159195|0|0|0|-1|-1|3
2021-04-22 20:42:29.452 +0100|137449.21644875|0.0974273681640625|1.246261596679688|0.200225830078125|137449.19648775|1.722495918423147|-2.797635425906176|-1.398403343062181|-0.372065544128418|-0.3163740634918213|-0.7579003572463989|0.3186334073543549|0.1030798554420471|0.01088450849056244|XArbitraryZVertical|-0.5003202204925943|0.5748273006808421|-0.5124852959116206|0.3957425664418976|-0.05784625187516212|0.9851770997047424|0.1614934951066971|0|0|0|-1|-1|3
