loggingTime(txt)|accelerometerTimestamp_sinceReboot(s)|accelerometerAccelerationX(G)|accelerometerAccelerationY(G)|accelerometerAccelerationZ(G)|motionTimestamp_sinceReboot(s)|motionYaw(rad)|motionRoll(rad)|motionPitch(rad)|motionRotationRateX(rad/s)|motionRotationRateY(rad/s)|motionRotationRateZ(rad/s)|motionUserAccelerationX(G)|motionUserAccelerationY(G)|motionUserAccelerationZ(G)|motionAttitudeReferenceFrame(txt)|motionQuaternionX(R)|motionQuaternionY(R)|motionQuaternionZ(R)|motionQuaternionW(R)|motionGravityX(G)|motionGravityY(G)|motionGravityZ(G)|motionMagneticFieldX(µT)|motionMagneticFieldY(µT)|motionMagneticFieldZ(µT)|motionHeading(°)|motionMagneticFieldCalibrationAccuracy(Z)|label
2021-04-22 20:45:55.469 +0100|137641.257778375|0.18304443359375|-0.328887939453125|-0.9307403564453125|137641.237817375|0.1233771383517561|0.1740462790821716|0.3387288978250494|0.005182074382901192|0.02881170436739922|-0.04787729308009148|0.006943404674530029|0.01164120435714722|0.003284096717834473|XArbitraryZVertical|0.1623171686607965|0.09585888078291166|0.07515930322836488|0.9791912796315947|0.1633290648460388|-0.3322884738445282|-0.9289284348487854|0|0|0|-1|-1|3
2021-04-22 20:45:55.478 +0100|137641.277739375|0.16162109375|-0.3186187744140625|-0.923980712890625|137641.257778375|0.1224700040194809|0.1749449098317147|0.339075568973938|0.003525072243064642|0.0002706609666347504|-0.02446961961686611|0.01894615590572357|0.009419947862625122|-0.007917106151580811|XArbitraryZVertical|0.1624970930953423|0.09623309698103252|0.0748012348646285|0.9791520668708855|0.1641437113285065|-0.3326154351234436|-0.9286677837371826|0|0|0|-1|-1|3
2021-04-22 20:45:55.479 +0100|137641.297700375|0.167572021484375|-0.3156890869140625|-0.9184722900390625|137641.277739375|0.1217334664161949|0.1757688839576488|0.3384664554818989|-0.01685724779963493|0.01593020744621754|-0.03676711767911911|-0.008068978786468506|0.01000511646270752|0.002217471599578857|XArbitraryZVertical|0.1622030719691573|0.09656295072444945|0.074484399442584|0.9791925444911036|0.1649442464113235|-0.332040935754776|-0.9287315011024475|0|0|0|-1|-1|3
2021-04-22 20:45:55.488 +0100|137641.317661375|0.176239013671875|-0.3092193603515625|-0.9238433837890625|137641.297700375|0.1210947265879797|0.1764753787493687|0.3373929863809603|-0.03094333782792091|0.009970266371965408|-0.02705732360482216|0.004136621952056885|0.01158633828163147|0.01098072528839111|XArbitraryZVertical|0.1616811535935345|0.09683309856309406|0.0741878825225747|0.9792746256385126|0.1656628251075745|-0.3310281932353973|-0.9289650917053223|0|0|0|-1|-1|3
2021-04-22 20:45:55.508 +0100|137641.337621375|0.18682861328125|-0.32940673828125|-0.9213104248046875|137641.317661375|0.1205812942526093|0.1770105961524323|0.3365050092951181|-0.02685467153787613|0.00478338822722435|-0.02544699981808662|0.0116443932056427|0.01949158310890198|0.008586883544921875|XArbitraryZVertical|0.1612506104726097|0.09703394288825151|0.07394559819877053|0.9793441291831458|0.1662116944789886|-0.3301901519298553|-0.9291653037071228|0|0|0|-1|-1|3
2021-04-22 20:45:55.528 +0100|137641.357582375|0.1864776611328125|-0.32452392578125|-0.9239654541015625|137641.337621375|0.1197936345383534|0.1772502205266022|0.335168691870072|-0.05144065618515015|-0.003980702720582485|-0.05928219109773636|0.01415172219276428|0.0157884955406189|0.00742417573928833|XArbitraryZVertical|0.1606244036128634|0.09705835357618899|0.07352767511016677|0.979476101644984|0.1665119975805283|-0.3289284706115723|-0.9295589327812195|0|0|0|-1|-1|3
2021-04-22 20:45:55.548 +0100|137641.377543375|0.185333251953125|-0.3246002197265625|-0.9307403564453125|137641.357582375|0.1193295872279576|0.1771170718886229|0.3329556737881358|-0.1330729573965073|-0.01878100633621216|-0.04769140481948853|0.01616179943084717|-0.00664210319519043|0.007733345031738281|XArbitraryZVertical|0.1595659322568893|0.09690730966391513|0.07320431630662004|0.9796882402793842|0.1665160804986954|-0.3268378078937531|-0.9302953481674194|0|0|0|-1|-1|3
2021-04-22 20:45:55.568 +0100|137641.397504375|0.1860504150390625|-0.3056488037109375|-0.9366455078125|137641.377543375|0.1189495494013224|0.1769849933619746|0.3298452163679627|-0.1508229821920395|-0.0189281739294529|-0.03746309503912926|0.01442800462245941|-0.00840836763381958|0.0006796717643737793|XArbitraryZVertical|0.1580626018014969|0.09674410525542021|0.0728874854673334|0.97997160612698|0.1665713787078857|-0.323896586894989|-0.9313135743141174|0|0|0|-1|-1|3
2021-04-22 20:45:55.588 +0100|137641.417465375|0.1916046142578125|-0.30230712890625|-0.9375457763671875|137641.397504375|0.1187590417330905|0.1768698969478385|0.3271783710245976|-0.08720358461141586|-0.0137693639844656|-0.01870396547019482|0.01850368082523346|0.01764711737632751|-0.003642141819000244|XArbitraryZVertical|0.156766843886979|0.0966141196083195|0.07268195799109878|0.980207763054164|0.1666155755519867|-0.3213723599910736|-0.9321797490119934|0|0|0|-1|-1|3
2021-04-22 20:45:55.608 +0100|137641.4374265|0.1969451904296875|-0.3023223876953125|-0.9401702880859375|137641.417465375|0.1186674107446547|0.1768737519531293|0.3258355347178009|-0.02920041605830193|-0.0135427825152874|-0.004038913175463676|0.02510766685009003|0.01387274265289307|-0.00439375638961792|XArbitraryZVertical|0.1561118043387343|0.09657930522926446|0.07258537816366561|0.9803229803803377|0.1666949540376663|-0.3201004564762115|-0.9326030611991882|0|0|0|-1|-1|3
2021-04-22 20:45:55.628 +0100|137641.4573875|0.20172119140625|-0.2946014404296875|-0.9365386962890625|137641.4374265|0.1185707255525865|0.1770889931782731|0.326448306215495|0.03414836525917053|-0.01169124618172646|0.01510184723883867|0.02768810093402863|0.0209839940071106|-0.008864879608154297|XArbitraryZVertical|0.1564095423422663|0.09669071952538966|0.07257854489207656|0.9802649853624635|0.1668611019849777|-0.3206809461116791|-0.9323739409446716|0|0|0|-1|-1|3
2021-04-22 20:45:55.648 +0100|137641.4773485|0.1956634521484375|-0.3117523193359375|-0.9280548095703125|137641.4573875|0.1188843860433668|0.1769787219010173|0.32787101855585|0.07752110064029694|-0.02090711519122124|0.03695192933082581|0.03830842673778534|0.02913665771484375|-0.002826809883117676|XArbitraryZVertical|0.1570968733217325|0.09669251360413743|0.07277871743693493|0.9801400504863529|0.166677787899971|-0.3220281898975372|-0.9319422841072083|0|0|0|-1|-1|3
2021-04-22 20:45:55.668 +0100|137641.4973095|0.1829681396484375|-0.324005126953125|-0.9244232177734375|137641.4773485|0.1193798746663067|0.1767488972891394|0.3292913404097817|0.0705239325761795|-0.02779692783951759|0.04569650813937187|0.02818143367767334|0.0123993456363678|-5.060434341430664e-05|XArbitraryZVertical|0.1577785277876712|0.09665019272087035|0.07305830572371071|0.9800139815748593|0.1663830131292343|-0.3233725130558014|-0.9315293431282043|0|0|0|-1|-1|3
2021-04-22 20:45:55.688 +0100|137641.5172705|0.16339111328125|-0.3168487548828125|-0.9296112060546875|137641.4973095|0.120021650804557|0.1763156562413864|0.3303536252806229|0.06052417680621147|-0.03611930459737778|0.0558401346206665|0.02075660228729248|0.002646893262863159|0.00616765022277832|XArbitraryZVertical|0.1582848271943185|0.0965121732012707|0.07337944655351722|0.9799218864009446|0.1659190803766251|-0.324377566576004|-0.9312626123428345|0|0|0|-1|-1|3
2021-04-22 20:45:55.708 +0100|137641.5372315|0.1524658203125|-0.306854248046875|-0.9296875|137641.5172705|0.1208986099559231|0.1757921317825825|0.330897104636893|0.04312887415289879|-0.0319494865834713|0.0634462982416153|0.0005840808153152466|0.003542453050613403|0.004188597202301025|XArbitraryZVertical|0.1585285538887982|0.09633727572160422|0.07378848258953349|0.9798690092544571|0.1654006540775299|-0.324891597032547|-0.9311756491661072|0|0|0|-1|-1|3
2021-04-22 20:45:55.728 +0100|137641.5571915|0.1561279296875|-0.312591552734375|-0.92376708984375|137641.5372315|0.1218537550809729|0.1756481001413409|0.3312827764061975|0.03717920556664467|-0.01990289054811001|0.06119122356176376|-0.008964464068412781|0.01910486817359924|0.0007930397987365723|XArbitraryZVertical|0.1586771628092297|0.0963511667143877|0.07425974560452342|0.9798079650780005|0.1652446240186691|-0.3252563178539276|-0.9310760498046875|0|0|0|-1|-1|3
2021-04-22 20:45:55.748 +0100|137641.5771525|0.1633148193359375|-0.3722381591796875|-0.9152069091796875|137641.5571915|0.1226958740558819|0.1755466259053396|0.3315700434460956|0.01337647158652544|-0.01943891495466232|0.04276321455836296|-0.01065419614315033|0.01168608665466309|0.003906846046447754|XArbitraryZVertical|0.1587813511870019|0.09637483943369402|0.07467519649693102|0.9797571739592887|0.1651338189840317|-0.3255279660224915|-0.9310007691383362|0|0|0|-1|-1|3
2021-04-22 20:45:55.768 +0100|137641.5971135|0.152984619140625|-0.31427001953125|-0.92645263671875|137641.5771525|0.1228952790739869|0.1755177384652485|0.3312072759643149|-0.0606667622923851|-0.04057732969522476|0.04647344350814819|-0.004590168595314026|-0.02416414022445679|0.0178065299987793|XArbitraryZVertical|0.1585947738280832|0.09636818249770261|0.07475675843660026|0.9797819082240384|0.1651275455951691|-0.3251849114894867|-0.9311217665672302|0|0|0|-1|-1|3
2021-04-22 20:45:55.788 +0100|137641.6170745|0.1591644287109375|-0.3338775634765625|-0.927276611328125|137641.5971135|0.1238669499476216|0.1744743327423327|0.3299990325425488|-0.05523890629410744|-0.03624084964394569|0.02816127985715866|-0.007257193326950073|0.02071356773376465|0.01436680555343628|XArbitraryZVertical|0.1579941614440952|0.09590598914645583|0.07510436013331476|0.9798975937252274|0.1642239987850189|-0.3240421116352081|-0.9316797852516174|0|0|0|-1|-1|3
2021-04-22 20:45:55.808 +0100|137641.6370355|0.147552490234375|-0.3269195556640625|-0.9232940673828125|137641.6170745|0.1247405966923059|0.1731550550891871|0.3281403240645975|-0.1125295460224152|-0.05868533253669739|0.01935163140296936|-0.001843661069869995|-0.01682725548744202|0.006369948387145996|XArbitraryZVertical|0.1570896280136002|0.09528482426884398|0.07535851799849162|0.9800840911619451|0.1630982011556625|-0.322283148765564|-0.9324873089790344|0|0|0|-1|-1|3
2021-04-22 20:45:55.827 +0100|137641.6569965|0.14886474609375|-0.33331298828125|-0.9178466796875|137641.6370355|0.1255558027233454|0.1716890924343488|0.3259353999877405|-0.1039360910654068|-0.04910024628043175|0.01560536213219166|-0.0161614716053009|-0.007272869348526001|0.00668036937713623|XArbitraryZVertical|0.1560236719451814|0.09457781809707322|0.07556099188655786|0.980307305958114|0.1618520468473434|-0.3201950788497925|-0.9334232807159424|0|0|0|-1|-1|3
2021-04-22 20:45:55.848 +0100|137641.6769575|0.13140869140625|-0.32989501953125|-0.912139892578125|137641.6569965|0.1260846040143852|0.1704920815310171|0.3240840264676793|-0.1224386170506477|-0.06169145554304123|-0.001842515077441931|-0.01073455810546875|-0.01612266898155212|0.01641297340393066|XArbitraryZVertical|0.1551348437822905|0.09398772982027398|0.07565858330190008|0.9804975615242002|0.1608349084854126|-0.3184406161308289|-0.9341989755630493|0|0|0|-1|-1|3
2021-04-22 20:45:55.868 +0100|137641.6969185|0.0995941162109375|-0.3465423583984375|-0.899322509765625|137641.6769575|0.1262814640723413|0.169240562451887|0.3218960413525221|-0.1296355575323105|-0.07022635638713837|-0.02103192359209061|-0.02600915729999542|-0.01452010869979858|0.02340161800384521|XArbitraryZVertical|0.1540982867084216|0.09333638736926306|0.07557799485896391|0.9807293648799298|0.1597825884819031|-0.3163657784461975|-0.9350840449333191|0|0|0|-1|-1|3
2021-04-22 20:45:55.902 +0100|137641.7168795|0.069091796875|-0.3625946044921875|-0.88580322265625|137641.6969185|0.1260914167250052|0.1680131936069434|0.3193962475187825|-0.1713068336248398|-0.05990154668688774|-0.0517251193523407|-0.05010905861854553|-0.02568158507347107|0.03200316429138184|XArbitraryZVertical|0.1529253100321028|0.09265909925781739|0.07529940792002471|0.9809986633067903|0.1587665379047394|-0.3139933943748474|-0.9360562562942505|0|0|0|-1|-1|3
2021-04-22 20:45:55.912 +0100|137641.7368405|0.0337982177734375|-0.399627685546875|-0.8639373779296875|137641.7168795|0.1253779739472435|0.166846332159402|0.3149087833788575|-0.3085038959980011|-0.06759877502918243|-0.1098521649837494|-0.07929365336894989|-0.0475386381149292|0.04847568273544312|XArbitraryZVertical|0.1507966782514907|0.09192332034689751|0.07469807984852403|0.9814432051535602|0.1579065918922424|-0.3097297549247742|-0.9376209378242493|0|0|0|-1|-1|3
2021-04-22 20:45:55.928 +0100|137641.7568015|0.0019989013671875|-0.4079132080078125|-0.8343505859375|137641.7368405|0.1236237612552376|0.1658453906056014|0.3065574946897877|-0.5644521713256836|-0.07985033094882965|-0.2129187136888504|-0.1161454021930695|-0.0939725935459137|0.07037776708602905|XArbitraryZVertical|0.1468075486793397|0.09109924556462541|0.07346043333740053|0.9822180277197253|0.1573895514011383|-0.3017784357070923|-0.9402969479560852|0|0|0|-1|-1|3
2021-04-22 20:45:55.948 +0100|137641.7767625|-0.008697509765625|-0.4186859130859375|-0.8155670166015625|137641.7568015|0.1205395790207208|0.1648261957089451|0.292512623661506|-0.8781959414482117|-0.09609747678041458|-0.3282200992107391|-0.1470101624727249|-0.1137701570987701|0.1001232266426086|XArbitraryZVertical|0.1400716327932025|0.09004141487641676|0.07136310974297448|0.983453072983644|0.1571111232042313|-0.2883590161800385|-0.9445449709892273|0|0|0|-1|-1|3
2021-04-22 20:45:55.968 +0100|137641.7967225|-0.0268707275390625|-0.3916778564453125|-0.806396484375|137641.7767625|0.1161761776386017|0.1634006304783248|0.2700174293434841|-1.355193972587585|-0.158946692943573|-0.4604142606258392|-0.1652491837739944|-0.1482440829277039|0.1286017298698425|XArbitraryZVertical|0.1292289506393839|0.08851855827069691|0.06830125952858954|0.98529151261874|0.1567801684141159|-0.2667482197284698|-0.9509286880493164|0|0|0|-1|-1|3
2021-04-22 20:45:55.987 +0100|137641.8166835|-0.0164031982421875|-0.3600616455078125|-0.824249267578125|137641.7967225|0.1104962705103768|0.1608464177460184|0.236632795382047|-1.872838377952576|-0.2385478317737579|-0.6248561143875122|-0.178045243024826|-0.1606337577104568|0.1538745164871216|XArbitraryZVertical|0.1130743110292616|0.08615030025140363|0.06412523823425474|0.9877653565244673|0.1556907296180725|-0.2344305962324142|-0.959584653377533|0|0|0|-1|-1|3
2021-04-22 20:45:56.008 +0100|137641.8366445|0.0018768310546875|-0.2957000732421875|-0.856842041015625|137641.8166835|0.1031108841609134|0.1567283556655892|0.1916682953763032|-2.470070838928223|-0.3361115157604218|-0.7968993782997131|-0.1771401315927505|-0.182579517364502|0.1544391512870789|XArbitraryZVertical|0.09125144608987562|0.08273713714476559|0.05861956703200709|0.9906521044761549|0.1532291918992996|-0.1904969066381454|-0.969655454158783|0|0|0|-1|-1|3
2021-04-22 20:45:56.027 +0100|137641.8566055|-0.0048675537109375|-0.1949615478515625|-0.887115478515625|137641.8366445|0.09420906764194666|0.1504434535019379|0.1342076644602279|-3.084592819213867|-0.4348830878734589|-0.9638575911521912|-0.1471407264471054|-0.1829815953969955|0.1284038424491882|XArbitraryZVertical|0.0632590257437423|0.0780469216725066|0.05188181539492154|0.9935871526483464|0.1485288441181183|-0.1338051408529282|-0.9798139333724976|0|0|0|-1|-1|3
2021-04-22 20:45:56.048 +0100|137641.8765665|-0.0229034423828125|-0.0366058349609375|-0.8856201171875|137641.8566055|0.08315478706649677|0.1423880400537998|0.06405302416957581|-3.702791929244995|-0.480724960565567|-1.144095540046692|-0.147613525390625|-0.156433492898941|0.1057392954826355|XArbitraryZVertical|0.02895712292946406|0.07236356304546933|0.04371466956053308|0.9959990750895801|0.1416163742542267|-0.06400923430919647|-0.98785001039505|0|0|0|-1|-1|3
2021-04-22 20:45:56.067 +0100|137641.8965275|-0.0232391357421875|0.138946533203125|-0.9023895263671875|137641.8765665|0.07022343166629511|0.1329865249213782|-0.01720926414207297|-4.106454372406006|-0.4759434461593628|-1.238697409629822|-0.149818167090416|-0.1086686030030251|0.1078753471374512|XArbitraryZVertical|-0.01091262430651558|0.0660994656011127|0.03445425588590673|0.9971584240916898|0.1325752437114716|0.0172084141522646|-0.9910235404968262|0|0|0|-1|-1|3
2021-04-22 20:45:56.087 +0100|137641.9164885|0.0233001708984375|0.294097900390625|-0.9280853271484375|137641.8965275|0.05593314185930473|0.1231770845615311|-0.1016741325496|-4.05161190032959|-0.4141570031642914|-1.240890502929688|-0.1410153806209564|0.005618639290332794|0.08959305286407471|XArbitraryZVertical|-0.05241787368034559|0.06002780776141676|0.02474741830242548|0.9965122965522981|0.1222313120961189|0.101499043405056|-0.9872980713844299|0|0|0|-1|-1|3
2021-04-22 20:45:56.107 +0100|137641.9364495|0.0838623046875|0.376953125|-0.9669647216796875|137641.9164885|0.04038905556083015|0.1139011413488939|-0.1826245643590654|-3.786352872848511|-0.2933021783828735|-1.24799370765686|-0.112528458237648|0.08053584396839142|0.06061679124832153|XArbitraryZVertical|-0.09216363964880286|0.05483276004945519|0.01488722908002875|0.9941216045869088|0.11176498234272|0.1816111207008362|-0.9769984483718872|0|0|0|-1|-1|3
2021-04-22 20:45:56.127 +0100|137641.9564105|0.0726776123046875|0.4709014892578125|-0.9567108154296875|137641.9364495|0.02300827742094195|0.1049259819801436|-0.2586186068825514|-3.652790069580078|-0.2291097491979599|-1.283149361610413|-0.02884815633296967|0.1055684983730316|-0.003294050693511963|XArbitraryZVertical|-0.1293615092873363|0.05051630442349566|0.004630633699111061|0.990299158460461|0.101250559091568|0.2557453513145447|-0.9614273905754089|0|0|0|-1|-1|3
2021-04-22 20:45:56.147 +0100|137641.9763715|0.0672760009765625|0.6140289306640625|-0.9577789306640625|137641.9564105|0.003757102263954732|0.09523311648626215|-0.3332966969910505|-3.537582159042358|-0.155822217464447|-1.290520906448364|-0.008924335241317749|0.1043899059295654|-0.01838856935501099|XArbitraryZVertical|-0.1657779172737286|0.04662780310197075|-0.006045116202700875|0.9850417389884443|0.08985637128353119|0.3271600902080536|-0.9406870603561401|0|0|0|-1|-1|3
2021-04-22 20:45:56.167 +0100|137641.9963325|0.0964202880859375|0.59423828125|-0.932098388671875|137641.9763715|-0.01688350332306905|0.0861989899294764|-0.4003577385452789|-2.966871976852417|-0.008599956519901752|-1.224514722824097|-0.01301592588424683|0.2123191654682159|-0.041329026222229|XArbitraryZVertical|-0.1982964118443871|0.04390127291100039|-0.0168325371682952|0.9790138741696833|0.07928425073623657|0.389747828245163|-0.9175024032592773|0|0|0|-1|-1|3
2021-04-22 20:45:56.187 +0100|137642.0162935|0.1074066162109375|0.6409149169921875|-0.8878631591796875|137641.9963325|-0.03788445201171513|0.07812994966145256|-0.4571335927797982|-2.597752809524536|0.05806263908743858|-1.140305638313293|0.02208032459020615|0.1542651653289795|-0.04651665687561035|XArbitraryZVertical|-0.2256478164584524|0.04232090587043184|-0.02728197152992878|0.9729069102576144|0.07003636658191681|0.4413778483867645|-0.8945840001106262|0|0|0|-1|-1|3
2021-04-22 20:45:56.207 +0100|137642.0362535|0.1063385009765625|0.5881500244140625|-0.8858489990234375|137642.0162935|-0.05856946084532335|0.0695574894780366|-0.5070652153633126|-2.220911264419556|0.05443131551146507|-1.035485982894897|0.06119131669402122|0.13055220246315|-0.03092461824417114|XArbitraryZVertical|-0.2495804225215609|0.04098558394820275|-0.03704525726449754|0.966776927420926|0.06075629219412804|0.4856138229370117|-0.8720595836639404|0|0|0|-1|-1|3
2021-04-22 20:45:56.227 +0100|137642.0562145|0.1210479736328125|0.661956787109375|-0.8681182861328125|137642.0362535|-0.07840376285842313|0.06073305965570552|-0.5503649552884506|-2.092066764831543|0.05278042331337929|-0.9613702297210693|0.04265719652175903|0.07140862941741943|-0.04465347528457642|XArbitraryZVertical|-0.270243419599293|0.03984145893335222|-0.04594354217271859|0.9608696720908858|0.05173302069306374|0.5229983329772949|-0.8507623076438904|0|0|0|-1|-1|3
2021-04-22 20:45:56.247 +0100|137642.0761755|0.1198577880859375|0.6474609375|-0.87603759765625|137642.0562145|-0.09823081751897948|0.05039735610034013|-0.5934050547508797|-2.028135776519775|0.01907896995544434|-0.9632292985916138|0.08915592730045319|0.05829101800918579|-0.01493668556213379|XArbitraryZVertical|-0.2907401439980549|0.0384154932135207|-0.05429319016343378|0.9544877147531159|0.04176381230354309|0.5591871738433838|-0.827988862991333|0|0|0|-1|-1|3
2021-04-22 20:45:56.267 +0100|137642.0961365|0.1015777587890625|0.6751556396484375|-0.8383636474609375|137642.0761755|-0.1193894786745682|0.03905096687667953|-0.6312972141310249|-1.763116955757141|0.04763907939195633|-0.9258189797401428|0.08846279978752136|0.08742070198059082|-0.08435875177383423|XArbitraryZVertical|-0.3087137749289053|0.03704326865535677|-0.06275119010021427|0.9483597361385263|0.03151637688279152|0.590192437171936|-0.8066471815109253|0|0|0|-1|-1|3
2021-04-22 20:45:56.287 +0100|137642.1160975|0.1085052490234375|0.6680908203125|-0.80731201171875|137642.0961365|-0.1407171127478123|0.02727487587540475|-0.6661808556313867|-1.656347632408142|0.06880897283554077|-0.8971474766731262|0.08500409871339798|0.04047536849975586|-0.05577903985977173|XArbitraryZVertical|-0.3252198235603998|0.03583926196623979|-0.07087815912326891|0.9422972573974873|0.02144051156938076|0.6179879307746887|-0.7858952283859253|0|0|0|-1|-1|3
2021-04-22 20:45:56.307 +0100|137642.1360585|0.08538818359375|0.7215576171875|-0.7737274169921875|137642.1160975|-0.162652200693316|0.01487228768372965|-0.6987157653999283|-1.602551817893982|0.0619410015642643|-0.8717761039733887|0.09554605185985565|0.02465826272964478|-0.05471235513687134|XArbitraryZVertical|-0.3405861445401668|0.03476981246854108|-0.07886399859968971|0.9362546844703309|0.01138682942837477|0.64323490858078|-0.7655842900276184|0|0|0|-1|-1|3
2021-04-22 20:45:56.327 +0100|137642.1560195|0.0725860595703125|0.7345123291015625|-0.7355804443359375|137642.1360585|-0.1849339889820825|0.001245045682699555|-0.7299602396645495|-1.492354512214661|0.04177932813763618|-0.8328376412391663|0.08674846589565277|0.04151946306228638|-0.0363389253616333|XArbitraryZVertical|-0.3553520945888339|0.03353631296154604|-0.08647445698377734|0.9301196577328037|0.0009278090437874198|0.6668400168418884|-0.7452003955841064|0|0|0|-1|-1|3
2021-04-22 20:45:56.347 +0100|137642.1759805|0.0724945068359375|0.76043701171875|-0.748443603515625|137642.1560195|-0.207006481053129|-0.01323278144318434|-0.758766173041613|-1.395153045654297|0.006031079217791557|-0.7609694600105286|0.09158729016780853|0.04210716485977173|-0.01798397302627563|XArbitraryZVertical|-0.36899240812776|0.03214993083423005|-0.09353255540726668|0.9241551497371256|-0.009602557867765427|0.6880266070365906|-0.7256219983100891|0|0|0|-1|-1|3
2021-04-22 20:45:56.367 +0100|137642.1959415|0.041717529296875|0.744049072265625|-0.719970703125|137642.1759805|-0.2290499774564703|-0.02823988567158218|-0.7841271211888537|-1.22551691532135|0.0128059471026063|-0.7399581074714661|0.08667147904634476|0.0672459602355957|-0.04580134153366089|XArbitraryZVertical|-0.3810463429411181|0.030696950682568|-0.1002337254859193|0.9185939206525973|-0.0199913252145052|0.7062074542045593|-0.7077227830886841|0|0|0|-1|-1|3
2021-04-22 20:45:56.404 +0100|137642.2159025|0.0092926025390625|0.7736053466796875|-0.694366455078125|137642.1959415|-0.2506700772347911|-0.04367609378904845|-0.8086692769139869|-1.272597670555115|-0.02375009283423424|-0.6954700350761414|0.07457992434501648|-0.0006052851676940918|-0.03578197956085205|XArbitraryZVertical|-0.3927376433102341|0.02924890822237463|-0.1063765270158492|0.9130092563448381|-0.03014708496630192|0.7233690023422241|-0.6898033022880554|0|0|0|-1|-1|3
2021-04-22 20:45:56.419 +0100|137642.2358635|0.002716064453125|0.7743377685546875|-0.6864471435546875|137642.2358635|-0.2910439223012422|-0.07367600827322782|-0.8495547312579853|-0.8526261448860168|0.04866061732172966|-0.5042406916618347|0.06122381240129471|0.02869248390197754|-0.03339803218841553|XArbitraryZVertical|-0.4123513271321463|0.02651825091760059|-0.1170146399428514|0.903089628476092|-0.04860556870698929|0.7509864568710327|-0.6585263013839722|0|0|0|-1|-1|3
2021-04-22 20:45:56.427 +0100|137642.2558245|0.0110626220703125|0.7508697509765625|-0.643402099609375||||||||||||||||||||||||3
2021-04-22 20:45:56.447 +0100|137642.2757845|-0.0259246826171875|0.8493499755859375|-0.6748504638671875|137642.2558245|-0.3061916997536698|-0.08352478996055755|-0.8656488145374387|-0.9301003813743591|0.09900484979152679|-0.3638669550418854|0.06818695366382599|0.008824586868286133|-0.007600784301757812|XArbitraryZVertical|-0.4199488293666148|0.02645068885463703|-0.1210083356568814|0.8990553015844372|-0.05407335236668587|0.7615159749984741|-0.6458866596221924|0|0|0|-1|-1|3
2021-04-22 20:45:56.467 +0100|137642.2957455|-0.005401611328125|0.8272247314453125|-0.6191558837890625|137642.2757845|-0.3201995282816456|-0.09227147164909415|-0.8830033244933847|-0.7649600505828857|0.1170669496059418|-0.3593510985374451|0.04453136771917343|0.0273241400718689|-0.02780890464782715|XArbitraryZVertical|-0.4280313442554965|0.02688207943672308|-0.1245223389369257|0.8947407042870125|-0.05849394574761391|0.7726489901542664|-0.6321330666542053|0|0|0|-1|-1|3
2021-04-22 20:45:56.487 +0100|137642.3157065|-0.0345458984375|0.8448638916015625|-0.602142333984375|137642.2957455|-0.3333441753357985|-0.09975515499365752|-0.8970795463770102|-0.7610669732093811|0.1263146549463272|-0.3255554139614105|0.04881187155842781|0.04808223247528076|-0.006021618843078613|XArbitraryZVertical|-0.434562057017751|0.02755114166984137|-0.1279839443157136|0.8910763935095767|-0.06213358789682388|0.781508207321167|-0.6207935214042664|0|0|0|-1|-1|3
2021-04-22 20:45:56.507 +0100|137642.3356675|-0.027130126953125|0.8450927734375|-0.60040283203125|137642.3157065|-0.3456256139441168|-0.1068071278345904|-0.9117269796227637|-0.7657297849655151|0.1455288976430893|-0.2820084691047668|0.03264306485652924|0.0500447154045105|0.007436871528625488|XArbitraryZVertical|-0.4413034157365409|0.02837929047210998|-0.1310250190891945|0.8872871432191944|-0.0652824193239212|0.7905625104904175|-0.6088918447494507|0|0|0|-1|-1|3
2021-04-22 20:45:56.527 +0100|137642.3556285|-0.030181884765625|0.8486175537109375|-0.5895843505859375|137642.3356675|-0.3566267606268541|-0.1125366234209994|-0.9259169944807123|-0.7266665697097778|0.1614993959665298|-0.2303922474384308|0.04380561411380768|0.0480114221572876|-0.004338204860687256|XArbitraryZVertical|-0.447745327776123|0.0295666712242233|-0.1337301748896752|0.8836098838283606|-0.06750331819057465|0.7991722822189331|-0.5972998738288879|0|0|0|-1|-1|3
2021-04-22 20:45:56.547 +0100|137642.3755895|-0.0403900146484375|0.8704986572265625|-0.580657958984375|137642.3556285|-0.3642701532035265|-0.1147034067156759|-0.9382618141999803|-0.6898767352104187|0.1647936105728149|-0.1649017482995987|0.03929611295461655|0.03944653272628784|-0.005344569683074951|XArbitraryZVertical|-0.45316262041961|0.0314743605502385|-0.1358086522040788|0.880459577743225|-0.06766300648450851|0.8065317273139954|-0.587306022644043|0|0|0|-1|-1|3
2021-04-22 20:45:56.567 +0100|137642.3955505|-0.035491943359375|0.8604736328125|-0.570068359375|137642.3755895|-0.3699218084929497|-0.1152351791430077|-0.9501446981735897|-0.5773131847381592|0.1933764219284058|-0.1028500869870186|0.03111644089221954|0.05225402116775513|-0.004749298095703125|XArbitraryZVertical|-0.4582725967964468|0.0336452459137201|-0.1373800545047073|0.8774856918584123|-0.06686858832836151|0.8134996891021729|-0.5777084231376648|0|0|0|-1|-1|3
2021-04-22 20:45:56.587 +0100|137642.4155115|-0.0442962646484375|0.886505126953125|-0.546600341796875|137642.3955505|-0.3733214811700149|-0.1133210984008435|-0.9599980702348732|-0.4720082581043243|0.2144838869571686|-0.04109884053468704|0.0264459028840065|0.04580026865005493|-0.004741072654724121|XArbitraryZVertical|-0.4623504668234424|0.03620043725782932|-0.1386468965151131|0.8750421628675663|-0.06485309451818466|0.8191904425621033|-0.5698431730270386|0|0|0|-1|-1|3
2021-04-22 20:45:56.607 +0100|137642.4354734167|-0.0397491455078125|0.877044677734375|-0.5432586669921875|137642.4155115|-0.3736107762853883|-0.1087794557271927|-0.9678154707900938|-0.3148863911628723|0.233794316649437|0.05352424830198288|0.01958953589200974|0.05466294288635254|0.01257115602493286|XArbitraryZVertical|-0.4654087447655283|0.03899328095613119|-0.1393020192382146|0.8731949671448215|-0.0615672841668129|0.8236488103866577|-0.5637484192848206|0|0|0|-1|-1|3
2021-04-22 20:45:56.626 +0100|137642.4554344167|-0.0238800048828125|0.8341064453125|-0.5529632568359375|137642.4354734167|-0.3699089445717415|-0.1002431094859341|-0.9718381780001566|-0.1308947056531906|0.2757943868637085|0.1321319788694382|0.01563313975930214|0.06340503692626953|0.01842659711837769|XArbitraryZVertical|-0.4666266192163044|0.04223252444549878|-0.1394112475404439|0.8723763593263751|-0.05642068758606911|0.8259234428405762|-0.5609520077705383|0|0|0|-1|-1|3
2021-04-22 20:45:56.646 +0100|137642.4753954167|-0.028411865234375|0.799957275390625|-0.54888916015625|137642.4554344167|-0.3645038786906223|-0.08970223455310886|-0.9744874291320269|-0.1114210188388824|0.2898828685283661|0.1433563083410263|0.021499153226614|0.01217067241668701|0.01131576299667358|XArbitraryZVertical|-0.4671555004703767|0.04580977681943817|-0.1393473321624336|0.8719229462772167|-0.05030855536460876|0.8274141550064087|-0.559334397315979|0|0|0|-1|-1|3
2021-04-22 20:45:56.666 +0100|137642.4953554167|-0.0013885498046875|0.8045654296875|-0.5366668701171875|137642.4753954167|-0.3604525227033152|-0.08046004781247268|-0.9773366787730327|-0.1521561443805695|0.3049643039703369|0.09451562166213989|0.01175866276025772|-0.02250707149505615|0.00739055871963501|XArbitraryZVertical|-0.4678386933534691|0.04914520260454282|-0.1395691043045743|0.8713394216486199|-0.04494734853506088|0.8290109038352966|-0.5574234127998352|0|0|0|-1|-1|3
2021-04-22 20:45:56.686 +0100|137642.5153164167|-0.0009918212890625|0.8289947509765625|-0.5199127197265625|137642.4953554167|-0.3577034651399694|-0.07181573503752327|-0.9816536989817012|-0.2170942723751068|0.3161889314651489|0.08986024558544159|0.03248393535614014|-0.03028470277786255|0.01294195652008057|XArbitraryZVertical|-0.4691700896229829|0.05264304223034934|-0.1401445491788296|0.8703262732673805|-0.0398700162768364|0.8314173817634583|-0.5542162656784058|0|0|0|-1|-1|3
2021-04-22 20:45:56.706 +0100|137642.5352774167|0.0246734619140625|0.8488616943359375|-0.5047454833984375|137642.5153164167|-0.3553926360618627|-0.0634179602265865|-0.9871132551803808|-0.2351082414388657|0.330292135477066|0.07901255786418915|0.02548027038574219|-0.0140339732170105|0.03516244888305664|XArbitraryZVertical|-0.4710016894781057|0.05622081698796647|-0.1408049069858868|0.869005625922622|-0.03492628410458565|0.8344385623931885|-0.5499932765960693|0|0|0|-1|-1|3
2021-04-22 20:45:56.726 +0100|137642.5552384167|-0.0089111328125|0.875640869140625|-0.5126495361328125|137642.5352774167|-0.3524228207963498|-0.05404101740492606|-0.9922745527028615|-0.2552244067192078|0.3765314221382141|0.1322779059410095|0.04157289862632751|0.01110208034515381|0.0421748161315918|XArbitraryZVertical|-0.4726546288315234|0.0600265792405597|-0.1414463093468485|0.867748576522169|-0.02953454852104187|0.8372718095779419|-0.5459887981414795|0|0|0|-1|-1|3
2021-04-22 20:45:56.746 +0100|137642.5751994167|-0.0163726806640625|0.883026123046875|-0.49444580078125|137642.5552384167|-0.3472601548356594|-0.04261551729810855|-0.9967971778402064|-0.202473521232605|0.3216380476951599|0.1573474109172821|0.03236373513936996|0.03666812181472778|0.01981264352798462|XArbitraryZVertical|-0.473958231307172|0.06413054297746194|-0.1416766292584319|0.8667056789465581|-0.02313299849629402|0.8397361636161804|-0.5425017476081848|0|0|0|-1|-1|3
2021-04-22 20:45:56.766 +0100|137642.5951604167|-0.0240478515625|0.8719940185546875|-0.513031005859375|137642.5751994167|-0.3408892280565295|-0.03031490135199037|-0.9986335504064954|-0.01549743767827749|0.4203138053417206|0.2252420336008072|-0.0125199556350708|0.04964947700500488|0.03500866889953613|XArbitraryZVertical|-0.4740901232769443|0.06809576958905741|-0.1417420845326032|0.8663203372010666|-0.0164115447551012|0.8407319188117981|-0.5412030220031738|0|0|0|-1|-1|3
2021-04-22 20:45:56.787 +0100|137642.6151214167|-0.0137176513671875|0.829315185546875|-0.5318145751953125|137642.5951604167|-0.3309444557821793|-0.01412955855393964|-0.9974659086685551|0.143461212515831|0.3758072555065155|0.2916507720947266|-0.01142549514770508|0.03279566764831543|0.03041678667068481|XArbitraryZVertical|-0.4727898469171855|0.07266542243214665|-0.1413170675228762|0.8667290399838055|-0.007664085831493139|0.8400990962982178|-0.5423790216445923|0|0|0|-1|-1|3
2021-04-22 20:45:56.806 +0100|137642.6350824167|0.00146484375|0.7821044921875|-0.5313262939453125|137642.6151214167|-0.3209958930392464|0.002098715199428863|-0.9949034730255384|0.1080721691250801|0.3128537535667419|0.2373477816581726|-0.02746517956256866|-0.002371728420257568|0.02235138416290283|XArbitraryZVertical|-0.470907112788679|0.07716952129562145|-0.1409352730205873|0.8674264687808438|0.001142925699241459|0.838706374168396|-0.544582724571228|0|0|0|-1|-1|3
2021-04-22 20:45:56.826 +0100|137642.6550434167|0.0247802734375|0.7707061767578125|-0.51837158203125|137642.6350824167|-0.3132195263913306|0.01563951506410055|-0.9939301532262963|0.03804904222488403|0.3454100489616394|0.1780662536621094|-0.01353515684604645|-0.04078167676925659|0.02310192584991455|XArbitraryZVertical|-0.4698386869488819|0.0811477648049224|-0.1407814601753766|0.8676677470593722|0.008529443293809891|0.8381759524345398|-0.5453333258628845|0|0|0|-1|-1|3
2021-04-22 20:45:56.848 +0100|137642.6750044167|0.0065460205078125|0.8014984130859375|-0.5155792236328125|137642.6550434167|-0.3088209570407581|0.02570841433575253|-0.9955244654466419|-0.1108925491571426|0.2903078198432922|0.1259175837039948|0.01236563920974731|-0.06388217210769653|0.02577179670333862|XArbitraryZVertical|-0.4700037981996263|0.08458588437691308|-0.1411877662923993|0.8671838852406241|0.01398545876145363|0.839044451713562|-0.5438833236694336|0|0|0|-1|-1|3
2021-04-22 20:45:56.866 +0100|137642.6949654167|0.015106201171875|0.827423095703125|-0.512725830078125|137642.6750044167|-0.3060982077734778|0.03323092272909761|-0.9996500400292426|-0.2061181664466858|0.2504355013370514|0.07478132843971252|-0.01268252730369568|-0.04680198431015015|0.03241026401519775|XArbitraryZVertical|-0.4713811675568765|0.08746771287308419|-0.1416536594126543|0.8660736385781808|0.01796122640371323|0.8412818312644958|-0.5402984023094177|0|0|0|-1|-1|3
2021-04-22 20:45:56.885 +0100|137642.7149264167|0.0424346923828125|0.845367431640625|-0.5300445556640625|137642.6949654167|-0.3042899021473212|0.03900642456124635|-1.004314245165581|-0.2076162248849869|0.2389801740646362|0.06809458136558533|-0.0102936178445816|-0.02610564231872559|0.02617359161376953|XArbitraryZVertical|-0.4730760408160497|0.08983081838087732|-0.1421010923388302|0.8648335127319804|0.02092815935611725|0.8437941670417786|-0.5362589955329895|0|0|0|-1|-1|3
2021-04-22 20:45:56.906 +0100|137642.7348864167|0.0188140869140625|0.857666015625|-0.531646728515625|137642.7149264167|-0.3028079709381695|0.04447225614238775|-1.006539606005485|-0.1083786115050316|0.2039821892976761|0.07968057692050934|0.03390197455883026|0.008026242256164551|0.0009348392486572266|XArbitraryZVertical|-0.4737195437540769|0.09197897232536892|-0.1426933681805165|0.8641576673355954|0.02377539314329624|0.8449863195419312|-0.5342593193054199|0|0|0|-1|-1|3
2021-04-22 20:45:56.925 +0100|137642.7548474167|0.0274658203125|0.842193603515625|-0.5263519287109375|137642.7348864167|-0.3007002338448385|0.05019655572937262|-1.008551175114248|-0.1484196782112122|0.1952434480190277|0.03058404661715031|-0.01683053374290466|0.01221650838851929|0.002326071262359619|XArbitraryZVertical|-0.4742809403352903|0.09407293985057381|-0.1430872931146508|0.8635589465529065|0.02674790658056736|0.8460603952407837|-0.5324157476425171|0|0|0|-1|-1|3
2021-04-22 20:45:56.946 +0100|137642.7748084167|0.0193634033203125|0.8681640625|-0.522735595703125|137642.7548474167|-0.2999842208837086|0.05405417343790384|-1.012036753986884|-0.2602372169494629|0.1474779546260834|0.02375019714236259|0.003110647201538086|-0.002865791320800781|-0.002376914024353027|XArbitraryZVertical|-0.4755491508533111|0.09577397248787509|-0.1436074827938406|0.8625876390962051|0.02864205650985241|0.847913384437561|-0.5293607115745544|0|0|0|-1|-1|3
2021-04-22 20:45:56.966 +0100|137642.7947694167|0.01348876953125|0.84588623046875|-0.5077362060546875|137642.7748084167|-0.2990238139366498|0.05732958912355846|-1.017195672924613|-0.240954726934433|0.1237971782684326|0.04376615956425667|-0.009037943556904793|0.02024358510971069|-0.003918111324310303|XArbitraryZVertical|-0.4775938566620044|0.09725845414266381|-0.1438492663288634|0.8612504725005619|0.0301247276365757|0.8506369590759277|-0.5248898267745972|0|0|0|-1|-1|3
2021-04-22 20:45:56.986 +0100|137642.8147304167|0.0146942138671875|0.857818603515625|-0.5126953125|137642.7947694167|-0.2958966840512208|0.06252377359402481|-1.021306094550108|-0.1995063424110413|0.09631431102752686|0.05754713341593742|-0.01972386240959167|0.001091480255126953|0.0105518102645874|XArbitraryZVertical|-0.4791518059851286|0.09898190034991337|-0.1436504612342785|0.8602213941366659|0.03263194113969803|0.8527908325195312|-0.5212322473526001|0|0|0|-1|-1|3
2021-04-22 20:45:57.005 +0100|137642.8346914167|0.0196075439453125|0.8625030517578125|-0.5260009765625|137642.8147304167|-0.2937697274594249|0.06565969619639166|-1.024648583527886|-0.1029567122459412|0.06664159148931503|0.07049834728240967|-0.01595250889658928|-0.00634080171585083|0.01062095165252686|XArbitraryZVertical|-0.4804771646223124|0.100007775443491|-0.1434144732852426|0.8594025405685798|0.03407911211252213|0.8545317053794861|-0.5182802677154541|0|0|0|-1|-1|3
2021-04-22 20:45:57.025 +0100|137642.8546524167|0.0330657958984375|0.8443145751953125|-0.530517578125|137642.8346914167|-0.2910000289362419|0.06966368837042668|-1.024286519271804|0.0649656280875206|0.09608885645866394|0.07776815444231033|-0.0191933698952198|0.01806282997131348|-0.002120077610015869|XArbitraryZVertical|-0.4801731413855366|0.1010432631554437|-0.1431935623167764|0.8594880098095448|0.03617554157972336|0.854343593120575|-0.5184480547904968|0|0|0|-1|-1|3
2021-04-22 20:45:57.046 +0100|137642.8746134167|0.03228759765625|0.8501739501953125|-0.5322418212890625|137642.8546524167|-0.289701439740535|0.07229705722200921|-1.022446328552848|0.08836930245161057|0.07101012766361237|0.0284325648099184|-0.007351085543632507|-0.0001595616340637207|-0.01313161849975586|XArbitraryZVertical|-0.4792546776056437|0.1017635283833189|-0.143303942319794|0.8598972581007988|0.03765418753027916|0.8533858060836792|-0.5199182629585266|0|0|0|-1|-1|3
2021-04-22 20:45:57.066 +0100|137642.8945744167|0.029022216796875|0.836883544921875|-0.520263671875|137642.8746134167|-0.2903955015262669|0.07279664449671351|-1.020826498043364|0.1002798974514008|0.06002970412373543|-0.009930090978741646|-0.007940202951431274|-0.003937482833862305|-0.0111011266708374|XArbitraryZVertical|-0.4784827434790895|0.1020567233366323|-0.1437538617648257|0.8602172249878584|0.03801441937685013|0.8525403141975403|-0.5212773680686951|0|0|0|-1|-1|3
2021-04-22 20:45:57.086 +0100|137642.9145354167|0.0373992919921875|0.8386993408203125|-0.5137481689453125|137642.8945744167|-0.2919098508734848|0.07225033064090956|-1.018586833287052|0.1170058324933052|0.05075087770819664|-0.01144436467438936|-0.00678606703877449|-0.01532280445098877|-0.00124281644821167|XArbitraryZVertical|-0.4774755442765312|0.102061533088956|-0.1443189940086763|0.8606814969846203|0.03786736726760864|0.8513675928115845|-0.5232011079788208|0|0|0|-1|-1|3
2021-04-22 20:45:57.105 +0100|137642.9344964167|0.036468505859375|0.875885009765625|-0.54083251953125|137642.9145354167|-0.2936581585617435|0.07123528538599563|-1.017488451568455|0.03435442224144936|0.01859326288104057|-0.0440121591091156|0.00240650400519371|-0.01146548986434937|0.007616579532623291|XArbitraryZVertical|-0.4769842215524451|0.1019814336096843|-0.1448512447344285|0.8608739708766222|0.03740280866622925|0.8507908582687378|-0.5241716504096985|0|0|0|-1|-1|3
2021-04-22 20:45:57.125 +0100|137642.9544574167|0.0440673828125|0.823699951171875|-0.527099609375|137642.9344964167|-0.2971869721775076|0.06843790739699897|-1.013899284078741|0.2384124845266342|0.01385640352964401|-0.09465900808572769|-0.01203692331910133|0.04367935657501221|-0.02859014272689819|XArbitraryZVertical|-0.4754534739637156|0.1014165445199304|-0.1457789758023415|0.8616305511580952|0.03614494577050209|0.8488993048667908|-0.5273173451423645|0|0|0|-1|-1|3
2021-04-22 20:45:57.145 +0100|137642.9744184167|0.05059814453125|0.8589324951171875|-0.53753662109375|137642.9544574167|-0.3018018896124635|0.06361315412605642|-1.012335279908473|-0.04454005509614944|-0.07038438320159912|-0.12552210688591|0.018911462277174|-0.02992534637451172|0.0002767443656921387|XArbitraryZVertical|-0.4748957920775925|0.1003444981103935|-0.146655441111753|0.8619148226035416|0.03368471562862396|0.8480715751647949|-0.5288099646568298|0|0|0|-1|-1|3
2021-04-22 20:45:57.165 +0100|137642.9943784167|0.04620361328125|0.8562774658203125|-0.5348663330078125|137642.9744184167|-0.3060700414756296|0.05816567010091647|-1.013862443424142|-0.03504811972379684|-0.1006153151392937|-0.09948820620775223|0.02678129076957703|-0.00601428747177124|-0.005739092826843262|XArbitraryZVertical|-0.4757444187555859|0.09910162037110773|-0.1471637422243316|0.8615040364131195|0.03072823397815228|0.8488798141479492|-0.5276922583580017|0|0|0|-1|-1|3
2021-04-22 20:45:57.185 +0100|137643.0143394167|0.034027099609375|0.8479766845703125|-0.5353240966796875|137642.9943784167|-0.3093995654623919|0.05344577551943392|-1.014290512620834|0.006450088694691658|-0.1005250364542007|-0.08514699339866638|0.01586395502090454|0.004776358604431152|-0.003109574317932129|XArbitraryZVertical|-0.4761134075630197|0.09788678098767652|-0.1474639279038857|0.8613876934118395|0.02821782976388931|0.8491060137748718|-0.5274683833122253|0|0|0|-1|-1|3
2021-04-22 20:45:57.205 +0100|137643.0343004167|0.0548553466796875|0.871673583984375|-0.5218658447265625|137643.0143394167|-0.3124089236236583|0.04882784711945753|-1.013834052665614|0.05359919369220734|-0.08462739735841751|-0.0743778795003891|0.01336781680583954|0.007458925247192383|0.002437591552734375|XArbitraryZVertical|-0.4761103426295745|0.09658605101102267|-0.147672913906366|0.8615004094716313|0.02580064162611961|0.8488647937774658|-0.5279801487922668|0|0|0|-1|-1|3
2021-04-22 20:45:57.225 +0100|137643.0542614167|0.0590362548828125|0.8098602294921875|-0.52435302734375|137643.0343004167|-0.3141480112665905|0.04550575976593429|-1.012954581195748|0.05315198004245758|-0.1456900089979172|-0.08518631756305695|0.03414623439311981|0.01581293344497681|0.001740038394927979|XArbitraryZVertical|-0.4758916922138405|0.09551379733517754|-0.1476558170072445|0.8617435959141668|0.02408045344054699|0.8483995795249939|-0.5288084149360657|0|0|0|-1|-1|3
2021-04-22 20:45:57.245 +0100|137643.0742224167|0.0384979248046875|0.84991455078125|-0.55474853515625|137643.0542614167|-0.316852647157622|0.04151437194356974|-1.010709314009966|0.03332875669002533|-0.1385155022144318|-0.0897965207695961|0.02331493608653545|0.003179192543029785|-0.008595168590545654|XArbitraryZVertical|-0.4750868272813192|0.09429393638058635|-0.1479369312981721|0.8622737251292074|0.02204859256744385|0.8472089171409607|-0.530802309513092|0|0|0|-1|-1|3
2021-04-22 20:45:57.265 +0100|137643.0941834167|0.039154052734375|0.834228515625|-0.5522003173828125|137643.0742224167|-0.3201938357613719|0.03652000761726331|-1.010475845454799|0.03206109255552292|-0.1035421788692474|-0.1249282211065292|0.01820752024650574|0.004783332347869873|-0.01854789257049561|XArbitraryZVertical|-0.4751991554739932|0.09291927205613418|-0.1481979386083202|0.8623162874446235|0.01940453238785267|0.8470848202705383|-0.5311035513877869|0|0|0|-1|-1|3
2021-04-22 20:45:57.285 +0100|137643.1141444167|0.03802490234375|0.8514251708984375|-0.5385284423828125|137643.0941834167|-0.3241513664357878|0.03137457156102622|-1.00961724343836|0.04870724678039551|-0.08248738944530487|-0.1282649040222168|0.02784521691501141|-0.008019983768463135|-0.02010881900787354|XArbitraryZVertical|-0.4750272596385389|0.09158398938601724|-0.1487091194091505|0.8624657258688978|0.0166943334043026|0.8466281890869141|-0.5319229364395142|0|0|0|-1|-1|3
2021-04-22 20:45:57.305 +0100|137643.1341054167|0.04144287109375|0.8394317626953125|-0.5357513427734375|137643.1141444167|-0.3275442632799993|0.0269846064790731|-1.008950369865749|0.04821091890335083|-0.08236967772245407|-0.08965146541595459|0.02989061176776886|-0.006138980388641357|-0.00990903377532959|XArbitraryZVertical|-0.474911366281759|0.09045150304808743|-0.1491517259939243|0.8625726648855776|0.01437428779900074|0.8462731242179871|-0.5325554609298706|0|0|0|-1|-1|3
2021-04-22 20:45:57.325 +0100|137643.1540664167|0.032196044921875|0.8468780517578125|-0.54119873046875|137643.1341054167|-0.3296534747008403|0.0239929777941833|-1.007886260722419|0.02929138764739037|-0.09502656012773514|-0.06842171400785446|0.02424487471580505|-0.001177072525024414|-0.002514064311981201|XArbitraryZVertical|-0.4745796498127824|0.08958879902966004|-0.1493875766134862|0.8628044122278571|0.01280261483043432|0.8457057476043701|-0.5334960222244263|0|0|0|-1|-1|3
2021-04-22 20:45:57.345 +0100|137643.1740274167|0.0311431884765625|0.8244171142578125|-0.5471343994140625|137643.1540664167|-0.3317235099831955|0.02022068809154496|-1.007789699527087|-0.03844168409705162|-0.1368049532175064|-0.09450933337211609|0.02016754448413849|0.001422703266143799|-0.001380801200866699|XArbitraryZVertical|-0.474727536720457|0.08844595897729174|-0.1493887227956829|0.8628407706948378|0.01079167798161507|0.8456541895866394|-0.533622145652771|0|0|0|-1|-1|3
2021-04-22 20:45:57.365 +0100|137643.1939884167|0.0352630615234375|0.8445587158203125|-0.5501708984375|137643.1740274167|-0.334165845115563|0.01550928503989975|-1.008327993117233|-0.09068488329648972|-0.1435187309980392|-0.0743735283613205|0.02661034464836121|-0.01105630397796631|-0.01079386472702026|XArbitraryZVertical|-0.4752048234363631|0.08703141230911542|-0.1493039962543737|0.8627365199043252|0.00827039685100317|0.8459413647651672|-0.5332118272781372|0|0|0|-1|-1|3
2021-04-22 20:45:57.386 +0100|137643.2139494167|0.0380706787109375|0.8459625244140625|-0.5394439697265625|137643.1939884167|-0.3357983521953336|0.01100218003817809|-1.011548581519407|-0.2248458415269852|-0.1843200027942657|-0.06752564758062363|0.03388071060180664|-0.01562261581420898|-0.01351946592330933|XArbitraryZVertical|-0.476860585026508|0.08570634709846457|-0.148814476537986|0.8620399693683414|0.005837076809257269|0.8476544618606567|-0.5305168032646179|0|0|0|-1|-1|3
2021-04-22 20:45:57.405 +0100|137643.2339094167|0.019256591796875|0.8679962158203125|-0.52301025390625|137643.2139494167|-0.3369691220843657|0.006584571501350095|-1.016399257197972|-0.2671143114566803|-0.1727984398603439|-0.04592733085155487|0.0378689169883728|-0.002668082714080811|-0.01438182592391968|XArbitraryZVertical|-0.4792299343705363|0.08443314674076821|-0.1480749672909783|0.860978275602712|0.003466296475380659|0.8502179980278015|-0.5264194011688232|0|0|0|-1|-1|3
2021-04-22 20:45:57.425 +0100|137643.2538704167|0.02178955078125|0.8978729248046875|-0.5218353271484375|137643.2339094167|-0.3371135600309686|0.002751839269181502|-1.022070403233378|-0.3039840757846832|-0.1838236451148987|-0.02397063188254833|0.02644160389900208|0.008611857891082764|-0.01271748542785645|XArbitraryZVertical|-0.4819472868525875|0.08323101842227582|-0.1469897839628322|0.8597636890973145|0.00143535970710218|0.8531897664070129|-0.5215988159179688|0|0|0|-1|-1|3
2021-04-22 20:45:57.445 +0100|137643.2738314167|0.0489654541015625|0.8918304443359375|-0.5476226806640625|137643.2538704167|-0.3374364445919811|-0.002516082017863304|-1.027582661743018|-0.2953784763813019|-0.2973868548870087|-0.04526206851005554|0.02374537289142609|0.03892225027084351|-0.007342100143432617|XArbitraryZVertical|-0.4846874866461581|0.08144907809989559|-0.1456288081933161|0.8586247353979577|-0.001300535746850073|0.8560519814491272|-0.5168882012367249|0|0|0|-1|-1|3
2021-04-22 20:45:57.465 +0100|137643.2937924167|0.0344390869140625|0.895111083984375|-0.5508270263671875|137643.2738314167|-0.3368761905301271|-0.007424356433035402|-1.030978478928685|-0.1775106936693192|-0.3032205998897552|0.01032972894608974|0.04852335155010223|0.04036104679107666|-0.03219139575958252|XArbitraryZVertical|-0.4865221092706788|0.07945657941997011|-0.1440527678127416|0.8580395647187825|-0.003815935226157308|0.8578023314476013|-0.5139657855033875|0|0|0|-1|-1|3
2021-04-22 20:45:57.485 +0100|137643.3137534167|0.033599853515625|0.8947906494140625|-0.5486907958984375|137643.2937924167|-0.3352890418577156|-0.01211523547301445|-1.033187178554019|-0.1163326874375343|-0.3349749743938446|-0.0005663284100592136|0.03731569647789001|0.03738158941268921|-0.03839844465255737|XArbitraryZVertical|-0.4878664792304653|0.07722104485772528|-0.1421335020347627|0.8578003329683028|-0.006203866563737392|0.8589354753494263|-0.5120463967323303|0|0|0|-1|-1|3
2021-04-22 20:45:57.505 +0100|137643.3337144167|0.0281982421875|0.8838043212890625|-0.5398101806640625|137643.3137534167|-0.3339936315204051|-0.01774060575706323|-1.034082857841477|-0.01230587251484394|-0.3723112046718597|0.003141857217997313|0.04714038968086243|0.03580933809280396|-0.03963816165924072|XArbitraryZVertical|-0.4886962741863066|0.07455840814033703|-0.1401647726541933|0.8578874954485336|-0.009070551954209805|0.8593937754631042|-0.5112339854240417|0|0|0|-1|-1|3
2021-04-22 20:45:57.525 +0100|137643.3536754167|0.0254669189453125|0.8578948974609375|-0.533843994140625|137643.3337144167|-0.3330523556728273|-0.02462358706270966|-1.033497687191282|0.08802685886621475|-0.4111927151679993|-0.01297763548791409|0.03904415667057037|0.02501553297042847|-0.02912396192550659|XArbitraryZVertical|-0.4889588904210351|0.07133142313473802|-0.1381052726995438|0.8583461124640496|-0.01260150223970413|0.8590944409370422|-0.5116620659828186|0|0|0|-1|-1|3
2021-04-22 20:45:57.545 +0100|137643.3736364167|0.0137786865234375|0.8684539794921875|-0.5268707275390625|137643.3536754167|-0.3317182405386702|-0.03194010065165126|-1.030933987084147|0.1372445672750473|-0.4839302599430084|-0.0167286079376936|0.05045653134584427|0.007790982723236084|-0.02675563097000122|XArbitraryZVertical|-0.4884084911642868|0.06767040525208429|-0.1358648474962123|0.8593128558902076|-0.01641499251127243|0.8577794432640076|-0.513755738735199|0|0|0|-1|-1|3
2021-04-22 20:45:57.565 +0100|137643.3935974167|-0.0064697265625|0.893707275390625|-0.532257080078125|137643.3736364167|-0.3309426831548118|-0.0408560369931331|-1.027906636871486|0.1446109712123871|-0.5352338552474976|-0.0392676517367363|0.03463459759950638|0.006726622581481934|-0.0117720365524292|XArbitraryZVertical|-0.4877372023440678|0.06341730694842887|-0.1335020962384085|0.8603882561238236|-0.02110086567699909|0.8562194108963013|-0.5161813497543335|0|0|0|-1|-1|3
2021-04-22 20:45:57.585 +0100|137643.4135584167|-0.020294189453125|0.9112396240234375|-0.51239013671875|137643.3935974167|-0.3306814708349423|-0.05114069202246698|-1.024425295176917|0.1944161653518677|-0.5767931938171387|-0.06854289025068283|0.02329442650079727|0.03521794080734253|-0.01209437847137451|XArbitraryZVertical|-0.4869331940598114|0.05865722897420203|-0.1310586531213576|0.8615562207423149|-0.02656061574816704|0.8544157147407532|-0.5189107656478882|0|0|0|-1|-1|3
2021-04-22 20:45:57.604 +0100|137643.433520125|-0.0214996337890625|0.89019775390625|-0.5164642333984375|137643.4135584167|-0.3311112099711934|-0.06298932943621781|-1.019637411079162|0.2869258522987366|-0.6268913745880127|-0.07177801430225372|0.01782660558819771|0.05216562747955322|0.004906594753265381|XArbitraryZVertical|-0.4856370183510228|0.05327653818374187|-0.1286145038058552|0.8630045656780678|-0.03296413645148277|0.8519182205200195|-0.5226365923881531|0|0|0|-1|-1|3
2021-04-22 20:45:57.625 +0100|137643.453481125|-0.0212249755859375|0.8489227294921875|-0.5166778564453125|137643.433520125|-0.330502726724768|-0.07457688394093977|-1.012973843688927|0.3658020496368408|-0.66633141040802|-0.0644107311964035|0.01626106351613998|0.05417865514755249|0.01525068283081055|XArbitraryZVertical|-0.4835294985461296|0.04758953984685996|-0.1259095599221938|0.8649170472877412|-0.03943996503949165|0.8484097719192505|-0.527868926525116|0|0|0|-1|-1|3
2021-04-22 20:45:57.644 +0100|137643.473442125|-0.0167999267578125|0.8018035888671875|-0.523406982421875|137643.453481125|-0.3300624165276358|-0.08749325953708353|-1.006300906215689|0.3329541683197021|-0.7302247285842896|-0.06781309843063354|0.02373724803328514|0.01506614685058594|0.01783788204193115|XArbitraryZVertical|-0.4814756122629512|0.04134728975496757|-0.1229845857478159|0.8668024639609896|-0.04674829170107841|0.8448586463928223|-0.5329432487487793|0|0|0|-1|-1|3
2021-04-22 20:45:57.664 +0100|137643.493402125|-0.0097503662109375|0.76605224609375|-0.5171966552734375|137643.473442125|-0.3303952919734282|-0.1026573997002206|-1.000921390872538|0.2715585231781006|-0.8114452362060547|-0.0879393145442009|0.0360013023018837|-0.02493613958358765|0.01401263475418091|XArbitraryZVertical|-0.4800763799689876|0.03440153966156494|-0.1198066413734391|0.8683257770007764|-0.05528919026255608|0.8419684767723083|-0.5366864204406738|0|0|0|-1|-1|3
2021-04-22 20:45:57.684 +0100|137643.513363125|-0.017333984375|0.7620849609375|-0.488922119140625|137643.493402125|-0.332109809629457|-0.1209476446607793|-0.9971490480374609|0.1947984546422958|-0.9128549098968506|-0.1120532676577568|0.05603232234716415|-0.06644344329833984|0.01590830087661743|XArbitraryZVertical|-0.4795081677561364|0.02654470554086375|-0.1164036685370272|0.8693776718771536|-0.06547827273607254|0.8399271965026855|-0.5387346148490906|0|0|0|-1|-1|3
2021-04-22 20:45:57.704 +0100|137643.533324125|-0.0055084228515625|0.7427825927734375|-0.4532623291015625|137643.513363125|-0.3350171948157787|-0.1424270054568345|-0.9952377991307716|0.09997572749853134|-1.030177354812622|-0.1438391506671906|0.06284136325120926|-0.07927495241165161|0.04282122850418091|XArbitraryZVertical|-0.4798848792805946|0.01773369484104775|-0.1126461476813307|0.8698890046321139|-0.07726167142391205|0.83888840675354|-0.5387920141220093|0|0|0|-1|-1|3
2021-04-22 20:45:57.724 +0100|137643.553285125|-0.01812744140625|0.76373291015625|-0.404449462890625|137643.533324125|-0.339435462539931|-0.1674491243475779|-0.9945976532015514|-0.004705909639596939|-1.167593717575073|-0.1889933198690414|0.08125454187393188|-0.09316277503967285|0.07252943515777588|XArbitraryZVertical|-0.4809661863849819|0.007852566195413481|-0.1086042911973643|0.8699511506296785|-0.09080728888511658|0.8385398387908936|-0.5372197031974792|0|0|0|-1|-1|3
2021-04-22 20:45:57.744 +0100|137643.573246125|0.0081787109375|0.7205657958984375|-0.3516845703125|137643.553285125|-0.3457421561728073|-0.1973779870559207|-0.9959679827268882|-0.1552978754043579|-1.358198285102844|-0.2627115845680237|0.09709496051073074|-0.10249924659729|0.1206750869750977|XArbitraryZVertical|-0.4831359946469092|-0.003509727562276232|-0.1040234052642337|0.8693368321308641|-0.1066171750426292|0.839285671710968|-0.5331345796585083|0|0|0|-1|-1|3
2021-04-22 20:45:57.764 +0100|137643.593207125|-0.034515380859375|0.732421875|-0.3043365478515625|137643.573246125|-0.356599867429863|-0.2355664953258681|-0.9986108665430035|-0.3349113762378693|-1.574859142303467|-0.3045001924037933|0.1298847794532776|-0.1046656370162964|0.1453071236610413|XArbitraryZVertical|-0.4862571075752989|-0.017196466552825|-0.09925122403241335|0.8679905637448312|-0.1263759732246399|0.8407196402549744|-0.5265166163444519|0|0|0|-1|-1|3
2021-04-22 20:45:57.784 +0100|137643.613168125|-0.0388031005859375|0.7273406982421875|-0.269744873046875|137643.593207125|-0.3727471314112911|-0.2839808917425288|-1.003305133159085|-0.3403278887271881|-1.879049181938171|-0.4156225621700287|0.1345943212509155|-0.1057791709899902|0.1887502670288086|XArbitraryZVertical|-0.490783225765353|-0.03372132118999346|-0.09395890818848503|0.8655440416404968|-0.1506014913320541|0.8432521820068359|-0.5159894227981567|0|0|0|-1|-1|3
2021-04-22 20:45:57.804 +0100|137643.633129125|-0.073577880859375|0.7473297119140625|-0.297119140625|137643.613168125|-0.3931212350119401|-0.3408997589310658|-1.007159983241705|-0.3710756003856659|-2.088359594345093|-0.4836771786212921|0.1281311810016632|-0.1159015893936157|0.2392072677612305|XArbitraryZVertical|-0.4954285330479223|-0.05282991266618754|-0.08829534701760901|0.862533293985879|-0.1786231845617294|0.8453179597854614|-0.5035191178321838|0|0|0|-1|-1|3
2021-04-22 20:45:57.824 +0100|137643.653090125|-0.0887298583984375|0.7578277587890625|-0.3134613037109375|137643.633129125|-0.41600881515114|-0.4042358757561469|-1.009720553234889|-0.2875213921070099|-2.313137292861938|-0.5709678530693054|0.1473008245229721|-0.101763904094696|0.203644871711731|XArbitraryZVertical|-0.4999087838133393|-0.07406149520099506|-0.08206073026903371|0.8589949740509208|-0.2092826664447784|0.8466832041740417|-0.4892122149467468|0|0|0|-1|-1|3
2021-04-22 20:45:57.844 +0100|137643.673051125|-0.115966796875|0.72369384765625|-0.358856201171875|137643.653090125|-0.4383538443788034|-0.4701915680613404|-1.008539816587015|-0.09183803200721741|-2.408080816268921|-0.5523251295089722|0.1576756834983826|-0.0967557430267334|0.1721006631851196|XArbitraryZVertical|-0.5029786087828931|-0.09689935460029224|-0.07527138508130697|0.8555451565442285|-0.241523340344429|0.8460543155670166|-0.4752460718154907|0|0|0|-1|-1|3
2021-04-22 20:45:57.864 +0100|137643.693012125|-0.139129638671875|0.7392120361328125|-0.401336669921875|137643.673051125|-0.4564863319618891|-0.5339399233349129|-1.004294114984219|0.02351089753210545|-2.457497119903564|-0.5099872946739197|0.1694652736186981|-0.1101555228233337|0.1275260448455811|XArbitraryZVertical|-0.504540218933163|-0.1201996570255711|-0.06762725989972158|0.8523016148314608|-0.2731340825557709|0.8437833189964294|-0.4619824290275574|0|0|0|-1|-1|3
2021-04-22 20:45:57.884 +0100|137643.712973125|-0.1537628173828125|0.81707763671875|-0.4918365478515625|137643.693012125|-0.472374708466298|-0.5957848816623064|-0.999660439607205|-0.09490218758583069|-2.403121709823608|-0.471542090177536|0.1592817008495331|-0.1158384084701538|0.06656050682067871|XArbitraryZVertical|-0.5057254306941709|-0.1432379223807926|-0.05956094086364525|0.848632666847895|-0.3033557236194611|0.8412874937057495|-0.4474493861198425|0|0|0|-1|-1|3
2021-04-22 20:45:57.904 +0100|137643.732933125|-0.1886749267578125|1.021286010742188|-0.6281280517578125|137643.712973125|-0.4876076353324461|-0.6548634767120828|-0.9961413281931173|-0.08738689124584198|-2.228841543197632|-0.4119662344455719|0.1729348599910736|-0.04052078723907471|-0.03883630037307739|XArbitraryZVertical|-0.5071762652689359|-0.1649873241995899|-0.05170020389229592|0.8443214829706911|-0.3310469090938568|0.8393798470497131|-0.431102842092514|0|0|0|-1|-1|3
2021-04-22 20:45:57.924 +0100|137643.752894125|-0.202362060546875|1.21514892578125|-0.7845916748046875|137643.732933125|-0.4960091614736584|-0.7034058624113378|-0.9909707734577526|0.2639687955379486|-1.916916847229004|-0.2604951858520508|0.1740491092205048|0.12241131067276|-0.1640112400054932|XArbitraryZVertical|-0.5070919116565392|-0.1842278177968934|-0.04394790636103527|0.8408249789665632|-0.354377955198288|0.8365582227706909|-0.4178358018398285|0|0|0|-1|-1|3
2021-04-22 20:45:57.944 +0100|137643.772855125|-0.2035675048828125|1.313690185546875|-0.937530517578125|137643.752894125|-0.4854104563186286|-0.7284535289368113|-0.9805803034858915|0.9253042340278625|-1.470355153083801|0.04910677671432495|0.165541797876358|0.3559170365333557|-0.3269541263580322|XArbitraryZVertical|-0.5026225856280744|-0.1993084784003568|-0.03528477491576332|0.8404771358474816|-0.3704982995986938|0.8308205008506775|-0.4152933359146118|0|0|0|-1|-1|3
2021-04-22 20:45:57.964 +0100|137643.792816125|-0.1923980712890625|1.307907104492188|-1.040542602539062|137643.772855125|-0.4503913745755188|-0.7249099068122281|-0.9649724557696867|1.601279973983765|-1.057625532150269|0.3693154156208038|0.1707439422607422|0.4698526263237|-0.4737945795059204|XArbitraryZVertical|-0.4930197610506333|-0.2092889683261177|-0.02459394601025821|0.8441119209397983|-0.3775772154331207|0.8220332264900208|-0.4262592792510986|0|0|0|-1|-1|3
2021-04-22 20:45:57.984 +0100|137643.812777125|-0.1814422607421875|1.18463134765625|-1.041534423828125|137643.792816125|-0.3928200105727219|-0.6948980102883771|-0.9411167615965581|2.420864820480347|-0.6137271523475647|0.5872765779495239|0.1799696981906891|0.4976618885993958|-0.5661429166793823|XArbitraryZVertical|-0.4773222476928328|-0.2144673670033238|-0.01213668595173866|0.852068072880774|-0.3770678043365479|0.8082162737846375|-0.4523344337940216|0|0|0|-1|-1|3
2021-04-22 20:45:58.004 +0100|137643.832738125|-0.1969146728515625|1.039749145507812|-1.009292602539062|137643.812777125|-0.3208149596337638|-0.6454740342063202|-0.9076063612853061|2.793142318725586|-0.2117129117250443|0.6939048171043396|0.1913653314113617|0.4446952342987061|-0.5497711896896362|XArbitraryZVertical|-0.4559462910311811|-0.2149982971924876|0.001112334674327472|0.8636478782080612|-0.3703513145446777|0.7880324125289917|-0.4917774200439453|0|0|0|-1|-1|3
2021-04-22 20:45:58.024 +0100|137643.852699125|-0.2297821044921875|0.9652252197265625|-0.9063873291015625|137643.832738125|-0.2528882535662085|-0.5944940428163731|-0.8705506745431163|2.663245439529419|0.01825040578842163|0.6161724925041199|0.1678856611251831|0.3192400336265564|-0.4890714287757874|XArbitraryZVertical|-0.4334414783916103|-0.2126155075253487|0.01317979504866268|0.875642377228648|-0.3609249591827393|0.7646839022636414|-0.5338462591171265|0|0|0|-1|-1|3
2021-04-22 20:45:58.044 +0100|137643.872660125|-0.268707275390625|0.9589996337890625|-0.7887115478515625|137643.852699125|-0.1962751285968848|-0.5501141291140104|-0.8333920135030507|2.468543291091919|0.1521939337253571|0.5016666054725647|0.1401695013046265|0.2342106103897095|-0.37308669090271|XArbitraryZVertical|-0.4119871607801605|-0.2090002636944484|0.0231714000717924|0.8865939539869995|-0.3515040874481201|0.7402163147926331|-0.5731709599494934|0|0|0|-1|-1|3
2021-04-22 20:45:58.064 +0100|137643.892621125|-0.2508087158203125|0.8744659423828125|-0.6577911376953125|137643.872660125|-0.1505844307855777|-0.513001292433943|-0.7974387959715084|2.245052099227905|0.2233624905347824|0.3730129301548004|0.07726085186004639|0.2394790053367615|-0.2126352787017822|XArbitraryZVertical|-0.3920592372840079|-0.2048862782121114|0.03116319957820441|0.8962925001947248|-0.3428404331207275|0.7155693173408508|-0.6086223125457764|0|0|0|-1|-1|3
2021-04-22 20:45:58.084 +0100|137643.912582125|-0.3237152099609375|0.7675323486328125|-0.486663818359375|137643.892621125|-0.1145362112016893|-0.4831719372824557|-0.7619936041112074|2.055717706680298|0.1994586437940598|0.1754879653453827|0.07465341687202454|0.2112926840782166|-0.05569040775299072|XArbitraryZVertical|-0.3731671466215263|-0.2010584901651711|0.03722599361025967|0.9049509223074215|-0.3361130952835083|0.6903651356697083|-0.6406435370445251|0|0|0|-1|-1|3
2021-04-22 20:45:58.103 +0100|137643.932543125|-0.4689178466796875|0.6913299560546875|-0.3559417724609375|137643.912582125|-0.08924236158618962|-0.4627644818553252|-0.729119792146549|1.709881663322449|0.1622239947319031|0.0004417670425027609|0.04107013344764709|0.1139844059944153|0.1370813250541687|XArbitraryZVertical|-0.35624806211038|-0.1985588813949265|0.04111677684986866|0.9121246331948478|-0.3329253494739532|0.6662134528160095|-0.6673233509063721|0|0|0|-1|-1|3
2021-04-22 20:45:58.124 +0100|137643.952504125|-0.6048736572265625|0.55999755859375|-0.169769287109375|137643.932543125|-0.07385565934544716|-0.4492521930179789|-0.7012980293349053|1.285840630531311|0.1819509267807007|-0.1857299655675888|-0.09890875220298767|0.07056540250778198|0.2904142141342163|XArbitraryZVertical|-0.3423724073741163|-0.1966819025858997|0.04265949033140498|0.9177568327077579|-0.3318014442920685|0.6452099084854126|-0.688194751739502|0|0|0|-1|-1|3
2021-04-22 20:45:58.143 +0100|137643.972465125|-0.7108917236328125|0.49072265625|-0.104644775390625|137643.952504125|-0.06915773465500184|-0.4425224381901127|-0.6810507121432294|0.663579523563385|0.1927247494459152|-0.3372927904129028|-0.2467787861824036|-0.03242570161819458|0.4953499436378479|XArbitraryZVertical|-0.3327970347873972|-0.1954701060158998|0.04145961666110868|0.921584909759075|-0.3326893150806427|0.6296097040176392|-0.7020751237869263|0|0|0|-1|-1|3
2021-04-22 20:45:58.163 +0100|137643.992425125|-0.75408935546875|0.4292144775390625|-0.114837646484375|137643.972465125|-0.07442794783747977|-0.4418495371486907|-0.6724229639890278|-0.06430809944868088|0.1971424520015717|-0.4130044877529144|-0.358832448720932|-0.1182743906974792|0.5999299883842468|XArbitraryZVertical|-0.3293681123105974|-0.1947436401109433|0.03797577004217083|0.9231195004995033|-0.3345272839069366|0.6228833198547363|-0.7071831226348877|0|0|0|-1|-1|3
2021-04-22 20:45:58.183 +0100|137644.012386125|-0.8536834716796875|0.436309814453125|-0.179473876953125|137643.992425125|-0.08733837297299363|-0.4469450585443602|-0.6751423886115308|-0.5277252197265625|0.1189655661582947|-0.3264398574829102|-0.3976232409477234|-0.1923447251319885|0.5925813913345337|XArbitraryZVertical|-0.3317815611711218|-0.1948111612418277|0.03316159282896529|0.9224261517058655|-0.3373930156230927|0.6250084638595581|-0.7039391994476318|0|0|0|-1|-1|3
2021-04-22 20:45:58.203 +0100|137644.032347125|-0.9397430419921875|0.4647216796875|-0.3143157958984375|137644.012386125|-0.099784337771267|-0.4509744042927547|-0.6841003308988743|-0.6339213848114014|0.2718533277511597|-0.1542017757892609|-0.5010946989059448|-0.1960621476173401|0.5514506101608276|XArbitraryZVertical|-0.3370256801366709|-0.1940624655904381|0.02910708412005589|0.9208183326053084|-0.3377728760242462|0.6319760084152222|-0.6975069046020508|0|0|0|-1|-1|3
2021-04-22 20:45:58.223 +0100|137644.052308125|-0.9721832275390625|0.5104522705078125|-0.4208526611328125|137644.032347125|-0.1096062463463075|-0.4505024821994833|-0.6949392829417904|-0.6390423178672791|0.4154525697231293|-0.05383176729083061|-0.586411714553833|-0.1876097917556763|0.414741575717926|XArbitraryZVertical|-0.3429222964720644|-0.1915068970817503|0.02574021582080652|0.9192752310824041|-0.3344413042068481|0.6403387784957886|-0.6914588212966919|0|0|0|-1|-1|3
2021-04-22 20:45:58.243 +0100|137644.072269125|-0.89630126953125|0.5485076904296875|-0.573699951171875|137644.052308125|-0.1162366107051125|-0.4447252943547091|-0.7066352776897832|-0.6403341889381409|0.6032958626747131|0.1113864853978157|-0.6452770233154297|-0.1478890776634216|0.299624502658844|XArbitraryZVertical|-0.3489420351516421|-0.1869594029508743|0.02302302221998235|0.9180173257716959|-0.3271965384483337|0.6492784023284912|-0.6865713000297546|0|0|0|-1|-1|3
2021-04-22 20:45:58.263 +0100|137644.092230125|-0.7387542724609375|0.37066650390625|-0.6461029052734375|137644.072269125|-0.1172803704480867|-0.4323920479404601|-0.7179207806063702|-0.4122041165828705|0.6838854551315308|0.2855392098426819|-0.6068265438079834|-0.09954601526260376|0.136250913143158|XArbitraryZVertical|-0.3543038675814451|-0.1803885711312662|0.02163628131084031|0.9173117519604519|-0.3156134784221649|0.6578201055526733|-0.6838574409484863|0|0|0|-1|-1|3
2021-04-22 20:45:58.283 +0100|137644.112191125|-0.618560791015625|0.1921234130859375|-0.6738433837890625|137644.092230125|-0.1132169219248414|-0.4157964732703783|-0.7274045569646583|-0.4174083471298218|0.6953476071357727|0.3621837496757507|-0.4808136224746704|-0.2365726232528687|0.05257219076156616|XArbitraryZVertical|-0.3584331240132671|-0.1728996246462173|0.02156918843703332|0.9171511784508343|-0.3016879558563232|0.6649333238601685|-0.683262825012207|0|0|0|-1|-1|3
2021-04-22 20:45:58.303 +0100|137644.132152125|-0.5687713623046875|0.176971435546875|-0.664154052734375|137644.112191125|-0.1107437474750184|-0.4014734134339719|-0.7408624210578995|-0.8007753491401672|0.597912609577179|0.3467271029949188|-0.350614458322525|-0.4449433088302612|-0.009779810905456543|XArbitraryZVertical|-0.3644909078367377|-0.1659489450722675|0.02151870307401607|0.9160482540451603|-0.2883477509021759|0.6749245524406433|-0.6792146563529968|0|0|0|-1|-1|3
2021-04-22 20:45:58.323 +0100|137644.152113125|-0.5566558837890625|0.3319091796875|-0.6451873779296875|137644.132152125|-0.113392920738493|-0.3915827644831992|-0.7634466872539903|-1.335177063941956|0.5877359509468079|0.3481883108615875|-0.3002467453479767|-0.5351649522781372|0.008058845996856689|XArbitraryZVertical|-0.3750463275750597|-0.1595443902207375|0.02077195469674815|0.9129372601377058|-0.2757271528244019|0.6914156079292297|-0.6677716970443726|0|0|0|-1|-1|3
2021-04-22 20:45:58.343 +0100|137644.172074125|-0.5325164794921875|0.5099639892578125|-0.6442108154296875|137644.152113125|-0.1208128804100719|-0.3842001373045915|-0.7939744043610995|-1.674419403076172|0.6682996153831482|0.3077389597892761|-0.2932467460632324|-0.4261417388916016|0.0007119178771972656|XArbitraryZVertical|-0.3894667260456062|-0.1528396216885702|0.0190326104093017|0.9080713439294757|-0.262753427028656|0.7131450176239014|-0.6499114632606506|0|0|0|-1|-1|3
2021-04-22 20:45:58.363 +0100|137644.192035125|-0.461181640625|0.636566162109375|-0.6524505615234375|137644.172074125|-0.1324806623062354|-0.3779143537352315|-0.8295415171044727|-1.907045722007751|0.7827186584472656|0.264026552438736|-0.2952000796794891|-0.2726401090621948|-0.008447468280792236|XArbitraryZVertical|-0.4063181742717717|-0.1453317276640174|0.01602651180820638|0.9019576278907896|-0.2491423934698105|0.7376219034194946|-0.6275684833526611|0|0|0|-1|-1|3
2021-04-22 20:45:58.383 +0100|137644.211996125|-0.404388427734375|0.7201995849609375|-0.625762939453125|137644.192035125|-0.1470743686499402|-0.3723416054025187|-0.8675163635168576|-1.981597423553467|0.8313205242156982|0.2430686950683594|-0.251311719417572|-0.1451554298400879|-0.04428881406784058|XArbitraryZVertical|-0.4242450515823284|-0.1371568636861366|0.01206812858259789|0.8950188227374216|-0.2352762669324875|0.7627250552177429|-0.6024082899093628|0|0|0|-1|-1|3
2021-04-22 20:45:58.403 +0100|137644.231957125|-0.3453521728515625|0.7846832275390625|-0.592864990234375|137644.211996125|-0.1615061930949924|-0.3669916121259205|-0.9066762990397532|-1.980868101119995|0.8116728067398071|0.3114804327487946|-0.1895939409732819|-0.09676975011825562|-0.05822062492370605|XArbitraryZVertical|-0.4424449817232682|-0.1287663699665068|0.008354852752961972|0.8874638199237376|-0.2211578637361526|0.7874594926834106|-0.5753233432769775|0|0|0|-1|-1|3
2021-04-22 20:45:58.423 +0100|137644.251917125|-0.2840118408203125|0.8012847900390625|-0.55694580078125|137644.231957125|-0.1730604422495882|-0.359857069966602|-0.9446178661095789|-1.809936046600342|0.8315301537513733|0.3952474892139435|-0.1607998311519623|-0.0390169620513916|-0.05364227294921875|XArbitraryZVertical|-0.4596973825187394|-0.120088034207072|0.005393371297228377|0.8799024254445588|-0.2063728719949722|0.8102730512619019|-0.5485143661499023|0|0|0|-1|-1|3
2021-04-22 20:45:58.443 +0100|137644.271878125|-0.2602386474609375|0.856353759765625|-0.5245361328125|137644.251917125|-0.1787980962033869|-0.3481625388998371|-0.9795414541189551|-1.607885718345642|0.8074383735656738|0.5243878960609436|-0.1040657311677933|-0.02503502368927002|-0.04886931180953979|XArbitraryZVertical|-0.4751091134072684|-0.1108666940081566|0.003559978376977082|0.872907373612788|-0.1901699602603912|0.830241858959198|-0.5239598155021667|0|0|0|-1|-1|3
2021-04-22 20:45:58.463 +0100|137644.291839125|-0.2393951416015625|0.8937225341796875|-0.49969482421875|137644.271878125|-0.1770646980078806|-0.3309800260316484|-1.011479798392408|-1.38299822807312|0.7726404070854187|0.6168293952941895|-0.09377387166023254|6.937980651855469e-05|-0.03421688079833984|XArbitraryZVertical|-0.4887066351616675|-0.1013003191222588|0.003202750375262302|0.8665414213411361|-0.1724314391613007|0.8476179838180542|-0.5018081665039062|0|0|0|-1|-1|3
2021-04-22 20:45:58.483 +0100|137644.311800125|-0.169677734375|0.9281005859375|-0.45416259765625|137644.291839125|-0.1706436342783426|-0.3099592677795897|-1.040111646149474|-1.263322830200195|0.8035876750946045|0.5803549885749817|-0.09315063059329987|0.02418237924575806|-0.02933090925216675|XArbitraryZVertical|-0.500601761280027|-0.09162511049037624|0.003361399980952554|0.860808759359756|-0.1543779522180557|0.862460732460022|-0.4820054173469543|0|0|0|-1|-1|3
2021-04-22 20:45:58.503 +0100|137644.331761125|-0.159271240234375|1.016860961914062|-0.3507080078125|137644.311800125|-0.166189405211779|-0.2889345741560624|-1.067256457965766|-1.291733264923096|0.9121666550636292|0.4237955212593079|-0.05201178789138794|0.04747575521469116|-0.01372885704040527|XArbitraryZVertical|-0.5119124078747304|-0.08174315247809992|0.002261647435672591|0.8551367399195532|-0.1374876201152802|0.8758799433708191|-0.4625274837017059|0|0|0|-1|-1|3
2021-04-22 20:45:58.523 +0100|137644.351722125|-0.132476806640625|1.138656616210938|-0.246795654296875|137644.331761125|-0.1671974364395102|-0.2695138065204675|-1.093635264863004|-1.248566508293152|1.110560059547424|0.2427537441253662|-0.04187086224555969|0.1017799973487854|0.06293582916259766|XArbitraryZVertical|-0.5230404949125341|-0.07133358651720829|-0.001064983252837139|0.8493168845380309|-0.1222836971282959|0.8883023262023926|-0.4426803290843964|0|0|0|-1|-1|3
2021-04-22 20:45:58.543 +0100|137644.371683125|-0.1123504638671875|1.185501098632812|-0.163238525390625|137644.351722125|-0.1752931384342228|-0.2540587890603445|-1.116465166215193|-1.106746554374695|1.139511942863464|-0.001233627554029226|-0.02931736409664154|0.2227073311805725|0.1466686129570007|XArbitraryZVertical|-0.5328091758364631|-0.06105106901448729|-0.006800284184424592|0.8440030004975181|-0.1103010773658752|0.8985547423362732|-0.4247742891311646|0|0|0|-1|-1|3
2021-04-22 20:45:58.563 +0100|137644.391644125|-0.140411376953125|1.306686401367188|-0.173828125|137644.371683125|-0.1958796994765916|-0.2513776246998597|-1.13974252890289|-1.426891803741455|0.9640727043151855|-0.2682968378067017|-0.009428031742572784|0.2627391219139099|0.224765807390213|XArbitraryZVertical|-0.5430233037406386|-0.0527017742353238|-0.01437166900923957|0.8379389670083015|-0.1039300411939621|0.9085259437561035|-0.4046964347362518|0|0|0|-1|-1|3
2021-04-22 20:45:58.582 +0100|137644.411605125|-0.1327056884765625|1.305450439453125|-0.1832275390625|137644.391644125|-0.2322953228757954|-0.2675235242030061|-1.166092916876298|-1.429228186607361|0.8107759356498718|-0.4396693706512451|-0.03123105317354202|0.361558198928833|0.2014881372451782|XArbitraryZVertical|-0.5548767391072057|-0.04734636694833231|-0.0229457868053152|0.8302672946446292|-0.1040844470262527|0.9192191958427429|-0.3797402381896973|0|0|0|-1|-1|3
2021-04-22 20:45:58.603 +0100|137644.4315651667|-0.15948486328125|1.273834228515625|-0.2060546875|137644.4315651667|-0.3026498939973024|-0.3000942065483311|-1.203074642272421|-0.6919767260551453|0.8824077844619751|-0.2629334032535553|-0.05083596706390381|0.3577604293823242|0.1338002681732178|XArbitraryZVertical|-0.5717364517973742|-0.03748536832570748|-0.03926205189472193|0.8186396907301597|-0.1062691137194633|0.9331488013267517|-0.3434245586395264|0|0|0|-1|-1|3
2021-04-22 20:45:58.622 +0100|137644.4515261667|-0.135009765625|1.163253784179688|-0.2207183837890625||||||||||||||||||||||||3
2021-04-22 20:45:58.642 +0100|137644.4714871667|-0.13140869140625|1.042388916015625|-0.2086334228515625|137644.4515261667|-0.3230552913197779|-0.3000950410655618|-1.210937966081379|-0.3462024331092834|1.009143233299255|-0.1788724213838577|-0.04626365751028061|0.2626467943191528|0.1172585487365723|XArbitraryZVertical|-0.5751946006277548|-0.03080663641623282|-0.04677952913377734|0.8160968036103406|-0.1040970608592033|0.9359467029571533|-0.3364042341709137|0|0|0|-1|-1|3
2021-04-22 20:45:58.663 +0100|137644.4914471667|-0.1145477294921875|0.966644287109375|-0.1596527099609375|137644.4714871667|-0.333409189481647|-0.2886297702103131|-1.212808935429374|-0.09338754415512085|1.085903525352478|-0.1182475090026855|-0.02482336014509201|0.1423912644386292|0.1032924652099609|XArbitraryZVertical|-0.5757821536720579|-0.02294931479565056|-0.05410463951599376|0.8154883237644669|-0.09973476827144623|0.9366039037704468|-0.3358964920043945|0|0|0|-1|-1|3
2021-04-22 20:45:58.682 +0100|137644.5114081667|-0.089385986328125|0.9263763427734375|-0.1120758056640625|137644.4914471667|-0.3406468411323058|-0.2733902336835591|-1.212113822983526|0.09109976142644882|1.115517020225525|-0.1187441945075989|-0.03516426682472229|0.03959250450134277|0.1671372354030609|XArbitraryZVertical|-0.5751356594250681|-0.01472723852202099|-0.06151323059320313|0.815609287917088|-0.09478025138378143|0.9363601207733154|-0.3380041718482971|0|0|0|-1|-1|3
2021-04-22 20:45:58.702 +0100|137644.5313691667|-0.07171630859375|0.9307403564453125|-0.10797119140625|137644.5114081667|-0.3452707333632457|-0.2558246545602636|-1.208915031982822|0.1554368287324905|1.079142451286316|-0.1347951591014862|-0.002638712525367737|-0.009023606777191162|0.2239678800106049|XArbitraryZVertical|-0.5733241317601345|-0.006573443093947862|-0.06876808405965447|0.8164112327580876|-0.08958607167005539|0.9352324604988098|-0.342512458562851|0|0|0|-1|-1|3
2021-04-22 20:45:58.722 +0100|137644.5513301667|-0.0572509765625|1.001922607421875|-0.063720703125|137644.5313691667|-0.3528896705486481|-0.2419302180495333|-1.205766466127894|0.06906488537788391|1.024553537368774|-0.1936241984367371|0.01153310388326645|-0.01181036233901978|0.2414036095142365|XArbitraryZVertical|-0.5715840577398302|0.0009486068584141194|-0.07616875294974615|0.8170002127897196|-0.08552366495132446|0.934113085269928|-0.3465815186500549|0|0|0|-1|-1|3
2021-04-22 20:45:58.743 +0100|137644.5712911667|-0.1825103759765625|1.048507690429688|-0.0798187255859375|137644.5513301667|-0.3615394298651023|-0.229098608998976|-1.203705586214961|0.05369504913687706|1.171643495559692|-0.09788720309734344|0.007271848618984222|0.05550128221511841|0.2508772611618042|XArbitraryZVertical|-0.5702337377851536|0.008442767471663275|-0.08356664336005332|0.8171775032623969|-0.08150655776262283|0.9333754181861877|-0.3495244085788727|0|0|0|-1|-1|3
2021-04-22 20:45:58.762 +0100|137644.5912521667|-0.0737762451171875|0.997100830078125|-0.1158294677734375|137644.5712911667|-0.3593736971937839|-0.2045049775088092|-1.197388597703243|0.3589614927768707|1.031970143318176|-0.1627031266689301|-0.0504298210144043|0.1627827882766724|0.190213143825531|XArbitraryZVertical|-0.5666643626150351|0.01723167599677763|-0.09026638628145055|0.8188081218503895|-0.07408261299133301|0.9310896396636963|-0.3571891486644745|0|0|0|-1|-1|3
2021-04-22 20:45:58.782 +0100|137644.6112131667|-0.0611724853515625|0.92529296875|-0.136962890625|137644.5912521667|-0.3612801019266391|-0.1848666397384892|-1.188194209731952|0.6387403011322021|1.209263324737549|-0.009051069617271423|0.005696922540664673|0.04450255632400513|0.2721115350723267|XArbitraryZVertical|-0.5620435398562259|0.02489512896848211|-0.09741363720275914|0.820973820193667|-0.06862491369247437|0.9276962876319885|-0.3669745922088623|0|0|0|-1|-1|3
2021-04-22 20:45:58.802 +0100|137644.6311741667|-0.050872802734375|0.8989715576171875|-0.1291046142578125|137644.6112131667|-0.3564276548544975|-0.1562284206667246|-1.173944047150633|0.7291430234909058|1.190792798995972|-0.05177660658955574|0.003071047365665436|0.04321807622909546|0.2396296262741089|XArbitraryZVertical|-0.5549263228532882|0.0339369014893579|-0.1046158974055579|0.8245973316859788|-0.06013967469334602|0.9222822189331055|-0.3818101286888123|0|0|0|-1|-1|3
2021-04-22 20:45:58.822 +0100|137644.6511351667|-0.031768798828125|0.892974853515625|-0.1568145751953125|137644.6311741667|-0.3527792482766199|-0.1284496064022164|-1.159775312595485|0.7224159836769104|1.241875767707825|-0.01504140812903643|-0.006971552968025208|-0.03217625617980957|0.27278071641922|XArbitraryZVertical|-0.5477369863557582|0.04309488401168714|-0.1118667393558867|0.82801747312006|-0.05118046700954437|0.9167133569717407|-0.3962540626525879|0|0|0|-1|-1|3
2021-04-22 20:45:58.842 +0100|137644.6710961667|-0.0179595947265625|0.9451141357421875|-0.196136474609375|137644.6511351667|-0.3494654175885058|-0.1005133684221339|-1.14435012048997|0.7541600465774536|1.265587210655212|-0.04191998019814491|0.01204068213701248|-0.0001474618911743164|0.2623202800750732|XArbitraryZVertical|-0.5398859819419991|0.0524203235785387|-0.1191848194256388|0.8316071318368731|-0.04150619730353355|0.9104414582252502|-0.4115504622459412|0|0|0|-1|-1|3
2021-04-22 20:45:58.862 +0100|137644.6910571667|-0.0277862548828125|0.921844482421875|-0.2281341552734375|137644.6710961667|-0.3505997375727074|-0.07658468214960155|-1.130145793981467|0.6672347784042358|1.231289267539978|-0.1456284523010254|0.01569554582238197|0.01679080724716187|0.2373821139335632|XArbitraryZVertical|-0.53252289570085|0.06148417121782115|-0.1269988296871289|0.8345721430915964|-0.03263361752033234|0.9044743776321411|-0.4252781271934509|0|0|0|-1|-1|3
2021-04-22 20:45:58.882 +0100|137644.7110181667|-0.0434417724609375|0.968597412109375|-0.2792205810546875|137644.6910571667|-0.3587399242765478|-0.05966630556787412|-1.118796799414188|0.4191772043704987|1.190444588661194|-0.2782478332519531|-0.001864444464445114|0.01221388578414917|0.2230677604675293|XArbitraryZVertical|-0.5264404589878389|0.0697591563714523|-0.1355727460655455|0.8364295349779416|-0.02604472078382969|0.8995755910873413|-0.4359882175922394|0|0|0|-1|-1|3
2021-04-22 20:45:58.902 +0100|137644.7309791667|-0.0244140625|0.97540283203125|-0.352508544921875|137644.7110181667|-0.3737817708634441|-0.05015790674767494|-1.112585345602292|0.2013018280267715|1.127893209457397|-0.4316874444484711|-0.01619891822338104|0.05019187927246094|0.1749280691146851|XArbitraryZVertical|-0.5226400279954808|0.07715727977495879|-0.1447284956253909|0.8366289738320131|-0.02217777818441391|0.896845281124115|-0.4417883157730103|0|0|0|-1|-1|3
2021-04-22 20:45:58.922 +0100|137644.7509391667|0.0109100341796875|1.010589599609375|-0.4600830078125|137644.7309791667|-0.3971187333631826|-0.04915597752777041|-1.109260414688242|0.05107364803552628|1.051606416702271|-0.6027073860168457|-0.01040693931281567|0.08921939134597778|0.1124655306339264|XArbitraryZVertical|-0.5202467198281419|0.08336893785278603|-0.154948880439551|0.8356936193041572|-0.02188151516020298|0.8953695893287659|-0.4447859525680542|0|0|0|-1|-1|3
2021-04-22 20:45:58.942 +0100|137644.7709001667|0.0393218994140625|0.978424072265625|-0.5608367919921875|137644.7509391667|-0.4254736989134082|-0.05495543956671713|-1.10939162830368|-0.09169002622365952|0.8993649482727051|-0.6596588492393494|0.02686423063278198|0.1015359163284302|0.01507663726806641|XArbitraryZVertical|-0.5195481259912582|0.08833167474504708|-0.1652664273924284|0.8336393074127048|-0.02445421367883682|0.8954280018806458|-0.4445345103740692|0|0|0|-1|-1|3
2021-04-22 20:45:58.962 +0100|137644.7908611667|0.062835693359375|0.9485321044921875|-0.6466217041015625|137644.7709001667|-0.4551350109400781|-0.06512345569148908|-1.110319560033423|-0.07727467268705368|0.7333073616027832|-0.6407265067100525|0.06134285032749176|0.0960724949836731|-0.09280538558959961|XArbitraryZVertical|-0.5194594992492211|0.09189708102608035|-0.1749068697794623|0.8313389933893286|-0.02891881577670574|0.8958407640457153|-0.4434335231781006|0|0|0|-1|-1|3
2021-04-22 20:45:58.982 +0100|137644.8108221667|0.0978546142578125|0.8890380859375|-0.7314910888671875|137644.7908611667|-0.4826605210040026|-0.0772738122982822|-1.110048728817121|0.03845156356692314|0.5235694050788879|-0.5823095440864563|0.08986425399780273|0.06054842472076416|-0.184576690196991|XArbitraryZVertical|-0.5191569828361271|0.09396993938042157|-0.1832015634785503|0.8295077416778807|-0.03432315587997437|0.895720362663269|-0.4432913661003113|0|0|0|-1|-1|3
2021-04-22 20:45:59.002 +0100|137644.8307831667|0.115509033203125|0.85894775390625|-0.7766876220703125|137644.8108221667|-0.5064428138889741|-0.09000488022638545|-1.107117653556014|0.1600557267665863|0.3408608138561249|-0.4960525035858154|0.1306222677230835|0.01079946756362915|-0.2654444873332977|XArbitraryZVertical|-0.5180248604748201|0.09452308190469141|-0.189998253914882|0.8286232212859223|-0.04019959643483162|0.8944132924079895|-0.445431262254715|0|0|0|-1|-1|3
2021-04-22 20:45:59.022 +0100|137644.8507441667|0.149139404296875|0.8205108642578125|-0.7796783447265625|137644.8307831667|-0.5250330775690641|-0.101352580782265|-1.102200281333944|0.2876543998718262|0.1955815106630325|-0.3795828819274902|0.1580607891082764|-0.03284311294555664|-0.3220295906066895|XArbitraryZVertical|-0.5162353392206744|0.09403556281999072|-0.1951915622162806|0.8285885130730586|-0.04569599032402039|0.8922032117843628|-0.4493167698383331|0|0|0|-1|-1|3
2021-04-22 20:45:59.042 +0100|137644.8707051667|0.16546630859375|0.73895263671875|-0.728485107421875|137644.8507441667|-0.5373870980204043|-0.1084372127187363|-1.093496699392974|0.52444988489151|0.1952883005142212|-0.2705320119857788|0.1865870207548141|-0.05831277370452881|-0.3253889679908752|XArbitraryZVertical|-0.5128096643400284|0.09318842846789643|-0.1992740528616782|0.8298386815340045|-0.04971659556031227|0.8882386684417725|-0.4566843211650848|0|0|0|-1|-1|3
2021-04-22 20:45:59.062 +0100|137644.8906661667|0.1696014404296875|0.74847412109375|-0.724456787109375|137644.8707051667|-0.5452781115203356|-0.1119861292893144|-1.082978106813621|0.5075387358665466|0.1851935833692551|-0.213422492146492|0.2100616693496704|-0.13862144947052|-0.2673131823539734|XArbitraryZVertical|-0.5085108422963314|0.09238321319529248|-0.2026114870517795|0.8317637394933507|-0.05237826332449913|0.8833575844764709|-0.4657641351222992|0|0|0|-1|-1|3
2021-04-22 20:45:59.082 +0100|137644.9106271667|0.181549072265625|0.718353271484375|-0.708770751953125|137644.8906661667|-0.5507315199215094|-0.1146199555838043|-1.073058540686304|0.4628312885761261|0.0430917851626873|-0.1594273597002029|0.2319257706403732|-0.1297784447669983|-0.2552156746387482|XArbitraryZVertical|-0.5044766612938858|0.0913789956300755|-0.2051349001129522|0.8337103584502388|-0.05460430681705475|0.8786648511886597|-0.4743063449859619|0|0|0|-1|-1|3
2021-04-22 20:45:59.102 +0100|137644.9305881667|0.182342529296875|0.69012451171875|-0.717620849609375|137644.9106271667|-0.5536189957835211|-0.1178181208591862|-1.0642050103764|0.3659091293811798|-0.1260932981967926|-0.08555498719215393|0.2385812997817993|-0.1402875185012817|-0.2361961603164673|XArbitraryZVertical|-0.5010513869481844|0.08960736453198598|-0.2063623587776458|0.8356630911796729|-0.05703315883874893|0.8744034767150879|-0.4818360507488251|0|0|0|-1|-1|3
2021-04-22 20:45:59.121 +0100|137644.9505491667|0.1719207763671875|0.636871337890625|-0.73553466796875|137644.9305881667|-0.5532941647996156|-0.1216304003212964|-1.056377070753383|0.3804417848587036|-0.2877887785434723|0.007183559238910675|0.2399189323186874|-0.1592592597007751|-0.2364125847816467|XArbitraryZVertical|-0.4982486655330766|0.08689657640433382|-0.2060081463829833|0.8377100277866407|-0.05969830229878426|0.8705785870552063|-0.4883944988250732|0|0|0|-1|-1|3
2021-04-22 20:45:59.141 +0100|137644.9705101667|0.145660400390625|0.6482086181640625|-0.755859375|137644.9505491667|-0.5499884494021151|-0.1260225948041383|-1.049892932355153|0.2878116965293884|-0.4397244155406952|0.07262230664491653|0.2379956841468811|-0.2215566039085388|-0.236506462097168|XArbitraryZVertical|-0.4961754003766157|0.08337392980914315|-0.2041396628601375|0.8397535371406736|-0.06255105137825012|0.8673699498176575|-0.4937175214290619|0|0|0|-1|-1|3
2021-04-22 20:45:59.161 +0100|137644.9904701667|0.1052703857421875|0.6970367431640625|-0.756011962890625|137644.9705101667|-0.5451757612906556|-0.1320280021285791|-1.045037112661019|0.2412217855453491|-0.5766827464103699|0.1000716909766197|0.220395028591156|-0.2213575839996338|-0.2551979124546051|XArbitraryZVertical|-0.4949804236273861|0.07901443996898419|-0.2010867340147117|0.8416147519742559|-0.06606855988502502|0.8649431467056274|-0.4975022077560425|0|0|0|-1|-1|3
2021-04-22 20:45:59.181 +0100|137645.0104311667|0.0853729248046875|0.7256011962890625|-0.7330474853515625|137644.9904701667|-0.5324710072588069|-0.1312960805942557|-1.034328292213993|0.3376284539699554|-0.6463649272918701|0.1281741708517075|0.178255707025528|-0.1736973524093628|-0.2515804171562195|XArbitraryZVertical|-0.4909729754931741|0.07478871253121895|-0.1969101763904075|0.8453275053345026|-0.06691323965787888|0.8595192432403564|-0.5067043900489807|0|0|0|-1|-1|3
2021-04-22 20:45:59.201 +0100|137645.0303921667|0.0452423095703125|0.7678375244140625|-0.7339630126953125|137645.0104311667|-0.5183360022099626|-0.1306835047093868|-1.020558172019817|0.4608324766159058|-0.6877391338348389|0.1944325417280197|0.157188206911087|-0.1312234997749329|-0.2214815020561218|XArbitraryZVertical|-0.4857036236768438|0.06982922402428773|-0.1923251766883178|0.8498394303487113|-0.06813881546258926|0.852400004863739|-0.5184317231178284|0|0|0|-1|-1|3
2021-04-22 20:45:59.221 +0100|137645.0503531667|0.056365966796875|0.731414794921875|-0.68048095703125|137645.0303921667|-0.5018818355618468|-0.1296447644631521|-1.006198450039125|0.5650385022163391|-0.7659980654716492|0.2718546390533447|0.1593542248010635|-0.1322637796401978|-0.2003858089447021|XArbitraryZVertical|-0.4801530801607641|0.06449896312758448|-0.1868368778838598|0.8546256385634388|-0.06917566806077957|0.8448038101196289|-0.5305858254432678|0|0|0|-1|-1|3
2021-04-22 20:45:59.241 +0100|137645.0703141667|-0.0015716552734375|0.7621307373046875|-0.657073974609375|137645.0503531667|-0.4851843603363857|-0.1295698343354811|-0.9867139061924033|0.7067016363143921|-0.7873874306678772|0.2906481027603149|0.1223502978682518|-0.09515857696533203|-0.1342482566833496|XArbitraryZVertical|-0.4724506411863094|0.05817614347422088|-0.1813672275870225|0.8605300311063041|-0.07124949246644974|0.834218442440033|-0.5468118786811829|0|0|0|-1|-1|3
2021-04-22 20:45:59.261 +0100|137645.0902751667|-0.0080108642578125|0.7616424560546875|-0.6002655029296875|137645.0703141667|-0.4690729947307123|-0.1309234613035323|-0.9687557789427307|0.6734718084335327|-0.7748474478721619|0.2878634929656982|0.09880463033914566|-0.1073691248893738|-0.09547233581542969|XArbitraryZVertical|-0.4653921971314287|0.05167835712802437|-0.1755913525227171|0.8659719449126211|-0.0739336758852005|0.8241817355155945|-0.5614789128303528|0|0|0|-1|-1|3
2021-04-22 20:45:59.281 +0100|137645.1102361667|-0.0776824951171875|0.80999755859375|-0.5391082763671875|137645.0902751667|-0.4537435464931691|-0.1326245699184753|-0.9510137061908798|0.704921543598175|-0.7887250185012817|0.2517358660697937|0.07949512451887131|-0.05681741237640381|-0.03364747762680054|XArbitraryZVertical|-0.4583290174643436|0.04534163379251559|-0.1699799607323643|0.8711977354819104|-0.07681044191122055|0.8140047192573547|-0.5757573246955872|0|0|0|-1|-1|3
2021-04-22 20:45:59.301 +0100|137645.1301971667|-0.0899505615234375|0.7982940673828125|-0.4878082275390625|137645.1102361667|-0.4382818133496229|-0.1340005238437198|-0.9349609558114075|0.6710554361343384|-0.7948389053344727|0.1948689520359039|0.01529628038406372|-0.01578760147094727|0.03074193000793457|XArbitraryZVertical|-0.4518671072912999|0.03940750612950655|-0.1641822838964619|0.8759609306013436|-0.07933827489614487|0.8045759201049805|-0.5885263085365295|0|0|0|-1|-1|3
2021-04-22 20:45:59.321 +0100|137645.1501581667|-0.1585540771484375|0.9248199462890625|-0.4912109375|137645.1301971667|-0.4265670090662022|-0.1390547153627434|-0.9227311027298221|0.4527364075183868|-0.7991074919700623|0.16886006295681|-0.001353368163108826|0.00616830587387085|0.1002604961395264|XArbitraryZVertical|-0.4472005428701749|0.03320353603193574|-0.158855222963964|0.8795875924159665|-0.08366944640874863|0.7972531914710999|-0.5978183746337891|0|0|0|-1|-1|3
2021-04-22 20:45:59.341 +0100|137645.1701191667|-0.1585540771484375|0.9238739013671875|-0.4988555908203125|137645.1501581667|-0.4158716316682314|-0.144788964937019|-0.9124278298676629|0.575715184211731|-0.766678512096405|0.1038226634263992|-0.06986628472805023|0.1337373852729797|0.09266966581344604|XArbitraryZVertical|-0.4433383760684854|0.02717469504205353|-0.1536625664863522|0.8826666685764629|-0.08827663213014603|0.790991485118866|-0.605425238609314|0|0|0|-1|-1|3
2021-04-22 20:45:59.361 +0100|137645.1900801667|-0.1539764404296875|0.904388427734375|-0.4821319580078125|137645.1701191667|-0.4082268019677422|-0.1539750674524946|-0.9020862751407899|0.6020366549491882|-0.8372926712036133|0.08492069691419601|-0.04606076329946518|0.13725346326828|0.099151611328125|XArbitraryZVertical|-0.4396220454888777|0.02031282390349446|-0.1490572139899791|0.8854952970278764|-0.09508385509252548|0.7846220731735229|-0.6126396656036377|0|0|0|-1|-1|3
2021-04-22 20:45:59.381 +0100|137645.2100411667|-0.1791229248046875|0.8656158447265625|-0.468231201171875|137645.1900801667|-0.4012249833992209|-0.1651591808262074|-0.8917457266268858|0.6084976196289062|-0.8890641331672668|0.1100011989474297|-0.04331869632005692|0.1350544095039368|0.1342182755470276|XArbitraryZVertical|-0.4359866437596712|0.01271230999884343|-0.1443170077367747|0.88821544217093|-0.1032580360770226|0.7781693339347839|-0.6195080876350403|0|0|0|-1|-1|3
2021-04-22 20:45:59.401 +0100|137645.2300021667|-0.2039794921875|0.8658294677734375|-0.505401611328125|137645.2100411667|-0.3926836889882286|-0.1756848362163415|-0.8823626221983168|0.5699262022972107|-0.8961127996444702|0.1472094506025314|-0.06531758606433868|0.1006222367286682|0.1590121984481812|XArbitraryZVertical|-0.4326646743931939|0.005175642792929024|-0.1389815780033248|0.8907630798452756|-0.1110442951321602|0.7722420692443848|-0.6255489587783813|0|0|0|-1|-1|3
2021-04-22 20:45:59.421 +0100|137645.2499621667|-0.2171478271484375|0.8861541748046875|-0.5036163330078125|137645.2300021667|-0.3835521436907087|-0.1858917573411965|-0.8758571328330347|0.5112649202346802|-0.8988305330276489|0.1619155257940292|-0.07299665361642838|0.08650690317153931|0.1393632292747498|XArbitraryZVertical|-0.430514091524896|-0.002033763332381644|-0.1332340690120709|0.892693860588214|-0.1183493435382843|0.7680926322937012|-0.629306972026825|0|0|0|-1|-1|3
2021-04-22 20:45:59.441 +0100|137645.2699231667|-0.209503173828125|0.8359527587890625|-0.4712371826171875|137645.2499621667|-0.3736125186968235|-0.194625025511815|-0.8682482318147043|0.7101200222969055|-0.8189718127250671|0.174671083688736|-0.09212020039558411|0.1234142780303955|0.1227659583091736|XArbitraryZVertical|-0.4277134975337492|-0.008864985526871873|-0.12754109436317|0.8948273582117929|-0.1249673590064049|0.76319819688797|-0.6339651346206665|0|0|0|-1|-1|3
2021-04-22 20:45:59.461 +0100|137645.2898841667|-0.199310302734375|0.841796875|-0.483978271484375|137645.2699231667|-0.3617870114571344|-0.200131011351581|-0.8598646822833418|0.6620672941207886|-0.7386865615844727|0.2357208579778671|-0.08190140128135681|0.07812279462814331|0.1725518703460693|XArbitraryZVertical|-0.4242942561825011|-0.01471312631774289|-0.1217584703803191|0.8971806170187197|-0.1297235041856766|0.7577542662620544|-0.6395158171653748|0|0|0|-1|-1|3
2021-04-22 20:45:59.481 +0100|137645.3098451667|-0.18896484375|0.7952423095703125|-0.4771575927734375|137645.2898841667|-0.3494649645208131|-0.2038768795201392|-0.8518159223941431|0.6851517558097839|-0.6510617136955261|0.2264128476381302|-0.07609421014785767|0.1037241220474243|0.1713452339172363|XArbitraryZVertical|-0.420855031907696|-0.01980919857600097|-0.1160897006816365|0.8994509681754426|-0.133348673582077|0.7524776458740234|-0.6449772715568542|0|0|0|-1|-1|3
2021-04-22 20:45:59.501 +0100|137645.3298061667|-0.177215576171875|0.76385498046875|-0.45989990234375|137645.3098451667|-0.338778501216966|-0.2081953478794492|-0.8440115366161426|0.5878716111183167|-0.6275789737701416|0.1737722754478455|-0.05424767732620239|0.05722081661224365|0.1668916344642639|XArbitraryZVertical|-0.4175237839623024|-0.02476176842957477|-0.1110067890599579|0.9015200457223883|-0.1373424082994461|0.7473146915435791|-0.6501215100288391|0|0|0|-1|-1|3
2021-04-22 20:45:59.521 +0100|137645.3497671667|-0.161041259765625|0.7545623779296875|-0.466033935546875|137645.3298061667|-0.3310089003722495|-0.2146176627558429|-0.8396870046701362|0.3696093857288361|-0.6233699321746826|0.1444104760885239|-0.03531967103481293|0.01766663789749146|0.1997112035751343|XArbitraryZVertical|-0.4158476972652849|-0.02969632679799633|-0.1065159706479493|0.9026867791217302|-0.1422018110752106|0.7444341778755188|-0.6523776650428772|0|0|0|-1|-1|3
2021-04-22 20:45:59.541 +0100|137645.3697281667|-0.1522979736328125|0.7367095947265625|-0.46826171875|137645.3497671667|-0.3252044364915603|-0.222978192266705|-0.8393947238102708|0.1770100295543671|-0.6661314368247986|0.125428169965744|-0.01975156366825104|0.01438277959823608|0.192516565322876|XArbitraryZVertical|-0.4160606885770048|-0.0347055464389019|-0.1021810668720075|0.9029109266832548|-0.1476990878582001|0.7442389726638794|-0.6513780355453491|0|0|0|-1|-1|3
2021-04-22 20:45:59.561 +0100|137645.3896891667|-0.1353759765625|0.7401275634765625|-0.4631805419921875|137645.3697281667|-0.3217455848640762|-0.2347193236392516|-0.8423535659664063|0.01532206032425165|-0.7607628703117371|0.07468270510435104|-0.001396343111991882|-0.007655441761016846|0.1797887086868286|XArbitraryZVertical|-0.4178961635995484|-0.04044139834114335|-0.09792336740434784|0.9022962585275742|-0.1548238396644592|0.7462119460105896|-0.647454559803009|0|0|0|-1|-1|3
2021-04-22 20:45:59.581 +0100|137645.4096501667|-0.11767578125|0.780181884765625|-0.4227294921875|137645.3896891667|-0.3207740924275883|-0.2502326147224398|-0.8464592835906595|-0.02437197230756283|-0.8489363789558411|0.0357937216758728|0.02497383952140808|-0.01853060722351074|0.1732367277145386|XArbitraryZVertical|-0.4204373964507033|-0.04724190716803841|-0.09387687825414631|0.9012147105940537|-0.1640889048576355|0.7489388585090637|-0.642001211643219|0|0|0|-1|-1|3
2021-04-22 20:45:59.601 +0100|137645.429612125|-0.0923309326171875|0.7429046630859375|-0.3795928955078125|137645.4096501667|-0.3186533449520529|-0.2664947320500563|-0.847785126286285|0.1106187328696251|-0.9310221076011658|0.09657016396522522|0.04950410127639771|0.0202338695526123|0.2051695585250854|XArbitraryZVertical|-0.4217143690314169|-0.05488390486880536|-0.08937786002975112|0.9006422972127837|-0.1742453873157501|0.7498167753219604|-0.6382895112037659|0|0|0|-1|-1|3
2021-04-22 20:45:59.621 +0100|137645.449573125|-0.0859832763671875|0.7149200439453125|-0.3414154052734375|137645.429612125|-0.3142159862128846|-0.2832797530435135|-0.8457759827227641|0.1334661245346069|-1.096255302429199|0.1263449192047119|0.0907953679561615|0.004871606826782227|0.245714545249939|XArbitraryZVertical|-0.4214236004056928|-0.063577070869175|-0.08402978986782481|0.9007215851417155|-0.1853547543287277|0.7484859228134155|-0.6367201805114746|0|0|0|-1|-1|3
2021-04-22 20:45:59.641 +0100|137645.469534125|-0.0700225830078125|0.6646728515625|-0.306793212890625|137645.449573125|-0.3097951954716268|-0.303910562651817|-0.8444066152621349|0.07034053653478622|-1.307235360145569|0.1184253916144371|0.1114607751369476|-0.01761132478713989|0.2830158472061157|XArbitraryZVertical|-0.421502586976303|-0.07393524721066322|-0.07782486422150324|0.9004513342359104|-0.1987569481134415|0.7475771307945251|-0.6337382793426514|0|0|0|-1|-1|3
2021-04-22 20:45:59.660 +0100|137645.489495125|-0.049041748046875|0.6035003662109375|-0.2679443359375|137645.469534125|-0.3063337008797163|-0.3295234826541751|-0.8449704690091225|-0.0539754219353199|-1.519662261009216|0.1138884350657463|0.1339284926652908|-0.07499253749847412|0.3150691986083984|XArbitraryZVertical|-0.4225639119402477|-0.08613407817193224|-0.07080480637183319|0.89944846587829|-0.2147854417562485|0.7479515075683594|-0.6280413269996643|0|0|0|-1|-1|3
2021-04-22 20:45:59.680 +0100|137645.509455125|-0.051300048828125|0.6333770751953125|-0.2501068115234375|137645.489495125|-0.3054680250549709|-0.3616436350017946|-0.8487965650534757|-0.325773686170578|-1.773784995079041|0.06682052463293076|0.1804996728897095|-0.1304593682289124|0.3391019105911255|XArbitraryZVertical|-0.4252770808313655|-0.1003501777728886|-0.06319324689536922|0.8972603463079082|-0.2338297516107559|0.7504855990409851|-0.6181384921073914|0|0|0|-1|-1|3
2021-04-22 20:45:59.700 +0100|137645.529416125|-0.090850830078125|0.73175048828125|-0.2803802490234375|137645.509455125|-0.3100279867324816|-0.4029559446262841|-0.8577314107088145|-0.6290363073348999|-2.023162126541138|-0.0218136478215456|0.2049446403980255|-0.1329926252365112|0.353745698928833|XArbitraryZVertical|-0.4306413589047939|-0.1169079635749273|-0.05535245748578727|0.893205879619187|-0.2565198838710785|0.7563605308532715|-0.6017611026763916|0|0|0|-1|-1|3
2021-04-22 20:45:59.720 +0100|137645.549377125|-0.1131591796875|0.88543701171875|-0.3128204345703125|137645.529416125|-0.3208734366230218|-0.4540916652291118|-0.8713612607911672|-0.8533610105514526|-2.24361515045166|-0.04071782901883125|0.2100669145584106|-0.08417516946792603|0.3068166971206665|XArbitraryZVertical|-0.4385160203652568|-0.1357628485707118|-0.04733072425365387|0.8871483337586021|-0.282394140958786|0.765205979347229|-0.5785443186759949|0|0|0|-1|-1|3
2021-04-22 20:45:59.740 +0100|137645.569338125|-0.1322479248046875|0.985595703125|-0.3012847900390625|137645.549377125|-0.3331806276984338|-0.5094201052276337|-0.88595119345875|-0.7915480732917786|-2.349491596221924|0.0467221811413765|0.1967830657958984|0.08748304843902588|0.2439029216766357|XArbitraryZVertical|-0.4468063135290415|-0.155711113699101|-0.0384778184933991|0.8801351300208936|-0.308477908372879|0.7745169997215271|-0.5522363185882568|0|0|0|-1|-1|3
2021-04-22 20:45:59.760 +0100|137645.589299125|-0.1397857666015625|1.04486083984375|-0.2762451171875|137645.569338125|-0.3428982074372798|-0.5644747883913297|-0.9000026414143092|-0.7494401931762695|-2.414052486419678|0.1386741101741791|0.2007370889186859|0.1918154358863831|0.2162646055221558|XArbitraryZVertical|-0.4544176769282176|-0.1758285676495727|-0.02818291254611404|0.8728085571040332|-0.3325429856777191|0.7833285331726074|-0.5251777768135071|0|0|0|-1|-1|3
2021-04-22 20:45:59.780 +0100|137645.609260125|-0.1940460205078125|1.114013671875|-0.268402099609375|137645.589299125|-0.3510492571739597|-0.619984816182315|-0.9146304776086652|-0.7361279726028442|-2.486183643341064|0.2723648846149445|0.2192638516426086|0.2332065105438232|0.2160531282424927|XArbitraryZVertical|-0.4618298690631424|-0.1960703671626014|-0.01658936716027427|0.8648667200089599|-0.3544723987579346|0.79233717918396|-0.4965391755104065|0|0|0|-1|-1|3
2021-04-22 20:45:59.800 +0100|137645.629221125|-0.250579833984375|1.310379028320312|-0.2801513671875|137645.609260125|-0.357074091150136|-0.6757506084115048|-0.9303776879874444|-0.743092954158783|-2.601239442825317|0.3775911033153534|0.1965450644493103|0.2980083227157593|0.1952671706676483|XArbitraryZVertical|-0.4691138800317194|-0.2163884422919919|-0.003408084277468816|0.856210669420892|-0.3737457394599915|0.8018456697463989|-0.4662164151668549|0|0|0|-1|-1|3
2021-04-22 20:45:59.820 +0100|137645.649182125|-0.304290771484375|1.401962280273438|-0.318878173828125|137645.629221125|-0.356214157526457|-0.72739323579319|-0.94586708033467|-0.3613302409648895|-2.636420965194702|0.664961576461792|0.1742704212665558|0.4331060647964478|0.1543806493282318|XArbitraryZVertical|-0.4750764950953354|-0.236254434270715|0.01206874366572034|0.8475497473335111|-0.3890076279640198|0.8110045194625854|-0.4369723200798035|0|0|0|-1|-1|3
2021-04-22 20:45:59.840 +0100|137645.669143125|-0.34228515625|1.444320678710938|-0.3773651123046875|137645.649182125|-0.3388330781514196|-0.7654327927788691|-0.9575959260987783|0.1797749698162079|-2.615490198135376|0.8735839128494263|0.086241215467453|0.5631561875343323|0.1120883226394653|XArbitraryZVertical|-0.477147612430008|-0.2546430488801569|0.03076531208916488|0.8405596625397248|-0.3987261652946472|0.8178104162216187|-0.4149741530418396|0|0|0|-1|-1|3
2021-04-22 20:45:59.860 +0100|137645.689104125|-0.4391632080078125|1.4964599609375|-0.4667510986328125|137645.669143125|-0.30160988711897|-0.7868906128096425|-0.9649724296191197|0.7704101204872131|-2.665357828140259|1.146708726882935|0.08956477046012878|0.6203196048736572|0.03527885675430298|XArbitraryZVertical|-0.4746888401639467|-0.2713740442222999|0.05294411311688314|0.835597799807779|-0.4032551348209381|0.8220332264900208|-0.4020532667636871|0|0|0|-1|-1|3
2021-04-22 20:45:59.880 +0100|137645.709065125|-0.611083984375|1.518386840820312|-0.5706634521484375|137645.689104125|-0.2421804137028154|-0.7902524237322327|-0.9678056974794482|1.409716963768005|-2.606159925460815|1.461515069007874|-0.02409982681274414|0.6630058288574219|-0.02234601974487305|XArbitraryZVertical|-0.4674040342682932|-0.2863669629708941|0.07908325179605279|0.8326304138478|-0.4029480218887329|0.8236432671546936|-0.3990548551082611|0|0|0|-1|-1|3
2021-04-22 20:45:59.900 +0100|137645.729026125|-0.8269500732421875|1.539047241210938|-0.7329254150390625|137645.709065125|-0.1595391633554877|-0.7726690162748978|-0.9654465748122611|2.04118824005127|-2.406848192214966|1.705851078033447|-0.1817701756954193|0.690514862537384|-0.1324476599693298|XArbitraryZVertical|-0.4552070892771838|-0.2984164485854041|0.108971884095663|0.8317808907295463|-0.3972246646881104|0.8223031163215637|-0.4074682593345642|0|0|0|-1|-1|3
2021-04-22 20:45:59.920 +0100|137645.748986125|-0.9405670166015625|1.46075439453125|-0.949615478515625|137645.729026125|-0.05916668762756756|-0.7378291152958386|-0.9553713792908013|2.664781808853149|-2.254625558853149|1.769786715507507|-0.3725356757640839|0.7071998119354248|-0.2806727588176727|XArbitraryZVertical|-0.4380792015237512|-0.3074142890806815|0.1412051395091236|0.8328530986930764|-0.3883438110351562|0.8165282011032104|-0.4271661341190338|0|0|0|-1|-1|3
2021-04-22 20:45:59.940 +0100|137645.768947125|-1.078582763671875|1.410446166992188|-1.20758056640625|137645.748986125|0.05207995745009224|-0.6895138583587115|-0.9340463707181802|3.182485580444336|-1.929424643516541|1.786005735397339|-0.5239535570144653|0.6817622780799866|-0.4655139148235321|XArbitraryZVertical|-0.4157366055244708|-0.3127063188949475|0.1739925367550531|0.8361247110521213|-0.3782528340816498|0.8040324449539185|-0.4587556719779968|0|0|0|-1|-1|3
2021-04-22 20:45:59.960 +0100|137645.788908125|-1.214523315429688|1.358062744140625|-1.496414184570312|137645.768947125|0.166666158181526|-0.6340085003062127|-0.902145740858128|3.592788219451904|-1.641333699226379|1.72437572479248|-0.6725778579711914|0.6474553942680359|-0.6127766966819763|XArbitraryZVertical|-0.3894215557486089|-0.314047020787078|0.2065963493096486|0.8408586704216946|-0.3672321736812592|0.7846589088439941|-0.4994506537914276|0|0|0|-1|-1|3
2021-04-22 20:45:59.980 +0100|137645.808869125|-1.239654541015625|0.9065399169921875|-2.165390014648438|137645.788908125|0.2785159043988125|-0.5760791994391564|-0.8559699461613703|4.210971832275391|-1.131298184394836|1.507452487945557|-0.844819188117981|0.6532867550849915|-0.8823575377464294|XArbitraryZVertical|-0.3582123902255778|-0.3111861871523899|0.2378454292807799|0.8475120483541798|-0.357069730758667|0.7552070617675781|-0.5496940612792969|0|0|0|-1|-1|3
2021-04-22 20:46:00.000 +0100|137645.828830125|-1.244903564453125|-0.12579345703125|-2.838790893554688|137645.808869125|0.3793091421776943|-0.5166859869636001|-0.7952551733192782|4.749829769134521|-0.272723913192749|1.107779383659363|-0.8750190734863281|0.2486813068389893|-1.34334397315979|XArbitraryZVertical|-0.3232635444673644|-0.3019018101506965|0.2651995423304823|0.8567527044094829|-0.3458516895771027|0.7140422463417053|-0.6087119579315186|0|0|0|-1|-1|3
2021-04-22 20:46:00.020 +0100|137645.848791125|-1.27978515625|-1.704925537109375|-3.474899291992188|137645.828830125|0.4591532693750718|-0.4547388943784643|-0.7101242400245463|5.181455135345459|1.022591829299927|-0.09129925072193146|-0.9212905168533325|-0.3795729875564575|-1.980414390563965|XArbitraryZVertical|-0.2817174270246224|-0.2828863756955051|0.2841885629367586|0.871692328212183|-0.3330580294132233|0.6519280076026917|-0.6812211871147156|0|0|0|-1|-1|3
2021-04-22 20:46:00.040 +0100|137645.868752125|-2.319366455078125|-1.805038452148438|-3.470550537109375|137645.848791125|0.4851578327254107|-0.4020366413830015|-0.6130809063971032|4.396431922912598|2.747517585754395|-2.219033241271973|-0.8955605030059814|-1.945231556892395|-2.596835613250732|XArbitraryZVertical|-0.2413030116651617|-0.2558117403927959|0.2828857043610193|0.8923614844325094|-0.3200307488441467|0.5753899812698364|-0.7526664137840271|0|0|0|-1|-1|3
2021-04-22 20:46:00.060 +0100|137645.888713125|-3.379623413085938|-0.77813720703125|-2.112518310546875|137645.868752125|0.442866796154962|-0.3425927066292698|-0.5104999953170003|3.690331220626831|5.569137573242188|-5.014376163482666|-1.80734920501709|-2.372142314910889|-2.729472398757935|XArbitraryZVertical|-0.2064926365616766|-0.2155515936555393|0.2513902212108625|0.9207069915882031|-0.2930992543697357|0.4886135458946228|-0.8217965960502625|0|0|0|-1|-1|3
2021-04-22 20:46:00.080 +0100|137645.908674125|-3.577560424804688|-0.120147705078125|0.68267822265625|137645.888713125|0.3310895336190626|-0.2484075858870765|-0.4161005023741886|2.234111309051514|9.015557289123535|-7.336571216583252|-2.873934030532837|-1.483388900756836|-1.748809576034546|XArbitraryZVertical|-0.1821846589821948|-0.1533315562958239|0.1852328574671082|0.9534081821944441|-0.2248819470405579|0.4041967689990997|-0.8865963816642761|0|0|0|-1|-1|3
2021-04-22 20:46:00.100 +0100|137645.928635125|-3.765350341796875|0.4095001220703125|3.774734497070312|137645.908674125|0.1560235647120263|-0.1058084684838217|-0.3929299637802295|-2.309082984924316|11.5038537979126|-8.447049140930176|-3.425554752349854|-0.6527626514434814|0.9380344748497009|XArbitraryZVertical|-0.1902957900932262|-0.06689600991438953|0.08661740236276169|0.9756075318235281|-0.09756264835596085|0.3828967213630676|-0.9186248779296875|0|0|0|-1|-1|3
2021-04-22 20:46:00.120 +0100|137645.948596125|-2.734176635742188|-0.1189422607421875|3.415328979492188|137645.928635125|-0.0003599370961050987|0.05865013090518217|-0.4621008198423098|-5.285961151123047|11.32929992675781|-5.987791061401367|-3.793771743774414|-0.1369907557964325|4.060204982757568|XArbitraryZVertical|-0.2288965321193579|0.02858289403395877|-0.006889591137056041|0.9730067068875717|0.0524686872959137|0.4458295702934265|-0.8935787677764893|0|0|0|-1|-1|3
2021-04-22 20:46:00.140 +0100|137645.968557125|-3.385238647460938|0.491058349609375|0.534149169921875|137645.948596125|-0.1207725883293388|0.2181068285894733|-0.6719522637124251|-15.99652099609375|11.42117404937744|-6.620571613311768|-3.27827525138855|-0.1200576424598694|4.288069725036621|XArbitraryZVertical|-0.3209339413225696|0.1223433922429888|-0.09245420996813297|0.9346046470597354|0.1693420112133026|0.6225150227546692|-0.7640669941902161|0|0|0|-1|-1|3
2021-04-22 20:46:00.159 +0100|137645.988517125|-3.079559326171875|3.460189819335938|-1.300689697265625|137645.968557125|0.08535954354026706|0.590162952089237|-1.096348629220612|-21.44291496276855|8.859452247619629|2.666741609573364|-3.355339527130127|-2.185549736022949|1.72374951839447|XArbitraryZVertical|-0.5087419176620294|0.2267064344592004|-0.1165745314218994|0.8223116214015901|0.2542339563369751|0.889545202255249|-0.3795717060565948|0|0|0|-1|-1|3
2021-04-22 20:46:00.180 +0100|137646.008478125|-1.879837036132812|1.099807739257812|1.223983764648438|137645.988517125|0.6469876437405407|1.269385554822206|-1.170438943096015|-2.20156192779541|7.139174461364746|4.949320793151855|-3.554826021194458|3.101783752441406|-1.32881498336792|XArbitraryZVertical|-0.5788523013681277|0.3272281163769447|-0.09715710846489992|0.7405487429179648|0.3721775114536285|0.9209217429161072|-0.1157035455107689|0|0|0|-1|-1|3
2021-04-22 20:46:00.199 +0100|137646.028439125|-0.1106109619140625|0.23248291015625|2.117111206054688|137646.008478125|0.5859616479821519|1.333401302191005|-1.087995198394645|4.861804485321045|4.662210464477539|2.190489053726196|-2.752801895141602|0.8334951996803284|0.8016254901885986|XArbitraryZVertical|-0.5422176105537619|0.3891136419649924|-0.112218144151671|0.7362050815174743|0.4512415826320648|0.8856979608535767|-0.1091812700033188|0|0|0|-1|-1|3
2021-04-22 20:46:00.219 +0100|137646.048400125|0.515380859375|0.422882080078125|1.698135375976562|137646.028439125|0.4249761420386697|1.260583070778353|-1.052125083161086|3.316160440444946|2.270102739334106|-0.5662778615951538|-0.9608201384544373|-0.6177456378936768|2.228047847747803|XArbitraryZVertical|-0.5040169647706013|0.4126787024447083|-0.1419555477406655|0.7453266814848103|0.472064882516861|0.8684786558151245|-0.1513263732194901|0|0|0|-1|-1|3
2021-04-22 20:46:00.239 +0100|137646.068361125|0.950408935546875|0.4295501708984375|1.09356689453125|137646.048400125|0.295618735611226|1.177296853832263|-1.053765651855133|2.999390840530396|0.8908202052116394|-1.692325592041016|-0.01159322261810303|-0.4781920909881592|2.053082466125488|XArbitraryZVertical|-0.4843298509185615|0.4131118560919043|-0.1702787646686959|0.7521758115790792|0.4565232992172241|0.8692907691001892|-0.189526379108429|0|0|0|-1|-1|3
2021-04-22 20:46:00.259 +0100|137646.088322125|1.029083251953125|0.658416748046875|0.818328857421875|137646.068361125|0.1436773620237504|1.058041432515936|-1.059988638146533|3.354147672653198|0.4741640985012054|-1.963231205940247|0.4369193315505981|-0.4789015650749207|1.455304861068726|XArbitraryZVertical|-0.4665531610985781|0.4030016835528756|-0.2010120331106652|0.7612568207738131|0.4260099530220032|0.8723499178886414|-0.2398355752229691|0|0|0|-1|-1|3
2021-04-22 20:46:00.280 +0100|137646.108283125|0.9575347900390625|0.84619140625|0.6346588134765625|137646.088322125|-0.009072306666182368|0.9311477164624598|-1.056110465308464|3.03321361541748|0.1358039379119873|-1.804822325706482|0.6437511444091797|-0.24906325340271|1.145629048347473|XArbitraryZVertical|-0.4484625348218618|0.3898237858402894|-0.2296970962073656|0.7708164746847775|0.3949441015720367|0.8704473972320557|-0.2938375473022461|0|0|0|-1|-1|3
2021-04-22 20:46:00.299 +0100|137646.128244125|0.9520721435546875|0.938140869140625|0.340484619140625|137646.108283125|-0.136723241917369|0.8195776831733972|-1.04923203355725|2.284502506256104|-0.195361465215683|-1.715232849121094|0.6038457155227661|-0.07037907838821411|1.03825831413269|XArbitraryZVertical|-0.4347820629730455|0.3754113937587547|-0.2533196181756999|0.7783700936199529|0.3641403615474701|0.8670408725738525|-0.3400616943836212|0|0|0|-1|-1|3
2021-04-22 20:46:00.319 +0100|137646.148205125|0.8955230712890625|1.040679931640625|0.02166748046875|137646.128244125|-0.2367876584889274|0.7259210506809134|-1.044468842736638|1.545223236083984|-0.5020239353179932|-1.51097047328949|0.6152953505516052|0.05906403064727783|0.7946099042892456|XArbitraryZVertical|-0.4267085046373651|0.3606448451136901|-0.2715657119523997|0.783650046323609|0.3334799110889435|0.8646578192710876|-0.3757103085517883|0|0|0|-1|-1|3
2021-04-22 20:46:00.339 +0100|137646.168166125|0.830413818359375|1.066070556640625|-0.288299560546875|137646.148205125|-0.3086360629459733|0.6516398753141518|-1.043324597289302|0.8786095380783081|-0.7050287127494812|-1.201725959777832|0.6135752201080322|0.1477741003036499|0.5052354335784912|XArbitraryZVertical|-0.4238390761842142|0.3467793621294895|-0.2838612425746997|0.7871006153188782|0.3052775263786316|0.8640824556350708|-0.4002090096473694|0|0|0|-1|-1|3
2021-04-22 20:46:00.359 +0100|137646.188127125|0.762969970703125|0.9329986572265625|-0.5067138671875|137646.168166125|-0.3585823992954904|0.5930361947952518|-1.044326566928734|0.5738309025764465|-0.830611526966095|-0.9025657773017883|0.5638964176177979|0.214836061000824|0.2072419226169586|XArbitraryZVertical|-0.4241808750803852|0.3342583218870145|-0.2912192027719101|0.789641282541635|0.2808291018009186|0.864586353302002|-0.4166839122772217|0|0|0|-1|-1|3
2021-04-22 20:46:00.379 +0100|137646.208088125|0.6111297607421875|0.864410400390625|-0.615753173828125|137646.188127125|-0.3940945118038328|0.5449848389976242|-1.044301693177984|0.368708461523056|-0.9114809632301331|-0.6002833843231201|0.5265761613845825|0.1006975173950195|-0.03369885683059692|XArbitraryZVertical|-0.4253797804977041|0.3227953386803251|-0.2950576254289896|0.7923359597743347|0.2605016231536865|0.8645738363265991|-0.4297104179859161|0|0|0|-1|-1|3
2021-04-22 20:46:00.399 +0100|137646.228049125|0.486328125|0.8261871337890625|-0.6437835693359375|137646.208088125|-0.4150246491582638|0.5080080316920804|-1.045233691271351|0.09174158424139023|-0.9805203676223755|-0.3767873644828796|0.4056113958358765|0.01220160722732544|-0.1556054055690765|XArbitraryZVertical|-0.4279087294989684|0.312606351040512|-0.2955330086955539|0.7948784011831702|0.24404576420784|0.8650417923927307|-0.4383427798748016|0|0|0|-1|-1|3
2021-04-22 20:46:00.419 +0100|137646.248009125|0.411285400390625|0.8081207275390625|-0.616973876953125|137646.228049125|-0.4259348169137936|0.4783022717990845|-1.048983944309412|-0.1774087697267532|-1.058405756950378|-0.2924463152885437|0.2828125953674316|-0.02803438901901245|-0.2013907730579376|XArbitraryZVertical|-0.4321927833732349|0.3032359708621888|-0.2936851036035026|0.7968729112293874|0.2294238954782486|0.8669171929359436|-0.4425146877765656|0|0|0|-1|-1|3
2021-04-22 20:46:00.439 +0100|137646.267970125|0.35430908203125|0.9095306396484375|-0.6533660888671875|137646.248009125|-0.4301985018771042|0.4522517317087647|-1.0566690067117|-0.3915918171405792|-1.185742974281311|-0.2257502675056458|0.212099015712738|-0.06904029846191406|-0.1826953887939453|XArbitraryZVertical|-0.438611551232351|0.2940279732254822|-0.2900634086259594|0.7981421167119036|0.2149018943309784|0.870722234249115|-0.442334920167923|0|0|0|-1|-1|3
2021-04-22 20:46:00.459 +0100|137646.287931125|0.2994232177734375|0.8416748046875|-0.624542236328125|137646.287931125|-0.4313846769752567|0.4006343056371078|-1.063007135913324|0.2406733781099319|-1.32751989364624|0.05565841868519783|0.1180702149868011|-0.0156058669090271|-0.1801255941390991|XArbitraryZVertical|-0.4484744557416689|0.2738598979153983|-0.2793211966433271|0.8036487726384145|0.1896374970674515|0.8738216161727905|-0.4477428495883942|0|0|0|-1|-1|3
2021-04-22 20:46:00.479 +0100|137646.307892125|0.3113861083984375|0.7236328125|-0.624267578125||||||||||||||||||||||||3
2021-04-22 20:46:00.499 +0100|137646.327853125|0.2911834716796875|0.6612091064453125|-0.5894927978515625|137646.307892125|-0.4328319715405258|0.371790967770675|-1.055387157415529|0.4606964886188507|-1.444455862045288|0.1663619428873062|0.1277781873941422|-0.101047694683075|-0.1672791242599487|XArbitraryZVertical|-0.4490336551025003|0.2622227959996723|-0.2732215597605371|0.8092948806383633|0.1790597885847092|0.8700911402702332|-0.4592159688472748|0|0|0|-1|-1|3
2021-04-22 20:46:00.519 +0100|137646.347814125|0.2144317626953125|0.696441650390625|-0.616119384765625|137646.327853125|-0.4294935605610014|0.3444013590016479|-1.045689054818006|0.3930921852588654|-1.564607858657837|0.33876833319664|0.1414103806018829|-0.2155658602714539|-0.1116887331008911|XArbitraryZVertical|-0.4490246008806046|0.2498857235004983|-0.2654977993363682|0.8157481235413481|0.1692575365304947|0.86527019739151|-0.4718680679798126|0|0|0|-1|-1|3
