loggingTime(txt)|accelerometerTimestamp_sinceReboot(s)|accelerometerAccelerationX(G)|accelerometerAccelerationY(G)|accelerometerAccelerationZ(G)|motionTimestamp_sinceReboot(s)|motionYaw(rad)|motionRoll(rad)|motionPitch(rad)|motionRotationRateX(rad/s)|motionRotationRateY(rad/s)|motionRotationRateZ(rad/s)|motionUserAccelerationX(G)|motionUserAccelerationY(G)|motionUserAccelerationZ(G)|motionAttitudeReferenceFrame(txt)|motionQuaternionX(R)|motionQuaternionY(R)|motionQuaternionZ(R)|motionQuaternionW(R)|motionGravityX(G)|motionGravityY(G)|motionGravityZ(G)|motionMagneticFieldX(µT)|motionMagneticFieldY(µT)|motionMagneticFieldZ(µT)|motionHeading(°)|motionMagneticFieldCalibrationAccuracy(Z)|label
2021-04-22 22:20:58.593 +0100|141727.019514625|-0.1626129150390625|-0.1552276611328125|-0.9661865234375|141726.999553625|-2.344882070799145|-0.1487603747296327|0.1467041941387297|-0.006093808449804783|-0.01136459596455097|-0.07823014259338379|-0.07602103054523468|0.02992074191570282|-0.0009611845016479492|XArbitraryZVertical|-0.03995947143396308|-0.09610944810441205|-0.9187926819029838|0.3807706262349255|-0.1466202437877655|-0.1461785286664963|-0.9783324003219604|0|0|0|-1|-1|3
2021-04-22 22:20:58.605 +0100|141727.039474625|-0.184051513671875|-0.1791839599609375|-0.9479522705078125|141727.039474625|-2.348909464132739|-0.1480914812134932|0.1506869131131806|0.05137497559189796|0.008125961758196354|-0.1141072735190392|-0.04108746349811554|-0.0241849273443222|0.02626305818557739|XArbitraryZVertical|-0.03907074497425074|-0.09772471672044282|-0.9194916437925321|0.3787594000190265|-0.1458787620067596|-0.1501172930002213|-0.9778467416763306|0|0|0|-1|-1|3
2021-04-22 22:20:58.606 +0100|141727.059434625|-0.157745361328125|-0.21185302734375|-0.95135498046875||||||||||||||||||||||||3
2021-04-22 22:20:58.619 +0100|141727.079394625|-0.16705322265625|-0.186187744140625|-0.932891845703125|141727.059434625|-2.351493987084811|-0.1472735295457615|0.1507529496148636|-0.1489960849285126|-0.03697030246257782|-0.1285198628902435|-0.01456031203269958|-0.05515602231025696|0.02725726366043091|XArbitraryZVertical|-0.03880794330458541|-0.09754995818877722|-0.919994908074183|0.3776075500595334|-0.1450774222612381|-0.1501825898885727|-0.9779558777809143|0|0|0|-1|-1|3
2021-04-22 22:20:58.639 +0100|141727.099355625|-0.1682281494140625|-0.1534881591796875|-0.916839599609375|141727.079394625|-2.354902415119022|-0.1492049891057149|0.1453857323541974|-0.3669819533824921|-0.08102010935544968|-0.1486350744962692|-0.01722317934036255|-0.04573976993560791|0.04281866550445557|XArbitraryZVertical|-0.04089977577965136|-0.09538745986528425|-0.9207053645665235|0.3762048573606304|-0.1470837444067001|-0.1448741108179092|-0.9784568548202515|0|0|0|-1|-1|3
2021-04-22 22:20:58.659 +0100|141727.119315625|-0.1817169189453125|-0.15594482421875|-0.946990966796875|141727.099355625|-2.359412104367464|-0.1508434757747865|0.1384131887400368|-0.3957949280738831|-0.1050744131207466|-0.18657286465168|-0.02094990015029907|-0.02740418910980225|0.06398272514343262|XArbitraryZVertical|-0.04320876731325606|-0.09240277174484818|-0.9216453074418496|0.3743859201484803|-0.1488349139690399|-0.1379716545343399|-0.9791894555091858|0|0|0|-1|-1|3
2021-04-22 22:20:58.679 +0100|141727.139275625|-0.1890106201171875|-0.1686859130859375|-0.972442626953125|141727.119315625|-2.364254660222145|-0.1530466716158719|0.132594428222331|-0.3124294281005859|-0.1091773882508278|-0.1933382600545883|-0.02940000593662262|-0.01733095943927765|0.04292970895767212|XArbitraryZVertical|-0.04555933597059582|-0.0900351489463673|-0.9225983676047002|0.3723311870049877|-0.1511117219924927|-0.1322062462568283|-0.979636013507843|0|0|0|-1|-1|3
2021-04-22 22:20:58.699 +0100|141727.159235625|-0.1991119384765625|-0.19073486328125|-0.983062744140625|141727.139275625|-2.368842428933116|-0.1550509527118739|0.1293281618103882|-0.2265132069587708|-0.1108646616339684|-0.1853224188089371|-0.03556495904922485|-0.03347821533679962|0.01599240303039551|XArbitraryZVertical|-0.04731108334002627|-0.08879952604556984|-0.9234547482387193|0.3702805050822603|-0.1531407535076141|-0.1289679408073425|-0.9797526001930237|0|0|0|-1|-1|3
2021-04-22 22:20:58.719 +0100|141727.179196625|-0.1947174072265625|-0.1912841796875|-0.9760284423828125|141727.159235625|-2.372924824887331|-0.1570460812964479|0.1271214269690991|-0.229772076010704|-0.1106967255473137|-0.1689253300428391|-0.03701487183570862|-0.060141921043396|-0.00620734691619873|XArbitraryZVertical|-0.04883088104695689|-0.08805466844437679|-0.924193823095268|0.3684127177357845|-0.1551393121480942|-0.1267793327569962|-0.9797238111495972|0|0|0|-1|-1|3
2021-04-22 22:20:58.738 +0100|141727.199156625|-0.1729888916015625|-0.2048187255859375|-0.9384307861328125|141727.179196625|-2.376825250973283|-0.1590048902423701|0.1240909991340043|-0.2664577960968018|-0.09399086982011795|-0.1454746872186661|-0.04292474687099457|-0.06716153770685196|0.0008502602577209473|XArbitraryZVertical|-0.05047784908579476|-0.08692253211104567|-0.9249051795982763|0.3666700102582058|-0.1571182161569595|-0.1237727701663971|-0.9797928929328918|0|0|0|-1|-1|3
2021-04-22 22:20:58.759 +0100|141727.219116625|-0.18450927734375|-0.1906585693359375|-0.9260711669921875|141727.199156625|-2.380272384133719|-0.1610911861004294|0.1192505361410521|-0.3369066119194031|-0.1136765852570534|-0.1140041202306747|-0.01737974584102631|-0.09154324233531952|0.02807772159576416|XArbitraryZVertical|-0.05249864710210259|-0.08498501756907886|-0.9255464358876017|0.3652195132668535|-0.159256249666214|-0.1189680993556976|-0.9800428748130798|0|0|0|-1|-1|3
2021-04-22 22:20:58.778 +0100|141727.239076625|-0.176666259765625|-0.1355133056640625|-0.9180755615234375|141727.219116625|-2.383283169509165|-0.1633647473195169|0.1135930977931362|-0.3047502636909485|-0.08237453550100327|-0.07275938987731934|-0.02085867524147034|-0.08381093293428421|0.05028843879699707|XArbitraryZVertical|-0.05473346971287295|-0.08270977233790344|-0.9261019167779142|0.3640038867324842|-0.1615909039974213|-0.1133489683270454|-0.9803266525268555|0|0|0|-1|-1|3
2021-04-22 22:20:58.798 +0100|141727.259037625|-0.1849365234375|-0.1467437744140625|-0.9425506591796875|141727.239076625|-2.384973447572446|-0.1649923308664078|0.1108503377749327|-0.1383965313434601|-0.0510183721780777|-0.02637848816812038|-0.01500147581100464|-0.02353290468454361|0.06477713584899902|XArbitraryZVertical|-0.05606712801674029|-0.08169330776978213|-0.9263938750414423|0.3632868480826982|-0.1632366925477982|-0.1106234565377235|-0.9803653359413147|0|0|0|-1|-1|3
2021-04-22 22:20:58.818 +0100|141727.278997625|-0.18023681640625|-0.1824188232421875|-0.9796600341796875|141727.259037625|-2.385543336740689|-0.1661450678676007|0.1115522489546647|0.0276600606739521|-0.001179016195237637|-0.008699538186192513|-0.02056770026683807|-0.04154259711503983|0.04890179634094238|XArbitraryZVertical|-0.05649401752871363|-0.08221050547805143|-0.9264574797369654|0.3629414400191509|-0.1643538028001785|-0.1113210320472717|-0.9800997376441956|0|0|0|-1|-1|3
2021-04-22 22:20:58.838 +0100|141727.298957625|-0.2020111083984375|-0.2065887451171875|-0.998931884765625|141727.278997625|-2.384848339875548|-0.1667561744380491|0.1146694636057504|0.07857847958803177|-0.009679399430751801|0.05451405420899391|-0.01662446558475494|-0.04909593611955643|0.01100915670394897|XArbitraryZVertical|-0.05616881794430634|-0.08377943508386194|-0.9262803311002056|0.3630854113477565|-0.1648943275213242|-0.1144183278083801|-0.9796521663665771|0|0|0|-1|-1|3
2021-04-22 22:20:58.858 +0100|141727.318917625|-0.180694580078125|-0.148468017578125|-0.997467041015625|141727.298957625|-2.38316580540886|-0.1677736501221322|0.1166442039830193|-0.03685378655791283|-0.01430387236177921|0.09970150887966156|-0.02880367636680603|-0.0925140380859375|-0.01601040363311768|XArbitraryZVertical|-0.0562013255377942|-0.08492245917240375|-0.9259236440220272|0.3637240679456301|-0.165852963924408|-0.1163798794150352|-0.979259192943573|0|0|0|-1|-1|3
2021-04-22 22:20:58.878 +0100|141727.338878625|-0.171356201171875|-0.1494293212890625|-0.9728546142578125|141727.318917625|-2.380639530102031|-0.1686081869670163|0.115938678315506|-0.05953697860240936|0.004468003753572702|0.1680281907320023|-0.0217929482460022|-0.04575996100902557|-0.01953220367431641|XArbitraryZVertical|-0.05661209736275068|-0.08482045383924597|-0.9254479169339642|0.3648929355703053|-0.1666838675737381|-0.1156791150569916|-0.9792011380195618|0|0|0|-1|-1|3
2021-04-22 22:20:58.898 +0100|141727.358838625|-0.1661529541015625|-0.1731109619140625|-0.9750823974609375|141727.338878625|-2.376791400911581|-0.1694340323808967|0.115246096801535|-0.01979127712547779|0.01548896357417107|0.2218468487262726|-0.001958414912223816|-0.03463761508464813|-0.002272725105285645|XArbitraryZVertical|-0.05696074204413783|-0.08476166073245683|-0.9247283354100873|0.3666723885332404|-0.1675059497356415|-0.114991158246994|-0.979141891002655|0|0|0|-1|-1|3
2021-04-22 22:20:58.918 +0100|141727.378798625|-0.1575775146484375|-0.17822265625|-0.964263916015625|141727.358838625|-2.371636559172379|-0.1696789230648482|0.1151635331252384|0.002126588020473719|0.0550357848405838|0.3021593689918518|-0.004539936780929565|-0.04677407443523407|0.006988167762756348|XArbitraryZVertical|-0.05687080451902543|-0.08491539449723338|-0.9237741382563486|0.3690483306460224|-0.1677473187446594|-0.1149091422557831|-0.9791101813316345|0|0|0|-1|-1|3
2021-04-22 22:20:58.938 +0100|141727.398759625|-0.1712799072265625|-0.188873291015625|-0.981231689453125|141727.378798625|-2.364746624225302|-0.1695891244051058|0.1153609835446502|-0.05154143646359444|0.0683114305138588|0.3887499868869781|0.01154261827468872|-0.06650590896606445|0.01268762350082397|XArbitraryZVertical|-0.05649888681621917|-0.08518480806493713|-0.9224977028397491|0.3722223728958495|-0.1676555722951889|-0.1151052787899971|-0.9791028499603271|0|0|0|-1|-1|3
2021-04-22 22:20:58.958 +0100|141727.418719625|-0.203887939453125|-0.177459716796875|-1.000579833984375|141727.398759625|-2.356484792468654|-0.1696610304991822|0.11291235207523|-0.1753835827112198|0.06550195813179016|0.4728522002696991|0.0001702308654785156|-0.07325684279203415|0.001124858856201172|XArbitraryZVertical|-0.05665100220154412|-0.08430796737832526|-0.9209749075819911|0.3761492469830579|-0.1677730530500412|-0.1126725822687149|-0.9793656468391418|0|0|0|-1|-1|3
2021-04-22 22:20:58.987 +0100|141727.438679625|-0.2465057373046875|-0.173828125|-1.003494262695312|141727.418719625|-2.347708444524189|-0.1694784452663249|0.1067417760238905|-0.3785582184791565|0.05391773581504822|0.4922524392604828|-0.02513255178928375|-0.07614010572433472|-0.02021157741546631|XArbitraryZVertical|-0.05739648949362628|-0.08169566690733258|-0.9193753939529354|0.3805004452888553|-0.1677083224058151|-0.1065391898155212|-0.9800629019737244|0|0|0|-1|-1|3
2021-04-22 22:20:58.998 +0100|141727.458639625|-0.31671142578125|-0.248687744140625|-1.017776489257812|141727.438679625|-2.340337525124835|-0.1694583912111847|0.09463506181490794|-0.9173672795295715|0.01300790905952454|0.4547607898712158|-0.07166938483715057|-0.07230103760957718|-0.01916128396987915|XArbitraryZVertical|-0.05945887818850797|-0.0763658594533871|-0.9180473884069419|0.3844765271041867|-0.1678939014673233|-0.09449386596679688|-0.9812657833099365|0|0|0|-1|-1|3
2021-04-22 22:20:59.018 +0100|141727.478600625|-0.3296661376953125|-0.2559814453125|-1.005889892578125|141727.458639625|-2.336867644125191|-0.1707906371896193|0.06620284944603252|-1.962351202964783|-0.0984678640961647|0.3657000660896301|-0.1189547926187515|-0.1758051961660385|-0.0389704704284668|XArbitraryZVertical|-0.06552433999445231|-0.06372266859997669|-0.9173887092552129|0.3873553897813217|-0.1695892214775085|-0.06615450233221054|-0.9832919836044312|0|0|0|-1|-1|3
2021-04-22 22:20:59.038 +0100|141727.498560625|-0.3397979736328125|-0.279876708984375|-0.9381866455078125|141727.478600625|-2.337744305720094|-0.1735854719413119|0.0128608086333827|-3.414245367050171|-0.2220098823308945|0.4774432778358459|-0.1621078997850418|-0.2483405619859695|-0.03416776657104492|XArbitraryZVertical|-0.07726829657835982|-0.0398047791873006|-0.9170449484756336|0.3891964228237774|-0.1727007627487183|-0.01286045368760824|-0.9848904013633728|0|0|0|-1|-1|3
2021-04-22 22:20:59.058 +0100|141727.518520625|-0.2911224365234375|-0.1999053955078125|-0.7022857666015625|141727.498560625|-2.341596192329819|-0.1799624238094481|-0.0750221572141878|-5.290871620178223|-0.3466009199619293|0.6918945908546448|-0.1404504179954529|-0.3515641987323761|0.0036659836769104|XArbitraryZVertical|-0.09725315985345749|-0.0005661359598714186|-0.9153778619663662|0.390672441615959|-0.1784891337156296|0.07495180517435074|-0.9810829758644104|0|0|0|-1|-1|3
2021-04-22 22:20:59.078 +0100|141727.538480625|-0.1047821044921875|-0.03680419921875|-0.549102783203125|141727.518520625|-2.346962838020726|-0.1875891415971738|-0.1984586309878852|-6.978075504302979|-0.3597022294998169|1.043950438499451|-0.1478737145662308|-0.427262008190155|0.2043224573135376|XArbitraryZVertical|-0.1241013874922269|0.05488629251278037|-0.9099440144701549|0.3919035331028106|-0.1828303635120392|0.1971584558486938|-0.9631726741790771|0|0|0|-1|-1|3
2021-04-22 22:20:59.098 +0100|141727.558441625|-0.0121002197265625|0.106597900390625|-0.4115753173828125|141727.538480625|-2.35188832261985|-0.1975368927227587|-0.3518110375061506|-8.077581405639648|-0.5159515738487244|1.437398314476013|0.05259621143341064|-0.4363810420036316|0.3253554105758667|XArbitraryZVertical|-0.1566051877472159|0.1234005036177593|-0.897742132620184|0.3928184711325387|-0.184234157204628|0.3445984721183777|-0.9204942584037781|0|0|0|-1|-1|3
2021-04-22 22:20:59.118 +0100|141727.578401625|0.0488128662109375|0.318511962890625|-0.2877960205078125|141727.558441625|-2.353077454582721|-0.2104873022096932|-0.5228714780736697|-8.678524017333984|-0.7728990316390991|1.838593006134033|0.1605730354785919|-0.4166529774665833|0.3990243077278137|XArbitraryZVertical|-0.1924285869022525|0.1983374991386141|-0.8765441778996663|0.3940860655528561|-0.1810202300548553|0.4993700087070465|-0.8472669720649719|0|0|0|-1|-1|3
2021-04-22 22:20:59.138 +0100|141727.598361625|-0.043365478515625|0.9039306640625|-0.273712158203125|141727.578401625|-2.351359745250797|-0.224162368237625|-0.7026742643294953|-8.669318199157715|-0.6931885480880737|2.16429328918457|0.1989904940128326|-0.4134734272956848|0.4443560838699341|XArbitraryZVertical|-0.2285620743152403|0.2752224327306599|-0.8463181001753549|0.3946615358425206|-0.1696330308914185|0.6462607979774475|-0.7440239787101746|0|0|0|-1|-1|3
2021-04-22 22:20:59.158 +0100|141727.618321625|-0.1590118408203125|1.888229370117188|-0.3701019287109375|141727.598361625|-2.345169983960938|-0.2303362893705189|-0.8595146379853363|-6.082425594329834|-0.4033783376216888|1.656913280487061|0.1538141965866089|-0.07527542114257812|0.375157356262207|XArbitraryZVertical|-0.2567848271999372|0.3409974819144969|-0.8138210957329257|0.39430662383633|-0.1490386873483658|0.7575258016586304|-0.6355645656585693|0|0|0|-1|-1|3
2021-04-22 22:20:59.177 +0100|141727.638282625|-0.1048126220703125|1.341476440429688|-0.1970977783203125|141727.618321625|-2.338688536050984|-0.2336302159008562|-0.9516896266359932|-2.658165216445923|-0.2889757454395294|0.8917884230613708|0.001748085021972656|0.9342900514602661|0.2231415510177612|XArbitraryZVertical|-0.2731458073696423|0.3783122501980613|-0.791794402493583|0.3941230662646446|-0.1343474686145782|0.8143971562385559|-0.5645424127578735|0|0|0|-1|-1|3
2021-04-22 22:20:59.198 +0100|141727.658242625|0.1030426025390625|1.225814819335938|-0.4225311279296875|141727.638282625|-2.33342868518146|-0.2287479793008362|-0.9771157398700554|-0.01363318413496017|0.3922549486160278|-0.05376128852367401|-0.02028888463973999|0.7101289033889771|0.2773714661598206|XArbitraryZVertical|-0.2759895764630498|0.3891118156761377|-0.7855313896440922|0.3941602298196553|-0.1268521398305893|0.8288873434066772|-0.5448434948921204|0|0|0|-1|-1|3
2021-04-22 22:20:59.218 +0100|141727.678202625|-0.045928955078125|0.9279327392578125|-0.5110931396484375|141727.658242625|-2.34059615565105|-0.2227577291055393|-0.9629194098587079|1.223836898803711|0.5720870494842529|-0.7640905976295471|0.2112556993961334|0.3723590970039368|0.2020944952964783|XArbitraryZVertical|-0.2701407653055912|0.385378559799294|-0.7910584707033554|0.3908119278265216|-0.126173198223114|0.8208624124526978|-0.5570146441459656|0|0|0|-1|-1|3
2021-04-22 22:20:59.237 +0100|141727.698163625|0.06829833984375|0.4756011962890625|-0.4886474609375|141727.678202625|-2.36435585239244|-0.232203013309725|-0.9254781226884061|1.946480870246887|0.4622032046318054|-1.353121757507324|0.1541846096515656|0.2215683460235596|0.04687321186065674|XArbitraryZVertical|-0.2639358771790415|0.3710558273843619|-0.8029395759656502|0.3846343427221272|-0.1384074985980988|0.7989084124565125|-0.5853108763694763|0|0|0|-1|-1|3
2021-04-22 22:20:59.257 +0100|141727.718123625|-0.29840087890625|1.10821533203125|-0.7181549072265625|141727.698163625|-2.391395238733124|-0.2424777249364|-0.8846930026749052|1.511343240737915|0.5569456219673157|-1.156711339950562|0.1471710056066513|-0.2707914710044861|0.174731433391571|XArbitraryZVertical|-0.2573770285584089|0.3553309620294963|-0.8157737899368153|0.3768424136636412|-0.1521153151988983|0.7737205028533936|-0.6149939298629761|0|0|0|-1|-1|3
2021-04-22 22:20:59.277 +0100|141727.738083625|0.5036773681640625|0.71722412109375|-0.414276123046875|141727.718123625|-2.435251358266313|-0.2699921431090894|-0.8515201279401743|1.171704411506653|0.198524996638298|-2.701992511749268|0.02251453697681427|0.1878105998039246|-0.04843872785568237|XArbitraryZVertical|-0.2565572501000892|0.34160220712379|-0.8275156643735482|0.3642860233281208|-0.1757284700870514|0.7522827982902527|-0.6349726319313049|0|0|0|-1|-1|3
2021-04-22 22:20:59.297 +0100|141727.758043625|-0.2320556640625|0.3857269287109375|-0.4542999267578125|141727.738083625|-2.478194247486471|-0.2933389434848588|-0.8225178082893427|0.8886473774909973|0.1290572285652161|-1.101013898849487|0.5975031852722168|0.1408869028091431|0.2222524881362915|XArbitraryZVertical|-0.2554417000876963|0.3302907848532371|-0.8383233793518562|0.3505305490665365|-0.1967314779758453|0.7328612208366394|-0.6513150930404663|0|0|0|-1|-1|3
2021-04-22 22:20:59.317 +0100|141727.7780035|0.0689239501953125|0.6671600341796875|-0.6659088134765625|141727.758043625|-2.503476060992523|-0.3090221457330176|-0.8120859289970838|-0.5955939888954163|0.3670952618122101|-0.7558888792991638|0.04425694048404694|-0.3444378972053528|0.2546855807304382|XArbitraryZVertical|-0.2566658364377873|0.3262268865526245|-0.8428669575404433|0.342453281173601|-0.2092353701591492|0.7257238626480103|-0.655397355556488|0|0|0|-1|-1|3
2021-04-22 22:20:59.337 +0100|141727.7979635|-0.07733154296875|0.8107452392578125|-0.6535491943359375|141727.7780035|-2.527175318076989|-0.3178501011487976|-0.834879760491158|-1.969139575958252|0.4324533343315125|-0.0992795005440712|0.2482089996337891|-0.1198633313179016|-0.0005414485931396484|XArbitraryZVertical|-0.2589483484846667|0.3378229302486869|-0.8409489875577012|0.3341054364197934|-0.2097877413034439|0.7412158250808716|-0.6376428604125977|0|0|0|-1|-1|3
2021-04-22 22:20:59.357 +0100|141727.8179235|-0.11083984375|1.154342651367188|-0.5608062744140625|141727.7979635|-2.548632730209898|-0.3233933806734946|-0.8845405759075932|-3.097747802734375|0.6849311590194702|0.2558996081352234|0.1536793857812881|-0.007114529609680176|-0.05734425783157349|XArbitraryZVertical|-0.2625637358172296|0.3614706235441802|-0.8329455535783193|0.3264983627999742|-0.2013634592294693|0.7736239433288574|-0.6007985472679138|0|0|0|-1|-1|3
2021-04-22 22:20:59.377 +0100|141727.8378835|-0.0462799072265625|1.27984619140625|-0.506134033203125|141727.8179235|-2.573385022967363|-0.3249583333040559|-0.948205754150139|-3.290109395980835|1.116821646690369|0.3126316964626312|0.07945898175239563|0.2507393360137939|-0.03262907266616821|XArbitraryZVertical|-0.2644351665837277|0.3921259517587724|-0.8220886462004263|0.3169887161413661|-0.1861792951822281|0.8123705387115479|-0.5526225566864014|0|0|0|-1|-1|3
2021-04-22 22:20:59.397 +0100|141727.8578445|0.014495849609375|1.209152221679688|-0.4919891357421875|141727.8378835|-2.599036994074583|-0.3208254100160183|-1.007004499223857|-2.646870374679565|1.392928719520569|0.2215626984834671|0.09923098981380463|0.426142156124115|-0.007902860641479492|XArbitraryZVertical|-0.2624180814365628|0.4213939374492987|-0.812380825116894|0.3059433793405841|-0.1685214638710022|0.8452348709106445|-0.5071278214454651|0|0|0|-1|-1|3
2021-04-22 22:20:59.417 +0100|141727.8778045|0.0390625|0.961761474609375|-0.5277252197265625|141727.8578445|-2.616063367867524|-0.3047063785418443|-1.048931432669387|-1.590072393417358|1.669626235961914|0.2268812954425812|0.1522563993930817|0.3755249381065369|-0.02153646945953369|XArbitraryZVertical|-0.2554209551300721|0.4438387153889196|-0.8064584766666425|0.2956218952901856|-0.1495559066534042|0.8668910264968872|-0.4755346477031708|0|0|0|-1|-1|3
2021-04-22 22:20:59.437 +0100|141727.8977645|0.0294189453125|0.9078369140625|-0.5355987548828125|141727.8778045|-2.625325733922095|-0.2804780717318246|-1.072186578394551|-0.787740170955658|1.661080718040466|0.1208741664886475|0.1599162667989731|0.1776443719863892|-0.06414872407913208|XArbitraryZVertical|-0.2452989904274591|0.4583329765276672|-0.804840691613498|0.286340713881023|-0.1323744356632233|0.8782482147216797|-0.4595185816287994|0|0|0|-1|-1|3
2021-04-22 22:20:59.457 +0100|141727.9177245|0.043731689453125|0.696441650390625|-0.4491119384765625|141727.8977645|-2.6232502449196|-0.2442313344879471|-1.08316443736128|-0.3212819993495941|1.677960276603699|-0.00346021237783134|0.1707459092140198|0.004265308380126953|-0.07167613506317139|XArbitraryZVertical|-0.2320206542417572|0.4678150822251164|-0.8060157077319872|0.278665425105792|-0.1132968068122864|0.8834449052810669|-0.4546309411525726|0|0|0|-1|-1|3
2021-04-22 22:20:59.484 +0100|141727.9376855|0.014617919921875|0.759735107421875|-0.34136962890625|141727.9177245|-2.633255161245897|-0.2207442163642727|-1.089097847633716|-0.3913411498069763|1.604860305786133|-0.206932544708252|0.1327803730964661|-0.1413061618804932|-0.01391494274139404|XArbitraryZVertical|-0.2206514770515989|0.4746484396350676|-0.8084959246749377|0.2689913179467272|-0.1014390215277672|0.8862093091011047|-0.4520435631275177|0|0|0|-1|-1|3
2021-04-22 22:20:59.497 +0100|141727.9576455|-0.0552215576171875|0.8328704833984375|-0.249481201171875|141727.9376855|-2.646038899487463|-0.2020951391636438|-1.099628401295968|-0.7065318822860718|1.380484104156494|-0.1943347454071045|0.1305265724658966|-0.1578391194343567|0.05919021368026733|XArbitraryZVertical|-0.2108782568119999|0.4828931753310574|-0.8094390614902657|0.2591389628670326|-0.09111332148313522|0.891038715839386|-0.4446890950202942|0|0|0|-1|-1|3
2021-04-22 22:20:59.517 +0100|141727.9776055|-0.0719146728515625|0.97808837890625|-0.2469329833984375|141727.9576455|-2.667043803017833|-0.1943823309163794|-1.112823619767707|-0.7158776521682739|1.261810183525085|-0.460521399974823|0.04334884881973267|-0.08731973171234131|0.1834980249404907|XArbitraryZVertical|-0.2036482109385641|0.4915540223158895|-0.8094225205192501|0.2484698405686507|-0.08540219813585281|0.8969506621360779|-0.4338040947914124|0|0|0|-1|-1|3
2021-04-22 22:20:59.537 +0100|141727.9975665|-0.066131591796875|1.005096435546875|-0.2597198486328125|141727.9776055|-2.697408178527573|-0.1973781149136923|-1.122068698739472|-0.4322289526462555|1.138386845588684|-0.676734983921051|0.008792802691459656|0.04805076122283936|0.1789053082466125|XArbitraryZVertical|-0.1980035474114293|0.4980926150393392|-0.8103431038633698|0.2367330816193121|-0.0850716158747673|0.9009997844696045|-0.4253966808319092|0|0|0|-1|-1|3
2021-04-22 22:20:59.557 +0100|141728.0175265|-0.1406402587890625|1.000762939453125|-0.2304840087890625|141727.9975665|-2.737008565221339|-0.2139448178558586|-1.123538532573355|-0.08319926261901855|0.7932910919189453|-0.9752470254898071|0.03208751231431961|0.09224432706832886|0.1668808460235596|XArbitraryZVertical|-0.1949297345229009|0.500684793243361|-0.8128907183239124|0.2247795547095378|-0.09182573109865189|0.9016364812850952|-0.4226342737674713|0|0|0|-1|-1|3
2021-04-22 22:20:59.577 +0100|141728.0374865|-0.20794677734375|1.006027221679688|-0.1898040771484375|141728.0175265|-2.790289172251988|-0.2457814373291092|-1.121224333486716|-0.2993925511837006|0.8349520564079285|-1.356801509857178|-0.01333999633789062|0.1394665837287903|0.1825972199440002|XArbitraryZVertical|-0.1944351867737958|0.5014327837740989|-0.8162196048427425|0.2110591507052597|-0.1057396680116653|0.9006332159042358|-0.4215202331542969|0|0|0|-1|-1|3
2021-04-22 22:20:59.597 +0100|141728.0574465|-0.28021240234375|1.22454833984375|-0.234710693359375|141728.0374865|-2.854306687981111|-0.2852394661540557|-1.122806737873358|-0.5165586471557617|1.006157040596008|-1.228951454162598|-0.06483761966228485|0.01963949203491211|0.2103601098060608|XArbitraryZVertical|-0.1945162516625216|0.5043183659547747|-0.8184527689244845|0.1948377446160528|-0.1218842267990112|0.9013197422027588|-0.4156528413295746|0|0|0|-1|-1|3
2021-04-22 22:20:59.617 +0100|141728.0774075|-0.310211181640625|1.0926513671875|-0.372833251953125|141728.0574465|-2.916282224697595|-0.3197488486504002|-1.122509606560313|-0.208207830786705|1.11696469783783|-1.38437283039093|-0.1320736855268478|0.3355945348739624|0.2068938612937927|XArbitraryZVertical|-0.1929884185329303|0.5069796868726134|-0.8209685866681379|0.1781511155002615|-0.1362368613481522|0.9011909961700439|-0.4114541411399841|0|0|0|-1|-1|3
2021-04-22 22:20:59.637 +0100|141728.0973675|-0.2852325439453125|1.114593505859375|-0.411865234375|141728.0774075|-2.971797329385182|-0.3502417274394447|-1.115980842199025|-0.01655272394418716|0.8598584532737732|-1.163088798522949|-0.1359484195709229|0.2069889903068542|0.06443578004837036|XArbitraryZVertical|-0.1914793395405082|0.5069735197160559|-0.824515359921931|0.1627517424174495|-0.1507336646318436|0.8983420729637146|-0.4126270115375519|0|0|0|-1|-1|3
2021-04-22 22:20:59.657 +0100|141728.1173275|-0.2132568359375|0.89678955078125|-0.4544830322265625|141728.1173275|-3.079659712746414|-0.4178464888106581|-1.0982794067824|-0.276533305644989|0.460985392332077|-1.320642828941345|-0.03764751553535461|0.08429020643234253|-0.03311040997505188|XArbitraryZVertical|-0.1926367165810548|0.5048813196989873|-0.8306740270315717|0.1340398387056734|-0.1846882104873657|0.8904255628585815|-0.4159719049930573|0|0|0|-1|-1|3
2021-04-22 22:20:59.677 +0100|141728.1372875|-0.214263916015625|0.7941741943359375|-0.48248291015625||||||||||||||||||||||||3
2021-04-22 22:20:59.697 +0100|141728.1572485|-0.2410430908203125|0.8747100830078125|-0.5027923583984375|141728.1372875|-3.137007156010357|-0.4621546312031732|-1.096015405692075|-0.5825559496879578|0.1939166486263275|-1.144552111625671|-0.008129507303237915|-0.1052135229110718|-0.07300734519958496|XArbitraryZVertical|-0.1966508800549098|0.5066903661967442|-0.8306010221231818|0.1212245308657574|-0.2038302421569824|0.8893929123878479|-0.4091866016387939|0|0|0|-1|-1|3
2021-04-22 22:20:59.717 +0100|141728.1772085|-0.26605224609375|0.8964080810546875|-0.47967529296875|141728.1572485|3.095233736456735|-0.5054952186993242|-1.096664064265863|-0.4801002144813538|0.01919970475137234|-0.9105494022369385|-0.00851072371006012|-0.03959196805953979|-0.09714743494987488|XArbitraryZVertical|-0.2016494058016357|0.5095139839625586|-0.8290811811886623|0.1111640398503293|-0.2210881859064102|0.8896892070770264|-0.3994660377502441|0|0|0|-1|-1|3
2021-04-22 22:20:59.736 +0100|141728.1971685|-0.292572021484375|0.9210357666015625|-0.47308349609375|141728.1772085|3.055832649520288|-0.5417484061389822|-1.094653169583543|-0.3012827038764954|-0.1163073107600212|-0.6925430297851562|-0.03286686539649963|0.01120913028717041|-0.09749758243560791|XArbitraryZVertical|-0.2067815062119699|0.5107642738585173|-0.8279957448666523|0.1038488425363181|-0.2363438606262207|0.8887693285942078|-0.3927225172519684|0|0|0|-1|-1|3
2021-04-22 22:20:59.756 +0100|141728.2171285|-0.3102569580078125|0.913116455078125|-0.4911651611328125|141728.1971685|3.024505008405986|-0.5741430612466399|-1.093148514485678|-0.3525660336017609|-0.3133649826049805|-0.638195276260376|-0.02993619441986084|0.01531767845153809|-0.09889554977416992|XArbitraryZVertical|-0.2123119563795725|0.5117925878422158|-0.8265567462689901|0.0989756480703813|-0.2496657520532608|0.8880786299705505|-0.3859839737415314|0|0|0|-1|-1|3
2021-04-22 22:20:59.776 +0100|141728.2370895|-0.291748046875|0.8542327880859375|-0.45843505859375|141728.2171285|2.995200753336733|-0.6069406437491647|-1.091877259827545|-0.2857407331466675|-0.3777645826339722|-0.5314670205116272|-0.05737337470054626|0.05778813362121582|-0.108163595199585|XArbitraryZVertical|-0.2184756175858585|0.5128452082037099|-0.824751040805037|0.09510058568671609|-0.2628322243690491|0.8874935507774353|-0.3785164058208466|0|0|0|-1|-1|3
2021-04-22 22:20:59.796 +0100|141728.2570495|-0.2832183837890625|0.799713134765625|-0.4239349365234375|141728.2370895|2.973041419072992|-0.6356951114012527|-1.090007048121112|-0.1120250821113586|-0.4966709017753601|-0.4484509825706482|-0.01149576902389526|-0.03448808193206787|-0.08709108829498291|XArbitraryZVertical|-0.2248447979411446|0.5132013437113941|-0.8230479387349483|0.09306765882117775|-0.2745912075042725|0.8866301774978638|-0.3721383810043335|0|0|0|-1|-1|3
2021-04-22 22:20:59.816 +0100|141728.2770095|-0.3226165771484375|0.7623138427734375|-0.4530487060546875|141728.2570495|2.961443130030262|-0.656332218932742|-1.085143229887348|0.1421490162611008|-0.5363465547561646|-0.271312415599823|0.004353135824203491|-0.06141817569732666|-0.06296589970588684|XArbitraryZVertical|-0.2309321458550002|0.5116326111297734|-0.8223665440791263|0.09282206371706152|-0.2848401665687561|0.8843702673912048|-0.3698048293590546|0|0|0|-1|-1|3
2021-04-22 22:20:59.837 +0100|141728.2969705|-0.3350830078125|0.7624969482421875|-0.458160400390625|141728.2770095|2.961939734009556|-0.6656550974193503|-1.078271736597326|0.1571831703186035|-0.5264703035354614|-0.1457173973321915|-0.02589535713195801|-0.09621471166610718|-0.08418205380439758|XArbitraryZVertical|-0.2357152978508376|0.5084154168938179|-0.8228362595776081|0.09430153893122215|-0.2920214831829071|0.8811419010162354|-0.3719041347503662|0|0|0|-1|-1|3
2021-04-22 22:20:59.857 +0100|141728.3169305|-0.390350341796875|0.7764434814453125|-0.437164306640625|141728.2969705|2.961267167292179|-0.6760584557068875|-1.075765851514055|-0.1365479826927185|-0.5367369651794434|-0.02217273414134979|-0.03617975115776062|-0.1347000002861023|-0.08315390348434448|XArbitraryZVertical|-0.2401250323538989|0.5070072909584299|-0.8222031017999779|0.09625880677448755|-0.2972552478313446|0.8799542188644409|-0.3705671429634094|0|0|0|-1|-1|3
2021-04-22 22:20:59.876 +0100|141728.3368905|-0.3635711669921875|0.768157958984375|-0.392425537109375|141728.3169305|2.956403489100051|-0.6903082977095644|-1.079183095686516|-0.4436979293823242|-0.502885103225708|0.04532809928059578|-0.0812164843082428|-0.1033592820167542|-0.07836481928825378|XArbitraryZVertical|-0.2443221045080326|0.5082520535632661|-0.819936296624586|0.09844354744376334|-0.300588846206665|0.8815724849700928|-0.3639731109142303|0|0|0|-1|-1|3
2021-04-22 22:20:59.896 +0100|141728.3568505|-0.3912811279296875|0.8271484375|-0.3637847900390625|141728.3368905|2.948866824814611|-0.7060110632998068|-1.086379217755437|-0.4400734603404999|-0.4774807393550873|0.1453669816255569|-0.06486117839813232|-0.1228771209716797|-0.0468437671661377|XArbitraryZVertical|-0.2479216139851113|0.5112230383939884|-0.8167438329141659|0.1005761840137863|-0.3021431863307953|0.8849465250968933|-0.3543717563152313|0|0|0|-1|-1|3
2021-04-22 22:20:59.916 +0100|141728.3768115|-0.4407196044921875|0.8611297607421875|-0.3443603515625|141728.3568505|2.949025768182546|-0.7147247035074791|-1.09097930238827|-0.1563113033771515|-0.4668847024440765|0.2363609969615936|-0.07753288745880127|-0.06585162878036499|-0.01593190431594849|XArbitraryZVertical|-0.2509263270096274|0.5125547272660705|-0.8146032527547121|0.1036597211173722|-0.3025482296943665|0.8870794177055359|-0.348647266626358|0|0|0|-1|-1|3
2021-04-22 22:20:59.936 +0100|141728.3967715|-0.4448699951171875|0.8663330078125|-0.292510986328125|141728.3768115|2.958090804743918|-0.7148114341136087|-1.092121422269356|0.01208243332803249|-0.3773162662982941|0.316360741853714|-0.1350669860839844|-0.02817028760910034|-0.0009459555149078369|XArbitraryZVertical|-0.2531370519939312|0.5118533159788872|-0.813853172336623|0.1075685186715092|-0.3019141852855682|0.8876060247421265|-0.3478556275367737|0|0|0|-1|-1|3
2021-04-22 22:20:59.956 +0100|141728.4167315|-0.439727783203125|0.894805908203125|-0.2502593994140625|141728.3967715|2.969848328927307|-0.7117891399836526|-1.092764114940538|0.0009646506514400244|-0.3750233054161072|0.3303469717502594|-0.1379877626895905|-0.01479429006576538|0.03818336129188538|XArbitraryZVertical|-0.2548325471652089|0.5107770011653407|-0.8134451586015238|0.1116885022375425|-0.3004887700080872|0.8879019021987915|-0.3483344614505768|0|0|0|-1|-1|3
2021-04-22 22:20:59.976 +0100|141728.4366915|-0.469573974609375|0.9276885986328125|-0.25860595703125|141728.4167315|2.979067110330757|-0.710873302101761|-1.094707440694351|-0.09833903610706329|-0.3577795028686523|0.3423004150390625|-0.1457352042198181|-0.008759140968322754|0.09565243124961853|XArbitraryZVertical|-0.2565735045751734|0.5104109943692492|-0.8125907117753327|0.1155297362276868|-0.299043208360672|0.8887941837310791|-0.3473013043403625|0|0|0|-1|-1|3
2021-04-22 22:20:59.996 +0100|141728.4566525|-0.5125732421875|1.028106689453125|-0.292938232421875|141728.4366915|2.983379156326325|-0.7147766686843235|-1.099640672381433|-0.2586025893688202|-0.3786093294620514|0.3156053721904755|-0.1626859307289124|0.02158361673355103|0.09310483932495117|XArbitraryZVertical|-0.2586538801832738|0.5115566747087635|-0.810692355068294|0.1191053892780613|-0.2975191473960876|0.8910443186759949|-0.3428158760070801|0|0|0|-1|-1|3
2021-04-22 22:21:00.016 +0100|141728.4766125|-0.5318603515625|1.090133666992188|-0.3000946044921875|141728.4566525|2.980800640197419|-0.7256010667826821|-1.105554858736584|-0.2892923057079315|-0.3972555100917816|0.2232086062431335|-0.2006572484970093|0.1070493459701538|0.0497221052646637|XArbitraryZVertical|-0.2616417824603309|0.5135465783762087|-0.8080652888763987|0.1218362960858687|-0.2977100610733032|0.8937132358551025|-0.3356269896030426|0|0|0|-1|-1|3
2021-04-22 22:21:00.036 +0100|141728.4965725|-0.5121917724609375|1.079803466796875|-0.304351806640625|141728.4766125|2.976605712762872|-0.7379659288269484|-1.109218378070148|-0.08988147974014282|-0.3750239014625549|0.153980016708374|-0.2348524332046509|0.179249107837677|0.03387105464935303|XArbitraryZVertical|-0.2650904431135142|0.51476125506842|-0.8058437843580022|0.1239511664292087|-0.2996324598789215|0.8953508734703064|-0.3294958174228668|0|0|0|-1|-1|3
2021-04-22 22:21:00.056 +0100|141728.5165325|-0.48590087890625|1.06048583984375|-0.3291778564453125|141728.4965725|2.979654196951708|-0.7430660580731744|-1.110069406458033|0.1577405482530594|-0.3367351889610291|0.1603608578443527|-0.2190125286579132|0.1852486729621887|0.02903088927268982|XArbitraryZVertical|-0.2678199723537767|0.5143650100708351|-0.8047757966003134|0.126638285900026|-0.300793468952179|0.8957295417785645|-0.3274022042751312|0|0|0|-1|-1|3
2021-04-22 22:21:00.076 +0100|141728.5364935|-0.4603424072265625|1.021530151367188|-0.35498046875|141728.5165325|2.993015135908884|-0.7378629040896141|-1.108700883236953|0.3208941519260406|-0.3387640118598938|0.1766271740198135|-0.1882492005825043|0.1774349212646484|0.005252867937088013|XArbitraryZVertical|-0.2693277545460388|0.5123747806115651|-0.8049342114205418|0.1304438209994689|-0.2999100089073181|0.8951202630996704|-0.3298693001270294|0|0|0|-1|-1|3
2021-04-22 22:21:00.096 +0100|141728.5564535|-0.4278717041015625|0.9873199462890625|-0.367523193359375|141728.5364935|3.009173570077472|-0.7303291635456011|-1.105980012509062|0.3509288430213928|-0.3457889258861542|0.179762527346611|-0.1674363911151886|0.1424117088317871|-0.01650172472000122|XArbitraryZVertical|-0.2707549367804296|0.5096326993725416|-0.8055178989713232|0.1345633763228604|-0.2990401089191437|0.893903911113739|-0.3339325487613678|0|0|0|-1|-1|3
2021-04-22 22:21:00.116 +0100|141728.5764135|-0.3762054443359375|0.914947509765625|-0.3729400634765625|141728.5564535|3.025364427662977|-0.7224314218192335|-1.103573295722077|0.3143774569034576|-0.3042320609092712|0.2095640897750854|-0.1365567743778229|0.1042017936706543|-0.02549207210540771|XArbitraryZVertical|-0.2719715087574477|0.5070335541703757|-0.806050088185518|0.1386792651078261|-0.2978152334690094|0.8928225040435791|-0.3378969430923462|0|0|0|-1|-1|3
2021-04-22 22:21:00.136 +0100|141728.5963745|-0.31951904296875|0.851806640625|-0.382415771484375|141728.5764135|3.042703936623484|-0.7121090448715121|-1.102050816960971|0.3195946216583252|-0.2108427733182907|0.2912805080413818|-0.09924036264419556|0.03988605737686157|-0.0287163257598877|XArbitraryZVertical|-0.2723684940940547|0.5048015298010798|-0.806595270845196|0.1428114416091914|-0.2951994240283966|0.8921357393264771|-0.3419816493988037|0|0|0|-1|-1|3
2021-04-22 22:21:00.156 +0100|141728.6163345|-0.2794342041015625|0.8207550048828125|-0.3955535888671875|141728.5963745|3.063814657180679|-0.6964468428241963|-1.101093536977457|0.3719855844974518|-0.07654354721307755|0.365725189447403|-0.03639683127403259|-0.03058862686157227|-0.03190284967422485|XArbitraryZVertical|-0.2714690806662314|0.5026883222890021|-0.8074226756103221|0.1472339882567322|-0.2903549671173096|0.8917028307914734|-0.3472179770469666|0|0|0|-1|-1|3
2021-04-22 22:21:00.176 +0100|141728.6362945|-0.2590484619140625|0.84503173828125|-0.3657073974609375|141728.6163345|3.088397169401254|-0.6740519767303176|-1.099782864442626|0.4289008378982544|0.1220385804772377|0.4016182422637939|-0.01193007826805115|-0.06478476524353027|-0.04047492146492004|XArbitraryZVertical|-0.2687170937066681|0.5005181086251264|-0.8089283865919115|0.1513529227782983|-0.283236026763916|0.8911088705062866|-0.3545455038547516|0|0|0|-1|-1|3
2021-04-22 22:21:00.196 +0100|141728.6562545|-0.2434844970703125|0.83978271484375|-0.3333740234375|141728.6362945|3.112941157866102|-0.6481185281107527|-1.097168563560614|0.4586615264415741|0.244848757982254|0.307712733745575|0.003532528877258301|-0.04403352737426758|-0.006064057350158691|XArbitraryZVertical|-0.2645843610904773|0.4981784059209412|-0.8111477037920838|0.154443974605787|-0.2753526866436005|0.8899194598197937|-0.3636267781257629|0|0|0|-1|-1|3
2021-04-22 22:21:00.216 +0100|141728.6762155|-0.224273681640625|0.8202362060546875|-0.3176727294921875|141728.6562545|3.133155245223695|-0.62456646037186|-1.092467815493232|0.487772673368454|0.3424091339111328|0.152906134724617|0.03056976199150085|-0.04995149374008179|0.03735482692718506|XArbitraryZVertical|-0.2604380303573136|0.4954513032263663|-0.8138257049716885|0.1561667657574632|-0.269156277179718|0.8877655267715454|-0.3734000623226166|0|0|0|-1|-1|3
2021-04-22 22:21:00.236 +0100|141728.6961755|-0.205810546875|0.82562255859375|-0.310211181640625|141728.6762155|-3.136006964901378|-0.6041449043873061|-1.084405049183015|0.5383176207542419|0.4787404537200928|0.04253542050719261|0.03254607319831848|-0.05988341569900513|0.0664888322353363|XArbitraryZVertical|-0.2562052864276561|0.4919457060538436|-0.8173582979126623|0.155800176949568|-0.2655325829982758|0.8840254545211792|-0.3846965432167053|0|0|0|-1|-1|3
2021-04-22 22:21:00.256 +0100|141728.7161355|-0.206329345703125|0.853851318359375|-0.3113555908203125|141728.6961755|-3.12399808354718|-0.5836333844627044|-1.074797504108358|0.5309635996818542|0.5521804094314575|-0.01189604215323925|0.05943518877029419|-0.04703563451766968|0.08472180366516113|XArbitraryZVertical|-0.2514436626834128|0.488068126487036|-0.8213980248401703|0.1545026181592294|-0.2622550427913666|0.879493772983551|-0.3971311748027802|0|0|0|-1|-1|3
2021-04-22 22:21:00.276 +0100|141728.7360955|-0.1890411376953125|0.869232177734375|-0.35015869140625|141728.7161355|-3.115933777452512|-0.5648815120707198|-1.066404829522572|0.3807766139507294|0.6187008023262024|-0.08321727067232132|0.05327561497688293|-0.02796530723571777|0.1048994064331055|XArbitraryZVertical|-0.2462551216460236|0.4850347957942648|-0.825176761516501|0.1522604402973941|-0.2587047815322876|0.8754687309265137|-0.4081993103027344|0|0|0|-1|-1|3
2021-04-22 22:21:00.296 +0100|141728.7560565|-0.1892547607421875|0.91668701171875|-0.365325927734375|141728.7360955|-3.114023148143327|-0.5519408082660585|-1.061741324561373|0.1249141246080399|0.4822832047939301|-0.09519305825233459|0.06037887930870056|0.003732204437255859|0.07134073972702026|XArbitraryZVertical|-0.2416706347504019|0.4838417775446035|-0.8277555508217954|0.1493768785895014|-0.2555388808250427|0.8732054233551025|-0.4149848818778992|0|0|0|-1|-1|3
2021-04-22 22:21:00.316 +0100|141728.77601825|-0.2374114990234375|0.9395599365234375|-0.3684539794921875|141728.7560565|-3.117047135040917|-0.5465623039871366|-1.061120314416903|0.01502372790127993|0.3614253997802734|-0.04870883002877235|0.06500145792961121|0.01428872346878052|0.03572708368301392|XArbitraryZVertical|-0.2387505813557272|0.4843449867648343|-0.8287773437707874|0.1467521495151578|-0.2535848021507263|0.8729026317596436|-0.4168161749839783|0|0|0|-1|-1|3
2021-04-22 22:21:00.336 +0100|141728.79597825|-0.2099761962890625|0.980133056640625|-0.3602752685546875|141728.77601825|-3.124010166056303|-0.5475830109472687|-1.062216155662956|-0.186485081911087|0.2455293089151382|-0.1463559418916702|0.01382699608802795|0.08495211601257324|0.04150232672691345|XArbitraryZVertical|-0.2374150569968523|0.4855552855747112|-0.8288940983625602|0.1442388184115605|-0.2535120248794556|0.8734367489814758|-0.4157403111457825|0|0|0|-1|-1|3
2021-04-22 22:21:00.356 +0100|141728.81593925|-0.2154693603515625|0.9591522216796875|-0.3926544189453125|141728.79597825|-3.134223053075866|-0.5525286670687224|-1.066565579719628|-0.1962991803884506|0.1693703979253769|-0.1293475776910782|0.05161875486373901|0.07179516553878784|0.0486636757850647|XArbitraryZVertical|-0.2366889290620619|0.4882175423795983|-0.8279728986704399|0.1417146938599123|-0.2535688281059265|0.875546395778656|-0.4112439751625061|0|0|0|-1|-1|3
2021-04-22 22:21:00.376 +0100|141728.83589925|-0.1884307861328125|0.8940277099609375|-0.4301605224609375|141728.81593925|-3.139378930053538|-0.5536872716521087|-1.068506165890148|0.0177934318780899|0.143886610865593|-0.062778040766716|0.02480340003967285|0.09675341844558716|0.02615630626678467|XArbitraryZVertical|-0.2357753488767091|0.4895488602158749|-0.8277237233413023|0.1400907462996969|-0.2531511783599854|0.8764823079109192|-0.4095037877559662|0|0|0|-1|-1|3
2021-04-22 22:21:00.395 +0100|141728.85585925|-0.1828460693359375|0.893463134765625|-0.42071533203125|141728.83589925|-3.135658162433628|-0.5484023230263223|-1.06786972602594|0.177474170923233|0.02462728135287762|0.07492434233427048|0.06302660703659058|0.03764230012893677|-0.01587396860122681|XArbitraryZVertical|-0.2345413771871732|0.4892180779217535|-0.8282404918081723|0.140263684754768|-0.2512742578983307|0.8761757016181946|-0.4113120436668396|0|0|0|-1|-1|3
2021-04-22 22:21:00.415 +0100|141728.87581925|-0.16436767578125|0.9047088623046875|-0.433013916015625|141728.85585925|-3.127658650444677|-0.5417612742281901|-1.067831419779054|0.163178414106369|-0.06364356726408005|0.1515993177890778|0.05919289588928223|0.01501667499542236|-0.001459777355194092|XArbitraryZVertical|-0.2337491483066525|0.4887342220847029|-0.8284629630013369|0.1419488617300053|-0.2485544979572296|0.876157283782959|-0.4130004048347473|0|0|0|-1|-1|3
2021-04-22 22:21:00.436 +0100|141728.89578025|-0.1591339111328125|0.8894195556640625|-0.4189300537109375|141728.87581925|-3.118821405430296|-0.5364768684093816|-1.068537993532159|0.1040085777640343|-0.1930217444896698|0.1586876809597015|0.07400922477245331|0.03112530708312988|-0.01785042881965637|XArbitraryZVertical|-0.2336739662080157|0.4883733763942698|-0.8282737304128807|0.1443976554153822|-0.2460520714521408|0.8764976263046265|-0.4137758314609528|0|0|0|-1|-1|3
2021-04-22 22:21:00.455 +0100|141728.91574025|-0.17108154296875|0.875701904296875|-0.359222412109375|141728.89578025|-3.11274790055952|-0.5362942020058957|-1.070613074598669|0.02113921195268631|-0.3049342632293701|0.116350345313549|0.08966642618179321|0.02587103843688965|-0.01279324293136597|XArbitraryZVertical|-0.2349526545648069|0.4885375920291662|-0.8273397335361007|0.1470968035608067|-0.2450466901063919|0.8774946928024292|-0.4122565388679504|0|0|0|-1|-1|3
2021-04-22 22:21:00.475 +0100|141728.93570025|-0.1597747802734375|0.9234466552734375|-0.3144073486328125|141728.91574025|-3.10721026953211|-0.5362813264296644|-1.072516771421479|-0.02217475697398186|-0.2151964455842972|0.1059321537613869|0.06820772588253021|0.00436025857925415|0.02549174427986145|XArbitraryZVertical|-0.2361839715461197|0.4886775197151241|-0.8264584310658396|0.1495926561819284|-0.2441873401403427|0.8784061074256897|-0.4108228385448456|0|0|0|-1|-1|3
2021-04-22 22:21:00.495 +0100|141728.95566025|-0.1790618896484375|0.9374542236328125|-0.3134002685546875|141728.93570025|-3.101327112175545|-0.5341565565415626|-1.073717688874287|0.06791217625141144|-0.1553969234228134|0.1036760061979294|0.08063676953315735|0.03204625844955444|0.08860853314399719|XArbitraryZVertical|-0.2366717764082737|0.4886411809341912|-0.8259680839482954|0.1516347911619006|-0.2427766621112823|0.8789793848991394|-0.4104325473308563|0|0|0|-1|-1|3
2021-04-22 22:21:00.515 +0100|141728.97562125|-0.1764068603515625|0.8983917236328125|-0.3749237060546875|141728.95566025|-3.093615417026379|-0.5295524154169657|-1.073133935756748|0.165208101272583|-0.1091607138514519|0.05748773738741875|0.06537757813930511|0.05258846282958984|0.1099095940589905|XArbitraryZVertical|-0.2366866629882078|0.4878371133229243|-0.8260698497594992|0.1536330983560769|-0.2411435842514038|0.878700852394104|-0.4119887351989746|0|0|0|-1|-1|3
2021-04-22 22:21:00.536 +0100|141728.99558125|-0.1910552978515625|0.85992431640625|-0.4028778076171875|141728.97562125|-3.084739771744028|-0.5233855080753604|-1.071131733005175|0.2005296051502228|-0.1505614221096039|0.04440309479832649|0.06410785019397736|0.03457927703857422|0.04923686385154724|XArbitraryZVertical|-0.2364117250833841|0.4864298818578601|-0.8266124520358422|0.155587291682588|-0.2394771426916122|0.8777433037757874|-0.4149909317493439|0|0|0|-1|-1|3
2021-04-22 22:21:00.555 +0100|141729.01554125|-0.167694091796875|0.852081298828125|-0.3929595947265625|141728.99558125|-3.077050256861317|-0.5191125911026032|-1.069064751136679|0.1822262406349182|-0.170064389705658|0.05932176858186722|0.04045063257217407|-0.0004087686538696289|0.01778832077980042|XArbitraryZVertical|-0.2366223558871899|0.4849922427213985|-0.8270317329259621|0.1575149881225875|-0.2386012971401215|0.8767510652542114|-0.4175847768783569|0|0|0|-1|-1|3
2021-04-22 22:21:00.575 +0100|141729.03550125|-0.211883544921875|0.8963470458984375|-0.3411712646484375|141729.01554125|-3.069904160744801|-0.5171577193706552|-1.069554911957344|0.1268943697214127|-0.2669732868671417|0.1273629516363144|0.07286866009235382|-0.02745401859283447|0.01514908671379089|XArbitraryZVertical|-0.2375212008399934|0.4845051655030589|-0.8265736820111452|0.1600452556756685|-0.23757204413414|0.8769867420196533|-0.4176768362522125|0|0|0|-1|-1|3
2021-04-22 22:21:00.595 +0100|141729.05546225|-0.2240142822265625|0.920654296875|-0.330078125|141729.03550125|-3.062721184600573|-0.5159002876479845|-1.07217597871319|0.0518549308180809|-0.2374292016029358|0.1427617073059082|0.02473019063472748|0.009344935417175293|0.06584528088569641|XArbitraryZVertical|-0.238612927893398|0.4848470960156628|-0.8254864372518383|0.1629705559437912|-0.2359118759632111|0.8782431483268738|-0.4159743189811707|0|0|0|-1|-1|3
2021-04-22 22:21:00.615 +0100|141729.07542225|-0.2283172607421875|0.922698974609375|-0.3402862548828125|141729.05546225|-3.057755473520848|-0.5157350623071141|-1.074996817373741|0.005891848355531693|-0.2092957198619843|0.08697034418582916|0.01323066651821136|0.03622829914093018|0.08418959379196167|XArbitraryZVertical|-0.2396131515525244|0.4854453880719732|-0.824389429709171|0.1652591741794311|-0.2346204966306686|0.8795886635780334|-0.4138566255569458|0|0|0|-1|-1|3
2021-04-22 22:21:00.635 +0100|141729.09538225|-0.2245025634765625|0.8775634765625|-0.3728485107421875|141729.07542225|-3.0526863981676|-0.5149507395860692|-1.075414528796869|0.1505102664232254|-0.1791838407516479|0.07722318172454834|0.003050893545150757|0.04658865928649902|0.08329060673713684|XArbitraryZVertical|-0.2405001371737734|0.4850766860686216|-0.8239568414225387|0.1671990135103887|-0.2341147810220718|0.879787266254425|-0.413720577955246|0|0|0|-1|-1|3
2021-04-22 22:21:00.655 +0100|141729.11534325|-0.213287353515625|0.838409423828125|-0.410980224609375|141729.09538225|-3.042864524499534|-0.5093946753306561|-1.072517399022929|0.3033597767353058|-0.1728203445672989|0.08615915477275848|0.009909883141517639|0.0136067271232605|0.05665704607963562|XArbitraryZVertical|-0.240718850094703|0.4831513613262506|-0.8245289984779129|0.1696206415843103|-0.2330544590950012|0.8784064054489136|-0.4172383844852448|0|0|0|-1|-1|3
2021-04-22 22:21:00.675 +0100|141729.13530325|-0.198516845703125|0.845855712890625|-0.4157562255859375|141729.11534325|-3.033085107995054|-0.5044849943683731|-1.069511019680246|0.2591427266597748|-0.2178009152412415|0.1122478321194649|0.01621405780315399|-0.02883678674697876|0.01422300934791565|XArbitraryZVertical|-0.2411789452326029|0.4811329890582076|-0.8250431574845478|0.1721847384100898|-0.2322785556316376|0.8769656419754028|-0.4206875264644623|0|0|0|-1|-1|3
2021-04-22 22:21:00.695 +0100|141729.15526325|-0.24664306640625|0.914886474609375|-0.3778839111328125|141729.13530325|-3.025921378595658|-0.5033599237007333|-1.06912315107606|0.1353024542331696|-0.2869426906108856|0.1309589445590973|0.0278828889131546|-0.03032869100570679|0.001156091690063477|XArbitraryZVertical|-0.2424521435511542|0.4802016413000385|-0.8246557357017811|0.1748326367967366|-0.2319692671298981|0.8767791986465454|-0.4212466776371002|0|0|0|-1|-1|3
2021-04-22 22:21:00.715 +0100|141729.17522325|-0.2518463134765625|0.9376678466796875|-0.3682403564453125|141729.15526325|-3.021141932602345|-0.5056570060848352|-1.070039497163089|0.1196492835879326|-0.29429030418396|0.07754559814929962|0.00143730640411377|0.02220946550369263|0.03795909881591797|XArbitraryZVertical|-0.2445101815742641|0.479802011748613|-0.8237235883186139|0.1774384137638793|-0.2325469851493835|0.8772194385528564|-0.4200096130371094|0|0|0|-1|-1|3
2021-04-22 22:21:00.735 +0100|141729.19518425|-0.2629852294921875|0.925994873046875|-0.383392333984375|141729.17522325|-3.017746447192735|-0.5082715264571652|-1.069417039935357|0.162482738494873|-0.2471152395009995|0.002779219299554825|-0.01985898613929749|0.04675465822219849|0.05516061186790466|XArbitraryZVertical|-0.2464243981770226|0.478890887631816|-0.8232571440942089|0.1794054762212149|-0.2339099943637848|0.8769204616546631|-0.4198770821094513|0|0|0|-1|-1|3
2021-04-22 22:21:00.755 +0100|141729.21514425|-0.26507568359375|0.8883056640625|-0.41864013671875|141729.19518425|-3.014600334857748|-0.5101493344030664|-1.066248383806203|0.2127969712018967|-0.2093709409236908|-0.04174386337399483|-0.01632681488990784|0.0575135350227356|0.04658421874046326|XArbitraryZVertical|-0.2480693016727483|0.4770028780999749|-0.8235418470861442|0.180855572100468|-0.2360536456108093|0.8753930926322937|-0.4218597412109375|0|0|0|-1|-1|3
2021-04-22 22:21:00.775 +0100|141729.23510425|-0.254180908203125|0.87066650390625|-0.42999267578125|141729.21514425|-3.010510474932299|-0.5101460854152486|-1.062257179919692|0.2181060612201691|-0.1846221834421158|-0.005808765068650246|-0.03319382667541504|0.02652150392532349|0.01700752973556519|XArbitraryZVertical|-0.249188784289462|0.4748176003870077|-0.8241769681438744|0.1821696570987364|-0.2377565950155258|0.8734567165374756|-0.4249064028263092|0|0|0|-1|-1|3
2021-04-22 22:21:00.795 +0100|141729.25506425|-0.2381744384765625|0.8763427734375|-0.429229736328125|141729.23510425|-3.005259890474151|-0.5096570400019002|-1.059901762158503|0.146647647023201|-0.2305954843759537|0.06996287405490875|-0.01379814743995667|0.005805015563964844|-0.006868958473205566|XArbitraryZVertical|-0.2503159675407283|0.4732159117207714|-0.8243497858547142|0.1840006099540051|-0.2385517954826355|0.8723074793815613|-0.4268172383308411|0|0|0|-1|-1|3
2021-04-22 22:21:00.815 +0100|141729.27502525|-0.2393646240234375|0.876434326171875|-0.4205322265625|141729.25506425|-3.001489332817347|-0.5113621519381687|-1.060381524388225|0.05227970331907272|-0.2540425360202789|0.1174022927880287|-0.008179172873497009|0.005646705627441406|-0.006344467401504517|XArbitraryZVertical|-0.2518935166573158|0.4727867275828013|-0.8236661417750116|0.1860014047490719|-0.2390743345022202|0.8725419640541077|-0.4260447323322296|0|0|0|-1|-1|3
2021-04-22 22:21:00.835 +0100|141729.29498525|-0.2299346923828125|0.85650634765625|-0.4150390625|141729.27502525|-2.997719123036303|-0.5138262178516624|-1.062370512199234|0.03332766517996788|-0.2716460824012756|0.129562184214592|-4.900991916656494e-05|0.002571046352386475|0.004858642816543579|XArbitraryZVertical|-0.2537305358743627|0.4729162129571641|-0.8225007671717568|0.1883179161094881|-0.2392699271440506|0.8735119104385376|-0.4239421486854553|0|0|0|-1|-1|3
2021-04-22 22:21:00.855 +0100|141729.31494525|-0.215087890625|0.8409576416015625|-0.403778076171875|141729.29498525|-2.992648325368734|-0.5150968429587027|-1.06313723103908|0.09216052293777466|-0.2520115673542023|0.1541102379560471|0.007300630211830139|-0.01341164112091064|0.006244957447052002|XArbitraryZVertical|-0.2554253571207816|0.4724726617821822|-0.8216650629020626|0.1907726271157509|-0.2394784837961197|0.873884916305542|-0.4230549335479736|0|0|0|-1|-1|3
2021-04-22 22:21:00.875 +0100|141729.33490625|-0.2192840576171875|0.8225555419921875|-0.4046630859375|141729.31494525|-2.984916900059301|-0.5133421710992413|-1.062390925542865|0.1578204482793808|-0.2330790460109711|0.1507980674505234|0.03057503700256348|-0.02937531471252441|0.02105727791786194|XArbitraryZVertical|-0.2565530565692156|0.4713377073089605|-0.8213356354142627|0.1934666755332902|-0.2390560507774353|0.8735218644142151|-0.4240425825119019|0|0|0|-1|-1|3
2021-04-22 22:21:00.894 +0100|141729.35486625|-0.2192535400390625|0.8264617919921875|-0.4137725830078125|141729.33490625|-2.977017338357885|-0.5106901547693564|-1.060509324351628|0.1849449276924133|-0.1920219361782074|0.1073232069611549|0.01519215106964111|-0.05223113298416138|0.02783757448196411|XArbitraryZVertical|-0.2573797741363196|0.4697888340438611|-0.8213830328968182|0.195919064198659|-0.2387335747480392|0.8726043701171875|-0.4261082112789154|0|0|0|-1|-1|3
2021-04-22 22:21:00.915 +0100|141729.37482625|-0.24261474609375|0.839996337890625|-0.40362548828125|141729.35486625|-2.970687472864684|-0.5089792220937807|-1.058478209804555|0.1440053880214691|-0.1914304494857788|0.0503145158290863|0.02637316286563873|-0.05067288875579834|0.01297688484191895|XArbitraryZVertical|-0.2582194861729258|0.4682856177802543|-0.8214933812555005|0.1979390521585428|-0.2388671785593033|0.8716105222702026|-0.4280625581741333|0|0|0|-1|-1|3
2021-04-22 22:21:00.935 +0100|141729.39478625|-0.2586669921875|0.886016845703125|-0.40185546875|141729.37482625|-2.968351453088016|-0.5105296078527757|-1.056828299039956|0.08185851573944092|-0.1647736430168152|-0.03464005514979362|0.001814290881156921|-0.03057575225830078|0.02106240391731262|XArbitraryZVertical|-0.259447886532892|0.4671336147094264|-0.8214776823059705|0.1991167941059913|-0.2402330040931702|0.8708005547523499|-0.4289459586143494|0|0|0|-1|-1|3
2021-04-22 22:21:00.954 +0100|141729.41474725|-0.2979736328125|0.9199676513671875|-0.411407470703125|141729.39478625|-2.96810322094643|-0.5132655596105448|-1.055011452922587|0.1084287986159325|-0.1421509981155396|-0.07461366057395935|-0.01305182278156281|-0.001696527004241943|0.03176027536392212|XArbitraryZVertical|-0.2606793279735318|0.4660622567926538|-0.8215553357938687|0.1996974781060339|-0.2421820759773254|0.8699058890342712|-0.4296645224094391|0|0|0|-1|-1|3
2021-04-22 22:21:00.974 +0100|141729.43470725|-0.3028106689453125|0.9226531982421875|-0.4228515625|141729.41474725|-2.968607969817746|-0.5167263863865252|-1.052731670149825|0.08669181913137436|-0.1424519866704941|-0.07222906500101089|-0.04121147096157074|0.04067474603652954|0.02164116501808167|XArbitraryZVertical|-0.2620466348081973|0.4648204269651664|-0.8217275853785549|0.2000934937141828|-0.244646817445755|0.868779182434082|-0.4305470585823059|0|0|0|-1|-1|3
2021-04-22 22:21:00.994 +0100|141729.45466725|-0.289947509765625|0.9214935302734375|-0.4270782470703125|141729.43470725|-2.968893806896394|-0.5195050076675002|-1.051170727621183|0.03452930226922035|-0.1443286687135696|-0.04895667731761932|-0.06003409624099731|0.06474894285202026|0.00896802544593811|XArbitraryZVertical|-0.2631656353095139|0.4639210306942074|-0.8217836061438752|0.2004816394814147|-0.2465151101350784|0.8680051565170288|-0.4310422539710999|0|0|0|-1|-1|3
2021-04-22 22:21:01.014 +0100|141729.47462725|-0.2802886962890625|0.8982086181640625|-0.44366455078125|141729.45466725|-2.968811964732282|-0.5223327645702253|-1.050363008270751|0.05648357048630714|-0.1579181253910065|0.007649342063814402|-0.04741907119750977|0.06077098846435547|0.0071524977684021|XArbitraryZVertical|-0.2643692200723508|0.4632854728188312|-0.8216052571773181|0.2010979771597654|-0.2480827420949936|0.8676037788391113|-0.4309509694576263|0|0|0|-1|-1|3
2021-04-22 22:21:01.034 +0100|141729.49458825|-0.2709197998046875|0.8846282958984375|-0.464202880859375|141729.47462725|-2.967276853400529|-0.524810004755961|-1.050225905679587|0.03644870966672897|-0.2076484560966492|0.05903370305895805|-0.03355155885219574|0.03547924757003784|-0.003736317157745361|XArbitraryZVertical|-0.2657458696838527|0.4627742766733974|-0.8211567093489395|0.2022895093421224|-0.2492092400789261|0.8675355911254883|-0.4304381906986237|0|0|0|-1|-1|3
2021-04-22 22:21:01.054 +0100|141729.51454825|-0.2784423828125|0.8980255126953125|-0.4524993896484375|141729.49458825|-2.965616381720773|-0.5287117681173829|-1.051471012959422|-0.04589799419045448|-0.2954160869121552|0.09944726526737213|-0.01537507772445679|0.01586329936981201|-0.0349876880645752|XArbitraryZVertical|-0.2676955668644642|0.4626817326515933|-0.8201549613754815|0.2039869102533013|-0.2503416538238525|0.8681542277336121|-0.4285293817520142|0|0|0|-1|-1|3
2021-04-22 22:21:01.074 +0100|141729.53450825|-0.28546142578125|0.9066925048828125|-0.44244384765625|141729.53450825|-2.961566969778684|-0.5376065105466018|-1.056490512610354|-0.05441829562187195|-0.2795823514461517|0.1384204924106598|-0.03132510185241699|0.03825491666793823|-0.02039551734924316|XArbitraryZVertical|-0.2721289462207995|0.4633325897108041|-0.8172737724174518|0.2081646915949865|-0.2519087195396423|0.8706344366073608|-0.4225375056266785|0|0|0|-1|-1|3
2021-04-22 22:21:01.094 +0100|141729.55446925|-0.2760772705078125|0.899322509765625|-0.45428466796875||||||||||||||||||||||||3
2021-04-22 22:21:01.114 +0100|141729.57442925|-0.267547607421875|0.862213134765625|-0.4517364501953125|141729.55446925|-2.95888658639779|-0.540698277328137|-1.058580419492592|-0.03616840392351151|-0.2501873373985291|0.1168534159660339|-0.02743226289749146|0.03106421232223511|-0.02589583396911621|XArbitraryZVertical|-0.2739514229298996|0.4635220973658191|-0.8160436136106626|0.2101688584673684|-0.2522768080234528|0.871660590171814|-0.4201957583427429|0|0|0|-1|-1|3
2021-04-22 22:21:01.134 +0100|141729.59438925|-0.285369873046875|0.8799896240234375|-0.4141693115234375|141729.57442925|-2.955728728666724|-0.5429854466591016|-1.059988807410598|-0.05339063331484795|-0.2580335140228271|0.1095563545823097|-0.01023027300834656|-0.005071401596069336|-0.03903064131736755|XArbitraryZVertical|-0.2755749637683624|0.463438708880232|-0.815039536131946|0.212117001349706|-0.2526025176048279|0.8723500370979309|-0.4185660183429718|0|0|0|-1|-1|3
2021-04-22 22:21:01.154 +0100|141729.61434925|-0.3072509765625|0.91094970703125|-0.390289306640625|141729.59438925|-2.95197152756078|-0.5442194962973784|-1.061058026403936|0.00870952196419239|-0.1819124817848206|0.1473175883293152|-0.03139141201972961|-0.0003139376640319824|-0.006800413131713867|XArbitraryZVertical|-0.2769173769417484|0.4632373085440522|-0.814198060638581|0.2140320668900889|-0.2526358962059021|0.8728722333908081|-0.4174559116363525|0|0|0|-1|-1|3
2021-04-22 22:21:01.174 +0100|141729.63431025|-0.330902099609375|0.950103759765625|-0.3736419677734375|141729.61434925|-2.945846398834241|-0.5417736130873165|-1.061601264604106|0.06713607907295227|-0.09864793717861176|0.16035296022892|-0.04866421222686768|0.03520292043685913|0.02475154399871826|XArbitraryZVertical|-0.277325096720345|0.4628797320547186|-0.8137406163803824|0.2160083989205918|-0.2513695657253265|0.8731371760368347|-0.4176662862300873|0|0|0|-1|-1|3
2021-04-22 22:21:01.194 +0100|141729.65427025|-0.3533935546875|0.974578857421875|-0.378082275390625|141729.63431025|-2.939497586735975|-0.5373192085515826|-1.061438172396968|0.09550511091947556|-0.00229306984692812|0.1409512907266617|-0.07567706704139709|0.06683766841888428|0.04024112224578857|XArbitraryZVertical|-0.2769856102061987|0.4624141960754833|-0.8137112013016157|0.2175463920454777|-0.2495795041322708|0.8730576634407043|-0.4189041554927826|0|0|0|-1|-1|3
2021-04-22 22:21:01.213 +0100|141729.67423025|-0.3536834716796875|0.9534454345703125|-0.412200927734375|141729.65427025|-2.931177929441672|-0.5291145648696169|-1.05966535119926|0.212309792637825|0.1003791391849518|0.158541202545166|-0.1014586538076401|0.09985363483428955|0.05004927515983582|XArbitraryZVertical|-0.275609171008154|0.4614142049303738|-0.8143876874401617|0.2188819370428682|-0.2469149678945541|0.872191846370697|-0.4222730398178101|0|0|0|-1|-1|3
2021-04-22 22:21:01.233 +0100|141729.69419125|-0.349609375|0.9130096435546875|-0.4308929443359375|141729.67423025|-2.920324946172043|-0.5172446435102644|-1.056675867136582|0.2732854783535004|0.1551089584827423|0.2119747847318649|-0.1108609884977341|0.08725130558013916|0.02565848827362061|XArbitraryZVertical|-0.2733318882373882|0.4599678218664638|-0.8155855926621572|0.2203170172678157|-0.2431736290454865|0.8707255721092224|-0.4274385571479797|0|0|0|-1|-1|3
2021-04-22 22:21:01.253 +0100|141729.71415125|-0.330474853515625|0.89306640625|-0.42645263671875|141729.69419125|-2.909139930492376|-0.5047479207056345|-1.055065028328311|0.2077510505914688|0.1793786734342575|0.2665441036224365|-0.1143685579299927|0.04745620489120483|0.002623558044433594|XArbitraryZVertical|-0.2708288352801872|0.4591472622901588|-0.8164590675698484|0.2218789004086271|-0.2384911328554153|0.8699322938919067|-0.4316710531711578|0|0|0|-1|-1|3
2021-04-22 22:21:01.273 +0100|141729.73411125|-0.323028564453125|0.898956298828125|-0.413543701171875|141729.71415125|-2.89828978123317|-0.4927143831280332|-1.05537044867853|0.1577251702547073|0.1704449355602264|0.3294574022293091|-0.09828250110149384|0.0230289101600647|0.002023816108703613|XArbitraryZVertical|-0.2684025990809765|0.4591538053654265|-0.816795264094798|0.2235700707649202|-0.2331538498401642|0.8700828552246094|-0.4342756569385529|0|0|0|-1|-1|3
2021-04-22 22:21:01.293 +0100|141729.75407125|-0.3014984130859375|0.8981781005859375|-0.4027862548828125|141729.73411125|-2.886825120574443|-0.4802762812539302|-1.05705598204653|0.1409998834133148|0.1929647326469421|0.3826711475849152|-0.1035711616277695|0.02860802412033081|0.02244871854782104|XArbitraryZVertical|-0.2659429955480599|0.4597324942266326|-0.8167388997212988|0.2255175635179603|-0.227056473493576|0.8709124326705933|-0.4358407258987427|0|0|0|-1|-1|3
2021-04-22 22:21:01.313 +0100|141729.77403225|-0.271453857421875|0.8572845458984375|-0.4239959716796875|141729.75407125|-2.873744338961643|-0.4661730532450717|-1.05828951735443|0.195542573928833|0.2131057977676392|0.4094360172748566|-0.08408509194850922|0.02748358249664307|0.03671702742576599|XArbitraryZVertical|-0.2631866467172307|0.460122957205385|-0.816806031460923|0.2277007355249691|-0.2204042077064514|0.8715180158615112|-0.4380393028259277|0|0|0|-1|-1|3
2021-04-22 22:21:01.333 +0100|141729.7939914167|-0.2435150146484375|0.8197479248046875|-0.4404449462890625|141729.77403225|-2.856711257706593|-0.447395721528213|-1.057671757572571|0.2481939047574997|0.2346953004598618|0.4123775660991669|-0.06670990586280823|-0.002746105194091797|0.02305981516838074|XArbitraryZVertical|-0.2594311311441424|0.459785368268487|-0.8174678300753877|0.2303027611467293|-0.2123735249042511|0.8712149262428284|-0.4425857961177826|0|0|0|-1|-1|3
2021-04-22 22:21:01.353 +0100|141729.8139514167|-0.2277374267578125|0.8048095703125|-0.4339752197265625|141729.7939914167|-2.841702837528955|-0.4306951032960405|-1.056019402826945|0.251039981842041|0.2424056828022003|0.3941174149513245|-0.04488915205001831|-0.0390583872795105|0.00870242714881897|XArbitraryZVertical|-0.2560374382862144|0.4590814124017146|-0.8183083309784349|0.2325095217097444|-0.2055535316467285|0.8704025745391846|-0.4473781883716583|0|0|0|-1|-1|3
2021-04-22 22:21:01.373 +0100|141729.8339114167|-0.196441650390625|0.79791259765625|-0.4069366455078125|141729.8139514167|-2.828395035904304|-0.4155449914526254|-1.054720607327237|0.2087264806032181|0.2425974756479263|0.3562954664230347|-0.03374747931957245|-0.06219124794006348|0.01096808910369873|XArbitraryZVertical|-0.252873167985359|0.4586040393307367|-0.8190165751788547|0.2344135029591367|-0.199208676815033|0.8697623610496521|-0.4514749944210052|0|0|0|-1|-1|3
2021-04-22 22:21:01.393 +0100|141729.8538724167|-0.179840087890625|0.8062591552734375|-0.3866729736328125|141729.8339114167|-2.817247982279322|-0.4022924710059668|-1.054575714430952|0.1312032639980316|0.2284487932920456|0.3234409391880035|-0.009135276079177856|-0.07405227422714233|0.03889179229736328|XArbitraryZVertical|-0.2499987213404218|0.4586993125933179|-0.8194091013179947|0.2359334006825917|-0.1932574808597565|0.8696908950805664|-0.4541911482810974|0|0|0|-1|-1|3
2021-04-22 22:21:01.413 +0100|141729.8738324167|-0.15509033203125|0.8077392578125|-0.395477294921875|141729.8538724167|-2.808288011546732|-0.390991395327169|-1.055130967241131|0.07954175025224686|0.2314170002937317|0.2781148254871368|0.004074960947036743|-0.06430119276046753|0.06858476996421814|XArbitraryZVertical|-0.2474353731222191|0.4591579300029308|-0.8196120333833452|0.237035808838492|-0.1879282742738724|0.8699648380279541|-0.4558994770050049|0|0|0|-1|-1|3
2021-04-22 22:21:01.433 +0100|141729.8937924167|-0.1391448974609375|0.798736572265625|-0.4098663330078125|141729.8738324167|-2.799767850325386|-0.3798660718081115|-1.055210974839731|0.09027189761400223|0.2165010571479797|0.2516333162784576|0.02672132849693298|-0.05842024087905884|0.06379243731498718|XArbitraryZVertical|-0.2448338003775459|0.4594646456831136|-0.8199487809245594|0.2379763631270615|-0.1828189045190811|0.8700042963027954|-0.4578973054885864|0|0|0|-1|-1|3
2021-04-22 22:21:01.453 +0100|141729.9137534167|-0.1209869384765625|0.8009796142578125|-0.4161224365234375|141729.8937924167|-2.791621769514735|-0.3690616084950021|-1.054415688769321|0.1071460619568825|0.206286609172821|0.2226119786500931|0.03002381324768066|-0.06683218479156494|0.05495727062225342|XArbitraryZVertical|-0.2422526800677234|0.4594215412128039|-0.8204981998314194|0.2388059971585136|-0.1781105399131775|0.8696118593215942|-0.4604909718036652|0|0|0|-1|-1|3
2021-04-22 22:21:01.473 +0100|141729.9337134167|-0.1132965087890625|0.8165435791015625|-0.392974853515625|141729.9137534167|-2.78364881373315|-0.3586278684148717|-1.053937007887255|0.06505701690912247|0.1743519455194473|0.1783798933029175|0.04851849377155304|-0.07202780246734619|0.04668223857879639|XArbitraryZVertical|-0.2397883873535768|0.4595046771860276|-0.820925011505631|0.2396648052799254|-0.1734423786401749|0.869375467300415|-0.4627139568328857|0|0|0|-1|-1|3
2021-04-22 22:21:01.493 +0100|141729.9536734167|-0.0713958740234375|0.8142547607421875|-0.3957366943359375|141729.9337134167|-2.778117310895211|-0.3509536925669922|-1.054486905819123|-0.006086118519306183|0.1314026713371277|0.09684677422046661|0.05482317507266998|-0.05961936712265015|0.0654187798500061|XArbitraryZVertical|-0.2379277038801263|0.4599990738385701|-0.8210366406322153|0.2401881968861609|-0.1697220355272293|0.8696470260620117|-0.4635825157165527|0|0|0|-1|-1|3
2021-04-22 22:21:01.513 +0100|141729.9736334167|-0.06488037109375|0.8218231201171875|-0.419891357421875|141729.9536734167|-2.775544827203308|-0.3465944475671899|-1.054933864074772|0.0005672404076904058|0.06835350394248962|0.04454983398318291|0.08715346455574036|-0.05282074213027954|0.07099208235740662|XArbitraryZVertical|-0.2367452896467165|0.4604079546748404|-0.8211299801056895|0.2402541072082738|-0.1675675064325333|0.8698676228523254|-0.463952362537384|0|0|0|-1|-1|3
2021-04-22 22:21:01.533 +0100|141729.9935944167|-0.069580078125|0.8435516357421875|-0.452117919921875|141729.9736334167|-2.774414439564383|-0.3448746340216403|-1.055305213084322|-0.02379056438803673|0.0009001670405268669|0.02224373072385788|0.0980411022901535|-0.05182915925979614|0.05141338706016541|XArbitraryZVertical|-0.2363125047992331|0.4606393482625793|-0.821101785584272|0.2403324870499793|-0.1666600406169891|0.8700507283210754|-0.4639355838298798|0|0|0|-1|-1|3
2021-04-22 22:21:01.553 +0100|141730.0135544167|-0.0792388916015625|0.8727569580078125|-0.4582061767578125|141729.9935944167|-2.774872022061759|-0.3460218299770504|-1.056136613056945|-0.05745205283164978|-0.07605863362550735|-0.01686576753854752|0.09814473986625671|-0.03078478574752808|0.01697200536727905|XArbitraryZVertical|-0.2367071376289449|0.4609099160674053|-0.8208071581239101|0.2404320359183078|-0.1669468134641647|0.8704602718353271|-0.4630635678768158|0|0|0|-1|-1|3
2021-04-22 22:21:01.573 +0100|141730.0335144167|-0.0902557373046875|0.8879852294921875|-0.4688873291015625|141730.0135544167|-2.777099767775128|-0.3501128476830644|-1.056787488111427|-0.03080191649496555|-0.1407241821289062|-0.0687628760933876|0.09648643434047699|-0.00087738037109375|0.002645492553710938|XArbitraryZVertical|-0.2378946868476578|0.4609597824214743|-0.8204218731172521|0.2404793093189997|-0.1686454266309738|0.8707804679870605|-0.4618443846702576|0|0|0|-1|-1|3
2021-04-22 22:21:01.594 +0100|141730.0534754167|-0.0901947021484375|0.8912353515625|-0.4714508056640625|141730.0335144167|-2.780216534560899|-0.3556027012523305|-1.056002383901047|0.04803743585944176|-0.1435106992721558|-0.1002116128802299|0.07829171419143677|0.01626306772232056|-0.002880305051803589|XArbitraryZVertical|-0.2394026277566583|0.4603370934142489|-0.8203437918731279|0.2404418900976476|-0.1714162826538086|0.8703941702842712|-0.4615522921085358|0|0|0|-1|-1|3
2021-04-22 22:21:01.613 +0100|141730.0734354167|-0.0757598876953125|0.87542724609375|-0.46710205078125|141730.0534754167|-2.781601135190748|-0.3595818494720449|-1.054317748747566|0.09824829548597336|-0.162642315030098|-0.1085857376456261|0.08331295847892761|0.02461636066436768|-0.009548842906951904|XArbitraryZVertical|-0.2406622777329944|0.4593064449871747|-0.8204666312346057|0.2407363087391027|-0.1737672537565231|0.8695635199546814|-0.4622385203838348|0|0|0|-1|-1|3
2021-04-22 22:21:01.633 +0100|141730.0933954167|-0.0716400146484375|0.85015869140625|-0.4784088134765625|141730.0734354167|-2.780512532808178|-0.3611622127384231|-1.052573124392588|0.08452635258436203|-0.1893956363201141|-0.0900578647851944|0.09696917235851288|0.01614081859588623|-0.005857467651367188|XArbitraryZVertical|-0.2415046649077553|0.4582408165497998|-0.8205934551178092|0.241489817555481|-0.1750333160161972|0.8687006831169128|-0.4633817076683044|0|0|0|-1|-1|3
2021-04-22 22:21:01.653 +0100|141730.1133554167|-0.08660888671875|0.8432464599609375|-0.4979705810546875|141730.0933954167|-2.779047381142543|-0.3627818045960172|-1.051402676259472|0.05443260446190834|-0.2014850527048111|-0.06155760586261749|0.1019863486289978|-0.01323187351226807|-0.007281750440597534|XArbitraryZVertical|-0.2424669805058392|0.4573683943136401|-0.8205208980899996|0.2424240438182581|-0.1761442571878433|0.8681203126907349|-0.4640478193759918|0|0|0|-1|-1|3
2021-04-22 22:21:01.673 +0100|141730.1333164167|-0.1014404296875|0.8642578125|-0.4860687255859375|141730.1133554167|-2.777597927809379|-0.3648491849518157|-1.051306834368055|-0.003957586828619242|-0.205654501914978|-0.03534765914082527|0.09804651141166687|-0.02623045444488525|-0.03178471326828003|XArbitraryZVertical|-0.2436431357331067|0.4569001173968526|-0.8201183674756187|0.2434880230474327|-0.1771330088376999|0.8680727481842041|-0.4637606143951416|0|0|0|-1|-1|3
2021-04-22 22:21:01.693 +0100|141730.1532764167|-0.1202545166015625|0.8918304443359375|-0.458099365234375|141730.1333164167|-2.776661964740426|-0.3671218830366286|-1.051997625780183|-0.02190424501895905|-0.1870145052671432|-0.05365653708577156|0.07776659727096558|-0.007026731967926025|-0.02568346261978149|XArbitraryZVertical|-0.2448107597385809|0.4568032075290878|-0.8195491851116612|0.2444134034597809|-0.1779712587594986|0.8684154748916626|-0.4627970457077026|0|0|0|-1|-1|3
2021-04-22 22:21:01.713 +0100|141730.1732364167|-0.1403656005859375|0.8963470458984375|-0.438018798828125|141730.1532764167|-2.776378868391919|-0.3696052960975792|-1.052130530695504|0.02253255993127823|-0.1743060052394867|-0.0949058011174202|0.06747528910636902|0.01780968904495239|-0.001866310834884644|XArbitraryZVertical|-0.2458970643644367|0.4565213161747612|-0.8191755700809006|0.2451007862682564|-0.1790782660245895|0.8684813380241394|-0.4622458517551422|0|0|0|-1|-1|3
2021-04-22 22:21:01.733 +0100|141730.1931964167|-0.13812255859375|0.8741455078125|-0.4458160400390625|141730.1732364167|-2.776423820076927|-0.3716535338726231|-1.050735149790629|0.08253459632396698|-0.1326131075620651|-0.1303070038557053|0.04275386035442352|0.02156931161880493|0.01966178417205811|XArbitraryZVertical|-0.2466815348960574|0.4556806071034217|-0.8192874996771984|0.2455026274587802|-0.1804646253585815|0.8677887916564941|-0.4630067944526672|0|0|0|-1|-1|3
2021-04-22 22:21:01.753 +0100|141730.2131574167|-0.151336669921875|0.860137939453125|-0.4543914794921875|141730.1931964167|-2.775664709564786|-0.3721702903505894|-1.047574418896034|0.1404325664043427|-0.1071931198239326|-0.1269780695438385|0.0404648631811142|0.01272261142730713|0.0250968337059021|XArbitraryZVertical|-0.2469655368746145|0.4541748983800666|-0.8199414750456873|0.2458239830805093|-0.1817004084587097|0.8662137985229492|-0.4654663801193237|0|0|0|-1|-1|3
2021-04-22 22:21:01.773 +0100|141730.2331174167|-0.181793212890625|0.857177734375|-0.4510955810546875|141730.2131574167|-2.775263491452307|-0.3733080194766308|-1.044524827710544|0.09094811975955963|-0.1361175030469894|-0.1219729259610176|0.04040035605430603|-0.004838407039642334|0.01581147313117981|XArbitraryZVertical|-0.2474255814750659|0.4526834318032987|-0.8205317927695694|0.2461419995335782|-0.1831922978162766|0.8646859526634216|-0.4677165746688843|0|0|0|-1|-1|3
2021-04-22 22:21:01.793 +0100|141730.2530774167|-0.2036590576171875|0.89093017578125|-0.438079833984375|141730.2331174167|-2.776536971346964|-0.3766527489111037|-1.043484854288518|-0.00500643951818347|-0.1603019833564758|-0.1176290437579155|0.008374139666557312|-0.008648991584777832|0.01345348358154297|XArbitraryZVertical|-0.2484767854904003|0.4519851728046606|-0.8205398355428259|0.2463397374127804|-0.1850863844156265|0.8641631007194519|-0.4679373800754547|0|0|0|-1|-1|3
2021-04-22 22:21:01.813 +0100|141730.2730384167|-0.238311767578125|0.9122314453125|-0.41961669921875|141730.2530774167|-2.779614570316539|-0.3824028366750291|-1.044112373874344|-0.03427676111459732|-0.1873564571142197|-0.101694367825985|-0.01064024865627289|0.02201074361801147|0.02312403917312622|XArbitraryZVertical|-0.2501589469706616|0.4519285161600379|-0.8200418379901377|0.2463995700522317|-0.1875716149806976|0.8644787073135376|-0.4663622379302979|0|0|0|-1|-1|3
2021-04-22 22:21:01.833 +0100|141730.2929984167|-0.2375946044921875|0.9039306640625|-0.437896728515625|141730.2730384167|-2.781707178426931|-0.3876038663456148|-1.044520329592055|0.04396679624915123|-0.1755722314119339|-0.06298248469829559|-0.04144686460494995|0.04460239410400391|0.04389512538909912|XArbitraryZVertical|-0.2518300788719802|0.4517241295296198|-0.8195428218230624|0.2467321535098987|-0.1898613274097443|0.8646836876869202|-0.4650538563728333|0|0|0|-1|-1|3
2021-04-22 22:21:01.853 +0100|141730.3129584167|-0.2559814453125|0.873046875|-0.4561614990234375|141730.2929984167|-2.779340354313921|-0.3883945226991213|-1.042603741720179|0.1869364827871323|-0.1657574772834778|0.01192265003919601|-0.04823395609855652|0.04211819171905518|0.03163647651672363|XArbitraryZVertical|-0.2526321556887323|0.4505094007643092|-0.8196403139373588|0.247807005302081|-0.1908562332391739|0.8637193441390991|-0.4664365351200104|0|0|0|-1|-1|3
2021-04-22 22:21:01.873 +0100|141730.3329184167|-0.2579345703125|0.8404998779296875|-0.4637451171875|141730.3129584167|-2.774462415327188|-0.3873077289456592|-1.039221281329078|0.2318201810121536|-0.1637108325958252|0.05036014318466187|-0.06204299628734589|0.01971882581710815|0.01811212301254272|XArbitraryZVertical|-0.2531814058296193|0.4485824904306941|-0.8200339704934575|0.2494338017790243|-0.1914514303207397|0.8620097637176514|-0.4693458378314972|0|0|0|-1|-1|3
2021-04-22 22:21:01.892 +0100|141730.3528794167|-0.2681427001953125|0.825103759765625|-0.4453887939453125|141730.3329184167|-2.769255872748299|-0.3862504314624969|-1.036349842683083|0.1890933662652969|-0.1646123081445694|0.07828782498836517|-0.06401851773262024|-0.01258969306945801|0.01085501909255981|XArbitraryZVertical|-0.253822927402748|0.4468269715256366|-0.8202473795248502|0.2512251334163811|-0.1918868571519852|0.8605507016181946|-0.4718391597270966|0|0|0|-1|-1|3
2021-04-22 22:21:01.912 +0100|141730.3728394167|-0.2647247314453125|0.8160400390625|-0.433074951171875|141730.3528794167|-2.765074891668165|-0.3862640742284861|-1.034937992412929|0.1355732828378677|-0.1454053223133087|0.09526529908180237|-0.07377797365188599|-0.03162986040115356|0.02168196439743042|XArbitraryZVertical|-0.2547152773142305|0.4456897866297834|-0.8200775334521703|0.2528908707181468|-0.1923507899045944|0.8598306775093079|-0.4729614853858948|0|0|0|-1|-1|3
2021-04-22 22:21:01.932 +0100|141730.3927994167|-0.2750244140625|0.810699462890625|-0.4384613037109375|141730.3728394167|-2.761803122122128|-0.3866235210894601|-1.034524688876914|0.08518069237470627|-0.1117908507585526|0.09703133255243301|-0.07329091429710388|-0.04559415578842163|0.03767359256744385|XArbitraryZVertical|-0.2555773575875387|0.4450500330780875|-0.8197217857140876|0.2542971455504013|-0.1926547437906265|0.8596196174621582|-0.4732213616371155|0|0|0|-1|-1|3
2021-04-22 22:21:01.953 +0100|141730.4127604167|-0.27081298828125|0.8168792724609375|-0.4605712890625|141730.3927994167|-2.759843766193674|-0.3874389214359097|-1.034576490696118|0.01736466214060783|-0.07039611786603928|0.07769891619682312|-0.08128371834754944|-0.0436369776725769|0.03886377811431885|XArbitraryZVertical|-0.256349082941575|0.4447175135559603|-0.8193547213189264|0.2552832969250012|-0.193023756146431|0.8596460819244385|-0.4730229675769806|0|0|0|-1|-1|3
2021-04-22 22:21:01.972 +0100|141730.4327204167|-0.27435302734375|0.84295654296875|-0.4694366455078125|141730.4127604167|-2.760217298732283|-0.3895679105852457|-1.035407908006166|-0.07108036428689957|-0.04201987013220787|0.04816782847046852|-0.07664242386817932|-0.04425990581512451|0.01967805624008179|XArbitraryZVertical|-0.2571662357086844|0.4448492241781344|-0.8189175743508214|0.2556339422879957|-0.1937587708234787|0.860070526599884|-0.4719493985176086|0|0|0|-1|-1|3
2021-04-22 22:21:01.992 +0100|141730.4526804167|-0.28125|0.8784027099609375|-0.4762115478515625|141730.4327204167|-2.7633080332773|-0.3935741869143193|-1.037066831883314|-0.1455650627613068|-0.02279823832213879|0.005772168282419443|-0.07896268367767334|-0.025054931640625|0.0001543164253234863|XArbitraryZVertical|-0.2581731187332876|0.4454447449531992|-0.8183742845564903|0.2553221693754938|-0.1951006501913071|0.8609156608581543|-0.4698512256145477|0|0|0|-1|-1|3
2021-04-22 22:21:02.012 +0100|141730.4726404167|-0.273895263671875|0.90203857421875|-0.4897918701171875|141730.4526804167|-2.769075855393962|-0.3996367192328245|-1.039338666154489|-0.1567310243844986|-0.005395225714892149|-0.04199215769767761|-0.08489024639129639|0.00987851619720459|-0.008394449949264526|XArbitraryZVertical|-0.2594382751692155|0.4463893653867036|-0.8177455336636338|0.2544023975660554|-0.1971839368343353|0.8620692491531372|-0.4668566286563873|0|0|0|-1|-1|3
2021-04-22 22:21:02.032 +0100|141730.4926014167|-0.2655487060546875|0.913330078125|-0.5034942626953125|141730.4726404167|-2.775926192376962|-0.4062541120810228|-1.040936832984581|-0.1090196743607521|0.01475547440350056|-0.06246503069996834|-0.07681091129779816|0.03726798295974731|-0.02382344007492065|XArbitraryZVertical|-0.2606596178878831|0.4471227775759865|-0.8173465650848802|0.2531453870468181|-0.1997243463993073|0.8628780841827393|-0.4642755687236786|0|0|0|-1|-1|3
2021-04-22 22:21:02.052 +0100|141730.5125614167|-0.2533111572265625|0.9122161865234375|-0.526153564453125|141730.4926014167|-2.782035891011134|-0.4118260173715566|-1.041193515007154|-0.05219797044992447|0.03327658772468567|-0.05693648755550385|-0.06554199755191803|0.05068802833557129|-0.0334625244140625|XArbitraryZVertical|-0.2615773838138407|0.4473265187222756|-0.8173249528708523|0.2519054605359236|-0.2022194564342499|0.8630077838897705|-0.4629525244235992|0|0|0|-1|-1|3
2021-04-22 22:21:02.072 +0100|141730.5325214167|-0.2417449951171875|0.8983917236328125|-0.5455169677734375|141730.5125614167|-2.786215993708453|-0.415476275527727|-1.040673273943943|-0.03748900070786476|0.02429097890853882|-0.02672842890024185|-0.04697918891906738|0.04731935262680054|-0.05504867434501648|XArbitraryZVertical|-0.2621213625762946|0.4471928747755828|-0.8175052746783609|0.2509902045282194|-0.2040891349315643|0.8627448678016663|-0.4626218378543854|0|0|0|-1|-1|3
2021-04-22 22:21:02.092 +0100|141730.5524824167|-0.225982666015625|0.9124908447265625|-0.5447845458984375|141730.5325214167|-2.789510476603327|-0.4184407329455767|-1.041155800853787|-0.09341249614953995|0.02000626921653748|0.01735958270728588|-0.04162745177745819|0.03532624244689941|-0.08452421426773071|XArbitraryZVertical|-0.2626077413650893|0.4474594176163346|-0.817406224776186|0.2503287100642587|-0.2052905261516571|0.8629887700080872|-0.461634486913681|0|0|0|-1|-1|3
2021-04-22 22:21:02.112 +0100|141730.5724424167|-0.206787109375|0.9108734130859375|-0.545196533203125|141730.5524824167|-2.791387401801832|-0.4200761359580215|-1.042633460691845|-0.07935535162687302|0.03620947897434235|0.06758759915828705|-0.02764488756656647|0.04695546627044678|-0.08475896716117859|XArbitraryZVertical|-0.2628898928866207|0.4481319912975296|-0.8170486632981167|0.2499964073016601|-0.2055248916149139|0.8637343645095825|-0.4601332545280457|0|0|0|-1|-1|3
2021-04-22 22:21:02.132 +0100|141730.5924024167|-0.199188232421875|0.8922882080078125|-0.546966552734375|141730.5724424167|-2.790641449873947|-0.4190656993096826|-1.04382485018309|-0.02975784242153168|0.0447525754570961|0.1013283431529999|-0.005518481135368347|0.0469050407409668|-0.08532387018203735|XArbitraryZVertical|-0.2626716311483603|0.4486684374387436|-0.81678365864997|0.2501298572536055|-0.2046410441398621|0.8643341064453125|-0.4594005048274994|0|0|0|-1|-1|3
2021-04-22 22:21:02.152 +0100|141730.6123624167|-0.1893463134765625|0.875396728515625|-0.531707763671875|141730.5924024167|-2.786841541032585|-0.4147374176657944|-1.044686798461572|0.02849732525646687|0.06244353204965591|0.111349456012249|0.004001215100288391|0.03173190355300903|-0.08991575241088867|XArbitraryZVertical|-0.2617773312628157|0.4490798160637435|-0.8166547217901027|0.2507493562296541|-0.2023504376411438|0.86476731300354|-0.4595998823642731|0|0|0|-1|-1|3
2021-04-22 22:21:02.172 +0100|141730.6323234167|-0.1884765625|0.8618011474609375|-0.4970703125|141730.6123624167|-2.78163402114556|-0.4086633994952706|-1.044316139807944|0.1111024394631386|0.0945514515042305|0.1179692819714546|0.00623127818107605|0.01615577936172485|-0.07623982429504395|XArbitraryZVertical|-0.260456640091642|0.4490045307452395|-0.8168887148318204|0.2514960585957114|-0.1996824443340302|0.8645811080932617|-0.4611145257949829|0|0|0|-1|-1|3
2021-04-22 22:21:02.192 +0100|141730.6522834167|-0.17034912109375|0.83978271484375|-0.4666290283203125|141730.6323234167|-2.77509669162161|-0.4008121889286628|-1.04278898001623|0.1461607217788696|0.1331569999456406|0.1160771921277046|0.010459303855896|0.002886116504669189|-0.043121337890625|XArbitraryZVertical|-0.2586736170007182|0.4484933653504269|-0.817475028700535|0.2523420394004934|-0.1965709775686264|0.8638126850128174|-0.4638833105564117|0|0|0|-1|-1|3
2021-04-22 22:21:02.212 +0100|141730.6722434167|-0.1604766845703125|0.809539794921875|-0.4608154296875|141730.6522834167|-2.76850633141535|-0.3919180726791426|-1.040616443257323|0.1366341412067413|0.1730313450098038|0.1124263554811478|0.0143510103225708|-0.01800525188446045|-0.004456222057342529|XArbitraryZVertical|-0.2564479072629392|0.4478406771854471|-0.8183427999435862|0.2529592333617953|-0.1931537240743637|0.8627161383628845|-0.4673464000225067|0|0|0|-1|-1|3
2021-04-22 22:21:02.232 +0100|141730.6922034167|-0.1537322998046875|0.795501708984375|-0.452117919921875|141730.6722434167|-2.762522181258765|-0.3828494188090773|-1.038447353052609|0.08299107104539871|0.1985569000244141|0.09484602510929108|0.02539096772670746|-0.04443317651748657|0.01146209239959717|XArbitraryZVertical|-0.25400345042868|0.4472979638541084|-0.8192958707514755|0.2533006085907528|-0.1896062642335892|0.8616172075271606|-0.4708135426044464|0|0|0|-1|-1|3
2021-04-22 22:21:02.252 +0100|141730.7121644167|-0.1542510986328125|0.800384521484375|-0.4374542236328125|141730.6922034167|-2.758294395978785|-0.3749125600671667|-1.037334139547605|0.008442623540759087|0.2095118016004562|0.0683441162109375|0.03008653223514557|-0.06603866815567017|0.01775065064430237|XArbitraryZVertical|-0.2516572918812209|0.4472926145546375|-0.8200473074521182|0.2532202473393315|-0.1862146705389023|0.8610516786575317|-0.4731958508491516|0|0|0|-1|-1|3
2021-04-22 22:21:02.272 +0100|141730.7321244167|-0.1504974365234375|0.8286590576171875|-0.408172607421875|141730.7121644167|-2.756082426683902|-0.3684996862964676|-1.037371432012079|-0.03425012901425362|0.2460266649723053|0.03052039258182049|0.03582566976547241|-0.06309729814529419|0.03163129091262817|XArbitraryZVertical|-0.2495233960514519|0.4478424489025187|-0.8205616457929649|0.2526936215607399|-0.1831647902727127|0.8610706329345703|-0.4743504226207733|0|0|0|-1|-1|3
2021-04-22 22:21:02.292 +0100|141730.7520844167|-0.1518096923828125|0.8462371826171875|-0.386627197265625|141730.7321244167|-2.756749341047334|-0.3639325663116031|-1.038276774371484|-0.07001405209302902|0.2471847236156464|-0.02647640369832516|0.02796290814876556|-0.04045569896697998|0.06177833676338196|XArbitraryZVertical|-0.2475334695868799|0.4488881914059505|-0.820982717468285|0.2514240221027825|-0.1807188540697098|0.861530601978302|-0.4744531512260437|0|0|0|-1|-1|3
2021-04-22 22:21:02.312 +0100|141730.7720454167|-0.1454925537109375|0.856536865234375|-0.3944091796875|141730.7520844167|-2.759056297973525|-0.36120492381011|-1.038949358436332|-0.03559630736708641|0.2271348536014557|-0.07456288486719131|0.03120878338813782|-0.02335613965988159|0.082570880651474|XArbitraryZVertical|-0.2459203908370433|0.4498022600297644|-0.821437172999922|0.2498843246043412|-0.1792192310094833|0.8618718981742859|-0.4744021892547607|0|0|0|-1|-1|3
2021-04-22 22:21:02.332 +0100|141730.7920061667|-0.1547393798828125|0.863067626953125|-0.4154815673828125|141730.7720454167|-2.762087669895768|-0.3593727125106504|-1.038299024627091|0.0031756900716573|0.1904838979244232|-0.1065186858177185|0.03053639829158783|-0.005417466163635254|0.08525419235229492|XArbitraryZVertical|-0.2444613040151526|0.4501237957555221|-0.822204853378096|0.2482069163668089|-0.1785468608140945|0.8615419268608093|-0.4752544760704041|0|0|0|-1|-1|3
2021-04-22 22:21:02.352 +0100|141730.8119661667|-0.1511383056640625|0.8636322021484375|-0.4366455078125|141730.7920061667|-2.765846200561472|-0.3593132144342467|-1.037604369889263|-0.03032106533646584|0.1180129423737526|-0.1228130608797073|0.02447761595249176|0.002702057361602783|0.06450828909873962|XArbitraryZVertical|-0.2435653292482695|0.4502925837352071|-0.8228535014837878|0.2466266014938569|-0.1787289083003998|0.8611890077590942|-0.4758250415325165|0|0|0|-1|-1|3
2021-04-22 22:21:02.372 +0100|141730.8319261667|-0.160430908203125|0.877471923828125|-0.4398345947265625|141730.8119661667|-2.770993098080914|-0.3621327775965043|-1.038521607445937|-0.09240264445543289|0.03237137943506241|-0.09868233650922775|0.02573703229427338|-0.001837849617004395|0.03996354341506958|XArbitraryZVertical|-0.2435983028821384|0.4509651921414128|-0.8229099158545857|0.2451729645741681|-0.1797899752855301|0.8616548776626587|-0.4745805263519287|0|0|0|-1|-1|3
2021-04-22 22:21:02.392 +0100|141730.8518871667|-0.15264892578125|0.890167236328125|-0.4428863525390625|141730.8319261667|-2.775325997122314|-0.3659852787376407|-1.040893149139636|-0.08321539312601089|-0.04173746705055237|-0.07025317847728729|0.0233989804983139|0.01312011480331421|0.03165113925933838|XArbitraryZVertical|-0.2442853264899215|0.4520367517629678|-0.8223666363011035|0.2443374906008737|-0.1808851510286331|0.8628560304641724|-0.4719749093055725|0|0|0|-1|-1|3
2021-04-22 22:21:02.411 +0100|141730.8718471667|-0.149658203125|0.8787689208984375|-0.448883056640625|141730.8518871667|-2.777990272472734|-0.3696980191708034|-1.042929884255211|-0.009124202653765678|-0.1006110161542892|-0.03210188820958138|0.02758166193962097|0.02378064393997192|0.02587288618087769|XArbitraryZVertical|-0.2452750910227978|0.4527802414248285|-0.8217182015614223|0.2441506768564254|-0.1820008158683777|0.8638836741447449|-0.4696603715419769|0|0|0|-1|-1|3
2021-04-22 22:21:02.431 +0100|141730.8918071667|-0.1516571044921875|0.86767578125|-0.4586944580078125|141730.8718471667|-2.778332891427572|-0.372426771685726|-1.043756692943022|0.02809001132845879|-0.1475841104984283|-0.01021949201822281|0.03015899658203125|0.02162504196166992|0.02087903022766113|XArbitraryZVertical|-0.2463445937210374|0.4528422395309193|-0.8212135791804746|0.2446561885567385|-0.1830217391252518|0.8642998337745667|-0.4684965014457703|0|0|0|-1|-1|3
2021-04-22 22:21:02.451 +0100|141730.9117681667|-0.1557464599609375|0.866455078125|-0.46905517578125|141730.8918071667|-2.777605064252083|-0.3749751632515231|-1.043896715793948|0.0377051867544651|-0.1750080585479736|-0.004664404783397913|0.03449709713459015|0.00841677188873291|0.009815752506256104|XArbitraryZVertical|-0.2475598370483479|0.4524998767503595|-0.8207739780859178|0.2455366443729897|-0.184170737862587|0.8643702864646912|-0.4679159820079803|0|0|0|-1|-1|3
2021-04-22 22:21:02.471 +0100|141730.9317281667|-0.1646881103515625|0.8765869140625|-0.48773193359375|141730.9117681667|-2.776413463687408|-0.3771477780213763|-1.04378864234543|0.05613090097904205|-0.1529120355844498|0.001915822271257639|0.02875751256942749|-0.001706480979919434|0.001688897609710693|XArbitraryZVertical|-0.2487173063067931|0.4520385739557702|-0.8203855158561595|0.2465130497538628|-0.185221329331398|0.864315927028656|-0.4676016569137573|0|0|0|-1|-1|3
2021-04-22 22:21:02.491 +0100|141730.9516881667|-0.1806488037109375|0.882843017578125|-0.4960479736328125|141730.9317281667|-2.775080399874386|-0.3789414206831415|-1.043598700358884|0.04143550992012024|-0.1524184942245483|-0.002837032312527299|0.02652852237224579|0.01250338554382324|-0.01564255356788635|XArbitraryZVertical|-0.2497480857131261|0.4515699124163883|-0.8200457511895558|0.2474581487908491|-0.18612040579319|0.8642203807830811|-0.4674210250377655|0|0|0|-1|-1|3
2021-04-22 22:21:02.511 +0100|141730.9716481667|-0.1780853271484375|0.8837738037109375|-0.4952392578125|141730.9516881667|-2.77440586319863|-0.3808722266862185|-1.043682010094105|0.03086718916893005|-0.1153069734573364|-0.02225245349109173|0.008132085204124451|0.02048766613006592|-0.02643030881881714|XArbitraryZVertical|-0.2506944534104366|0.4512818248571457|-0.8196993749022442|0.248173471869295|-0.1869958192110062|0.8642622828483582|-0.4669940173625946|0|0|0|-1|-1|3
2021-04-22 22:21:02.531 +0100|141730.9916091667|-0.1905364990234375|0.882080078125|-0.498779296875|141730.9716481667|-2.773356111437201|-0.3814448029945273|-1.04312664447703|0.07451055943965912|-0.06898330897092819|-0.01822397857904434|0.009264722466468811|0.01452630758285522|-0.0241236686706543|XArbitraryZVertical|-0.2511484240069901|0.4508418144584222|-0.8196390445093181|0.2487128328338757|-0.1874418258666992|0.8639827966690063|-0.4673322439193726|0|0|0|-1|-1|3
2021-04-22 22:21:02.551 +0100|141731.0115691667|-0.20111083984375|0.88720703125|-0.48956298828125|141730.9916091667|-2.771711473704065|-0.3806423775249113|-1.041558396396205|0.09295026957988739|-0.02435949072241783|-0.02030648104846478|-0.001486718654632568|0.02287006378173828|-0.02784299850463867|XArbitraryZVertical|-0.25114009430392|0.4500652253823537|-0.8199355688311996|0.2491499788363943|-0.1875699162483215|0.863192081451416|-0.4687398970127106|0|0|0|-1|-1|3
2021-04-22 22:21:02.572 +0100|141731.0315291667|-0.19146728515625|0.8765411376953125|-0.4779815673828125|141731.0315291667|-2.769384278651919|-0.3775710842890898|-1.03875459340476|0.06590248644351959|0.05400785803794861|0.004279377870261669|-0.007544085383415222|0.01591199636459351|-0.01185280084609985|XArbitraryZVertical|-0.2503120152046305|0.4489576971362766|-0.8207454132484449|0.2493151739286467|-0.187020942568779|0.8617731332778931|-0.4715617597103119|0|0|0|-1|-1|3
2021-04-22 22:21:02.591 +0100|141731.0514901667|-0.1967926025390625|0.8743133544921875|-0.4815521240234375||||||||||||||||||||||||3
2021-04-22 22:21:02.611 +0100|141731.0714501667|-0.1906280517578125|0.863677978515625|-0.4984588623046875|141731.0514901667|-2.76732028495065|-0.3744347976726837|-1.037713290450779|0.0390835739672184|0.06771983951330185|0.03865057602524757|-0.01264791190624237|0.01557093858718872|-0.005047351121902466|XArbitraryZVertical|-0.2494528677123868|0.448645593743624|-0.8211448215384446|0.2494226342385275|-0.1858691275119781|0.8612443804740906|-0.472980797290802|0|0|0|-1|-1|3
2021-04-22 22:21:02.631 +0100|141731.0914101667|-0.19378662109375|0.869781494140625|-0.5057525634765625|141731.0714501667|-2.764979898086017|-0.3711329974922781|-1.037805255294294|-0.01749373599886894|0.04638594761490822|0.05325349047780037|-0.005999594926834106|0.004812538623809814|-0.02062332630157471|XArbitraryZVertical|-0.2486254242369469|0.4488054394634054|-0.821240601747518|0.2496458857402197|-0.1842777281999588|0.8612911105155945|-0.4735181629657745|0|0|0|-1|-1|3
2021-04-22 22:21:02.651 +0100|141731.1113701667|-0.196380615234375|0.892669677734375|-0.4816131591796875|141731.0914101667|-2.763329291343056|-0.3689944484614188|-1.038971152187663|-0.06862182915210724|0.0239653792232275|0.06521694362163544|-0.01134219765663147|0.007852315902709961|-0.03290116786956787|XArbitraryZVertical|-0.2481591033586251|0.44936608983536|-0.8210034304414924|0.2498815136242787|-0.1829023957252502|0.8618829250335693|-0.4729743599891663|0|0|0|-1|-1|3
2021-04-22 22:21:02.671 +0100|141731.1313311667|-0.19061279296875|0.8833160400390625|-0.4718475341796875|141731.1113701667|-2.762204099552786|-0.3677444814149404|-1.040433423965696|-0.03147664666175842|0.01716488972306252|0.05570945516228676|-0.01501139998435974|0.02208054065704346|-0.0173090398311615|XArbitraryZVertical|-0.2479512298368517|0.4500080360232594|-0.8206451427543904|0.2501091371468011|-0.181857705116272|0.8626235723495483|-0.4720259010791779|0|0|0|-1|-1|3
2021-04-22 22:21:02.691 +0100|141731.1512911667|-0.1937408447265625|0.8682708740234375|-0.472015380859375|141731.1313311667|-2.760546518321385|-0.3660357152190026|-1.040541914708862|0.04638459533452988|0.01814450696110725|0.04361853003501892|-0.01258628070354462|0.0264202356338501|-0.0004846453666687012|XArbitraryZVertical|-0.2476269817515019|0.4500627592732946|-0.8206219507115573|0.250408232998892|-0.1810174286365509|0.8626784086227417|-0.4722487926483154|0|0|0|-1|-1|3
2021-04-22 22:21:02.711 +0100|141731.1712511667|-0.1814422607421875|0.847381591796875|-0.4816741943359375|141731.1512911667|-2.758413394294204|-0.3640876976002843|-1.039403286538491|0.06886081397533417|0.003011627588421106|0.03064263053238392|-0.01056297123432159|0.0085640549659729|-0.0004514455795288086|XArbitraryZVertical|-0.2472654699028434|0.449556245700612|-0.8208856931846826|0.2508102416732535|-0.1804467588663101|0.8621020317077637|-0.4735179245471954|0|0|0|-1|-1|3
2021-04-22 22:21:02.731 +0100|141731.1912111667|-0.2054901123046875|0.849853515625|-0.468597412109375|141731.1712511667|-2.755924536787932|-0.3618911005130409|-1.037597531741939|0.08845487982034683|-0.007935775443911552|0.04748756811022758|-0.008550256490707397|-0.01145458221435547|-0.00381961464881897|XArbitraryZVertical|-0.2468547039664273|0.4487523057851759|-0.8213041677860237|0.2512840172701707|-0.1799570322036743|0.8611855506896973|-0.4753682315349579|0|0|0|-1|-1|3
2021-04-22 22:21:02.751 +0100|141731.2111721667|-0.1988372802734375|0.85498046875|-0.46368408203125|141731.1912111667|-2.75362494817415|-0.3603960771740428|-1.036567421606515|0.02789741568267345|-0.02399889752268791|0.03858799487352371|-0.0185919851064682|-0.01570659875869751|0.005518496036529541|XArbitraryZVertical|-0.2467167835963585|0.4482159557740805|-0.821461214579481|0.2518626025436278|-0.1795588582754135|0.860661506652832|-0.476466566324234|0|0|0|-1|-1|3
2021-04-22 22:21:02.771 +0100|141731.2311321667|-0.2069549560546875|0.8777313232421875|-0.4701690673828125|141731.2111721667|-2.752685083208976|-0.3601642760790666|-1.036848442708036|0.003855445189401507|-0.02083192020654678|0.02830464206635952|-0.02270910143852234|-0.005397260189056396|0.01363468170166016|XArbitraryZVertical|-0.2468431463046644|0.4482493021188303|-0.8213001562653236|0.2522049386872703|-0.1793632507324219|0.860804557800293|-0.4762820601463318|0|0|0|-1|-1|3
2021-04-22 22:21:02.791 +0100|141731.2510921667|-0.2030792236328125|0.88031005859375|-0.48187255859375|141731.2311321667|-2.752128821331376|-0.3603641167471942|-1.03679229428266|0.03014788590371609|-0.02690871991217136|0.01153933256864548|-0.02415332198143005|0.01213306188583374|0.01185867190361023|XArbitraryZVertical|-0.2470476775372399|0.4481314597447527|-0.8212194463334939|0.2524764659780249|-0.1794754266738892|0.8607760071754456|-0.4762912690639496|0|0|0|-1|-1|3
2021-04-22 22:21:02.811 +0100|141731.2710531667|-0.200592041015625|0.88629150390625|-0.4822998046875|141731.2710531667|-2.75228360787059|-0.3618359231449898|-1.034219673171253|0.0724482536315918|-0.03518454730510712|-0.0441262349486351|-0.02134168148040771|0.02386713027954102|-0.005776166915893555|XArbitraryZVertical|-0.2475169949446756|0.4468638085297111|-0.8217103460821132|0.2526664646865768|-0.180959552526474|0.8594636917114258|-0.4780961573123932|0|0|0|-1|-1|3
2021-04-22 22:21:02.831 +0100|141731.2910131667|-0.215362548828125|0.9296417236328125|-0.462066650390625||||||||||||||||||||||||3
2021-04-22 22:21:02.851 +0100|141731.3109731667|-0.244232177734375|0.9797515869140625|-0.432830810546875|141731.2910131667|-2.754816728312399|-0.365297880212395|-1.032564377429803|0.05400896072387695|-0.06134067848324776|-0.1022352576255798|-0.02503910660743713|0.06057256460189819|0.009372562170028687|XArbitraryZVertical|-0.2483102569351829|0.4460320996976069|-0.8220205346400318|0.252348151429154|-0.1831215023994446|0.8586163520812988|-0.4787947535514832|0|0|0|-1|-1|3
2021-04-22 22:21:02.871 +0100|141731.3309331667|-0.2587738037109375|0.995941162109375|-0.4514617919921875|141731.3109731667|-2.75949970761705|-0.3706647799729875|-1.030951032994969|0.05078856647014618|-0.04922547563910484|-0.1525592356920242|-0.05151154100894928|0.1099542379379272|0.04174748063087463|XArbitraryZVertical|-0.2494127634294193|0.4452475919017047|-0.8223512958278558|0.2515676043804509|-0.1861900836229324|0.8577882051467896|-0.4790956974029541|0|0|0|-1|-1|3
2021-04-22 22:21:02.890 +0100|141731.3508941667|-0.2861785888671875|0.9877777099609375|-0.4827423095703125|141731.3309331667|-2.764843077446776|-0.3763531785253548|-1.028834227166589|0.04416248947381973|-0.06613383442163467|-0.1573628634214401|-0.0659293532371521|0.1377928256988525|0.03507450222969055|XArbitraryZVertical|-0.2504884742222663|0.4442941650312736|-0.8228463912569378|0.2505635132311494|-0.1895792633295059|0.8566982746124268|-0.4797164499759674|0|0|0|-1|-1|3
2021-04-22 22:21:02.910 +0100|141731.3708541667|-0.283233642578125|0.9534912109375|-0.49200439453125|141731.3508941667|-2.770079768907569|-0.3825639542795894|-1.027522353520266|-0.01467238273471594|-0.08462022244930267|-0.1293468624353409|-0.08537662029266357|0.1372649073600769|0.002184808254241943|XArbitraryZVertical|-0.2518370754090176|0.4436124705791049|-0.8230528180843585|0.2497404953824754|-0.1929744333028793|0.8560208082199097|-0.4795721173286438|0|0|0|-1|-1|3
2021-04-22 22:21:02.930 +0100|141731.3908141667|-0.2937469482421875|0.9515228271484375|-0.51104736328125|141731.3708541667|-2.774042286254531|-0.3878817597222725|-1.027866970682275|-0.05779823288321495|-0.1036244854331017|-0.04192975163459778|-0.08861696720123291|0.1003741025924683|-0.01256439089775085|XArbitraryZVertical|-0.2531573775574139|0.4435970971618534|-0.8227887186959439|0.2493025146901017|-0.1954103261232376|0.8561989068984985|-0.4782659113407135|0|0|0|-1|-1|3
2021-04-22 22:21:02.950 +0100|141731.4107751667|-0.2935791015625|0.9272003173828125|-0.50921630859375|141731.3908141667|-2.77387476335264|-0.3896546924652841|-1.028310278692178|0.03227190673351288|-0.08940683305263519|0.07169543206691742|-0.09632112085819244|0.09997725486755371|-0.02858251333236694|XArbitraryZVertical|-0.2539376613360749|0.4435446598579253|-0.8224311413553239|0.2497817436832253|-0.1961137652397156|0.8564278483390808|-0.477567583322525|0|0|0|-1|-1|3
2021-04-22 22:21:02.971 +0100|141731.4307351667|-0.265594482421875|0.86627197265625|-0.5003509521484375|141731.4107751667|-2.767975605146478|-0.3860593827461866|-1.027325268881282|0.1841985583305359|-0.0461718961596489|0.1676994562149048|-0.09880523383617401|0.08145856857299805|-0.03546106815338135|XArbitraryZVertical|-0.2537347539832477|0.4428241325426106|-0.8223971355999017|0.2513733807668247|-0.1947130709886551|0.8559189438819885|-0.4790509343147278|0|0|0|-1|-1|3
2021-04-22 22:21:02.990 +0100|141731.4506951667|-0.238494873046875|0.8029632568359375|-0.504730224609375|141731.4307351667|-2.756819555738419|-0.3766966493659549|-1.023937333176213|0.3217021226882935|0.01619944162666798|0.2448655366897583|-0.08569276332855225|0.03190010786056519|-0.01814788579940796|XArbitraryZVertical|-0.2522302713684247|0.4411422962093386|-0.82302681120998|0.2537724802865162|-0.1912849992513657|0.8541620969772339|-0.4835467338562012|0|0|0|-1|-1|3
2021-04-22 22:21:03.010 +0100|141731.4706561667|-0.2097015380859375|0.74102783203125|-0.531341552734375|141731.4506951667|-2.742595232462645|-0.3639640424228599|-1.019538782242802|0.3355698585510254|0.03902827203273773|0.2824325263500214|-0.06112559139728546|-0.03630000352859497|-0.01241320371627808|XArbitraryZVertical|-0.2499450205463276|0.4390932504264531|-0.8239155182956994|0.2566865692417664|-0.1864484846591949|0.8518665432929993|-0.4894492030143738|0|0|0|-1|-1|3
2021-04-22 22:21:03.030 +0100|141731.4906161667|-0.18560791015625|0.70391845703125|-0.534912109375|141731.4706561667|-2.728421591281331|-0.3514921457853566|-1.016265470944356|0.2207822352647781|-0.001436969731003046|0.2928938865661621|-0.03135783970355988|-0.09941560029983521|-0.02917814254760742|XArbitraryZVertical|-0.247767008074035|0.4375335568806946|-0.8244575630255012|0.2597033802080725|-0.1812888830900192|0.850147545337677|-0.4943518042564392|0|0|0|-1|-1|3
2021-04-22 22:21:03.050 +0100|141731.5105761667|-0.149383544921875|0.709075927734375|-0.51605224609375|141731.4906161667|-2.717235200225329|-0.3426144958284968|-1.015390367884989|0.09894401580095291|-0.008459831587970257|0.3128679394721985|-0.0204738974571228|-0.1381239295005798|-0.04199403524398804|XArbitraryZVertical|-0.2465109043458512|0.4369340470762283|-0.824313148823983|0.2623524766798226|-0.1771429032087326|0.8496864438056946|-0.4966420233249664|0|0|0|-1|-1|3
2021-04-22 22:21:03.070 +0100|141731.5305361667|-0.1371917724609375|0.708251953125|-0.5141754150390625|141731.5105761667|-2.706940284860742|-0.3349846013097199|-1.015947118359808|0.06600364297628403|-0.05384222418069839|0.2963760495185852|0.01653075218200684|-0.1399736404418945|-0.02204537391662598|XArbitraryZVertical|-0.2456450732855513|0.4369121586122127|-0.8237559144155618|0.2649390398861384|-0.1731929928064346|0.8499798774719238|-0.4975325167179108|0|0|0|-1|-1|3
2021-04-22 22:21:03.090 +0100|141731.5504971667|-0.125732421875|0.7125396728515625|-0.5100250244140625|141731.5305361667|-2.695619474586672|-0.3266371739123476|-1.01579236937329|0.1518027037382126|-0.07454484701156616|0.2606790363788605|0.02939689159393311|-0.1464076042175293|-0.01316821575164795|XArbitraryZVertical|-0.2446714858261527|0.4365697481034724|-0.8233100761016516|0.2677749910547012|-0.1690760850906372|0.8498983383178711|-0.4990854263305664|0|0|0|-1|-1|3
2021-04-22 22:21:03.110 +0100|141731.5704571667|-0.119049072265625|0.7173614501953125|-0.5068511962890625|141731.5704571667|-2.674070832233753|-0.3121636998481868|-1.004792308282909|0.48880735039711|-0.04686985909938812|0.2132675796747208|0.04384663701057434|-0.1226001977920532|0.003998219966888428|XArbitraryZVertical|-0.2427187655445092|0.4311777084790859|-0.8248913957092339|0.2733637912955907|-0.1646964997053146|0.8440505862236023|-0.5103467702865601|0|0|0|-1|-1|3
2021-04-22 22:21:03.130 +0100|141731.5904171667|-0.1010284423828125|0.6914520263671875|-0.519073486328125||||||||||||||||||||||||3
2021-04-22 22:21:03.150 +0100|141731.6103781667|-0.0850677490234375|0.6580657958984375|-0.512115478515625|141731.5904171667|-2.660129416922487|-0.3010923639201236|-0.9955876011843171|0.5885006189346313|-0.01719116605818272|0.2249212116003036|0.05708526074886322|-0.1350235342979431|0.001133739948272705|XArbitraryZVertical|-0.2405284994300049|0.4270570411942444|-0.8265767106431765|0.2766573679899632|-0.1613335609436035|0.8390787839889526|-0.5195366740226746|0|0|0|-1|-1|3
2021-04-22 22:21:03.170 +0100|141731.6303381667|-0.0707550048828125|0.6486968994140625|-0.488006591796875|141731.6103781667|-2.646701647812681|-0.2896339051415852|-0.9860499035217895|0.4915872514247894|0.02846862375736237|0.1910743862390518|0.06714846193790436|-0.1659906506538391|0.01317280530929565|XArbitraryZVertical|-0.2379617553131325|0.4229370070166163|-0.8284049618539117|0.2797211120954715|-0.157648578286171|0.8338521122932434|-0.528997004032135|0|0|0|-1|-1|3
2021-04-22 22:21:03.190 +0100|141731.6502981667|-0.05352783203125|0.7198028564453125|-0.439605712890625|141731.6303381667|-2.638718390872724|-0.2822475215454406|-0.9800130511391038|0.1861100792884827|0.04769089445471764|0.05140054970979691|0.08186317980289459|-0.1888883709907532|0.03989970684051514|XArbitraryZVertical|-0.2361297137442862|0.4204245563217908|-0.8296203847213713|0.2814535150369364|-0.1551361083984375|0.8305046558380127|-0.5349718928337097|0|0|0|-1|-1|3
2021-04-22 22:21:03.210 +0100|141731.6702591667|-0.068328857421875|0.835357666015625|-0.400054931640625|141731.6502981667|-2.640381188496637|-0.282497790653247|-0.9802813944803594|-0.2423011064529419|0.0612218827009201|-0.1513742208480835|0.100855827331543|-0.1353573799133301|0.08504176139831543|XArbitraryZVertical|-0.2359043833632794|0.4207013051655107|-0.8297599315534622|0.2808169700649844|-0.1552078723907471|0.8306540846824646|-0.5347190499305725|0|0|0|-1|-1|3
2021-04-22 22:21:03.230 +0100|141731.6902191667|-0.083404541015625|0.965362548828125|-0.4029083251953125|141731.6702591667|-2.653574395195971|-0.2920432172940981|-0.9872125929411784|-0.5790636539459229|0.0867934450507164|-0.3520976603031158|0.09274046123027802|-0.02420634031295776|0.1193302869796753|XArbitraryZVertical|-0.2375894228003216|0.4239196271079278|-0.8287935102999686|0.2773895351858762|-0.1586434096097946|0.8344933390617371|-0.5276868343353271|0|0|0|-1|-1|3
2021-04-22 22:21:03.250 +0100|141731.7101791667|-0.1253662109375|1.036956787109375|-0.4775543212890625|141731.6902191667|-2.673858156306895|-0.3068167950020413|-0.9962136123133074|-0.558329164981842|0.1191638559103012|-0.4168184101581573|0.08739437162876129|0.0976530909538269|0.1200622916221619|XArbitraryZVertical|-0.2400023737302752|0.4281902854799979|-0.8276195205690905|0.2722095705556908|-0.1641463041305542|0.8394191861152649|-0.5181038975715637|0|0|0|-1|-1|3
2021-04-22 22:21:03.270 +0100|141731.7301401667|-0.1152191162109375|0.994110107421875|-0.580963134765625|141731.7101791667|-2.693209245538933|-0.320349749174278|-1.002479603319534|-0.3529153168201447|0.1576406806707382|-0.3716712594032288|0.05368374288082123|0.19111168384552|0.06039255857467651|XArbitraryZVertical|-0.2418305227913848|0.431394895843744|-0.8270573687089618|0.2671943053548569|-0.1694829165935516|0.8428081274032593|-0.5108329057693481|0|0|0|-1|-1|3
2021-04-22 22:21:03.290 +0100|141731.7501001667|-0.1086578369140625|0.943023681640625|-0.604522705078125|141731.7301401667|-2.70759483791179|-0.3291301222736291|-1.005860496437602|-0.2412059605121613|0.1583150923252106|-0.2462359219789505|0.05663010478019714|0.1630975008010864|-0.05399829149246216|XArbitraryZVertical|-0.2425428952627918|0.4334282958180383|-0.8270658511547981|0.2632018373431824|-0.1730396449565887|0.8446229696273804|-0.5066257119178772|0|0|0|-1|-1|3
2021-04-22 22:21:03.310 +0100|141731.7700601667|-0.0879974365234375|0.9246978759765625|-0.59393310546875|141731.7501001667|-2.716110062952721|-0.3334396953879722|-1.009086336594806|-0.2146702706813812|0.1302637606859207|-0.07212360203266144|0.06281723082065582|0.1036661863327026|-0.1041704416275024|XArbitraryZVertical|-0.2426471486655746|0.4352853370579464|-0.8268584169241116|0.2606807061695821|-0.1743286997079849|0.8463455438613892|-0.5032980442047119|0|0|0|-1|-1|3
2021-04-22 22:21:03.330 +0100|141731.79002025|-0.0879058837890625|0.9092254638671875|-0.5794830322265625|141731.7700601667|-2.717731276036555|-0.3326020907172021|-1.012715271167557|-0.1495587974786758|0.08218053728342056|0.1087172850966454|0.07983951270580292|0.08167356252670288|-0.09647870063781738|XArbitraryZVertical|-0.2421349868177151|0.4371520458368393|-0.8262684062642257|0.2599025866654884|-0.1729030907154083|0.8482728600502014|-0.5005374550819397|0|0|0|-1|-1|3
2021-04-22 22:21:03.349 +0100|141731.80998125|-0.099517822265625|0.8888397216796875|-0.5768280029296875|141731.79002025|-2.712492063200914|-0.3270635690886248|-1.015839420121154|-0.04753571003675461|0.03213180601596832|0.2465142011642456|0.08101895451545715|0.06215524673461914|-0.07921147346496582|XArbitraryZVertical|-0.2411582886441377|0.4385829339783409|-0.8254765990033365|0.2609142121655204|-0.1692759990692139|0.8499231338500977|-0.4989753663539886|0|0|0|-1|-1|3
2021-04-22 22:21:03.370 +0100|141731.82994125|-0.11785888671875|0.866943359375|-0.5718536376953125|141731.80998125|-2.701186040648337|-0.3168369342268372|-1.018465388550442|0.04346640408039093|0.01689266413450241|0.3339919447898865|0.06947407126426697|0.03999197483062744|-0.07982745766639709|XArbitraryZVertical|-0.2395661967931016|0.4396921175476969|-0.8245677595157388|0.2633759869211891|-0.1634684354066849|0.8513038754463196|-0.4985577464103699|0|0|0|-1|-1|3
2021-04-22 22:21:03.389 +0100|141731.84990125|-0.120025634765625|0.849090576171875|-0.5547027587890625|141731.82994125|-2.687661223985171|-0.3047122395502233|-1.019159112351794|0.09995342791080475|0.04372118413448334|0.3533981442451477|0.04033669829368591|0.02049374580383301|-0.07539385557174683|XArbitraryZVertical|-0.2375840811220291|0.4399818040066006|-0.8240498576462132|0.2662925526475616|-0.1572345048189163|0.8516676425933838|-0.4999396204948425|0|0|0|-1|-1|3
2021-04-22 22:21:03.409 +0100|141731.86986225|-0.103179931640625|0.8257904052734375|-0.5228424072265625|141731.84990125|-2.674485454710851|-0.2923429494905387|-1.019213493691442|0.09245181828737259|0.07065096497535706|0.300528347492218|0.03167092800140381|0.005191206932067871|-0.0567469596862793|XArbitraryZVertical|-0.2353909466732753|0.4401024259104112|-0.8237356883753724|0.2689992543884961|-0.1510253995656967|0.8516961336135864|-0.5018019080162048|0|0|0|-1|-1|3
2021-04-22 22:21:03.429 +0100|141731.88982225|-0.0403900146484375|0.8042144775390625|-0.47528076171875|141731.86986225|-2.664087724438005|-0.2815963487940785|-1.019327332070247|0.05386578291654587|0.119163379073143|0.2247224450111389|0.03323124349117279|-0.02302086353302002|-0.02942812442779541|XArbitraryZVertical|-0.2332616216781337|0.4403834726496895|-0.8235629762651198|0.2709162568775645|-0.1455971896648407|0.8517557978630066|-0.5033028125762939|0|0|0|-1|-1|3
2021-04-22 22:21:03.449 +0100|141731.90978225|0.0013275146484375|0.7591552734375|-0.436492919921875|141731.88982225|-2.6554118415751|-0.2714510841669643|-1.019116037672325|0.06422913819551468|0.1094560995697975|0.1601333320140839|0.08700382709503174|-0.04068666696548462|0.01383763551712036|XArbitraryZVertical|-0.2309799170442788|0.4406638369296772|-0.8236148656008263|0.2722541450021006|-0.1405318677425385|0.8516450524330139|-0.5049273371696472|0|0|0|-1|-1|3
2021-04-22 22:21:03.470 +0100|141731.92974325|0.058441162109375|0.62176513671875|-0.3933563232421875|141731.90978225|-2.648554275836283|-0.2636706637354111|-1.017490880396458|0.1005718857049942|0.03916680812835693|0.09614139050245285|0.1263698488473892|-0.07244175672531128|0.0551307201385498|XArbitraryZVertical|-0.2291662143593763|0.4402412148643273|-0.8239783125402518|0.2733686702933816|-0.1369596719741821|0.8507921695709229|-0.5073410272598267|0|0|0|-1|-1|3
2021-04-22 22:21:03.489 +0100|141731.94970325|0.097076416015625|0.4948272705078125|-0.320281982421875|141731.92974325|-2.645029766618257|-0.2612682234392493|-1.015772204175579|0.02867875248193741|-0.1508140563964844|0.01304881274700165|0.1809022426605225|-0.1623729467391968|0.1186225414276123|XArbitraryZVertical|-0.2288222206963959|0.4394316111869926|-0.8241969239642464|0.2742988944035589|-0.1361179351806641|0.8498877286911011|-0.5090805292129517|0|0|0|-1|-1|3
2021-04-22 22:21:03.509 +0100|141731.96966325|0.15960693359375|0.4368438720703125|-0.14703369140625|141731.94970325|-2.646345398818469|-0.2682757019737241|-1.016460353176646|-0.163533940911293|-0.4580639898777008|-0.07583347707986832|0.224930077791214|-0.3361210227012634|0.1536674499511719|XArbitraryZVertical|-0.2314714145517938|0.4389144600525867|-0.8234007659752178|0.2752935004099391|-0.1395268887281418|0.8502501845359802|-0.5075501799583435|0|0|0|-1|-1|3
2021-04-22 22:21:03.529 +0100|141731.98962325|0.2119903564453125|0.4381866455078125|0.0230560302734375|141731.96966325|-2.655507611217284|-0.2893072907842769|-1.020932606193681|-0.363304078578949|-0.8828260898590088|-0.2893720269203186|0.2994128465652466|-0.4071463942527771|0.307020902633667|XArbitraryZVertical|-0.2384296789594913|0.4390036740662977|-0.8210798061407006|0.2761435636365812|-0.1490835100412369|0.8525957465171814|-0.5008541345596313|0|0|0|-1|-1|3
2021-04-22 22:21:03.549 +0100|141732.00958425|0.266143798828125|0.40728759765625|0.0938873291015625|141731.98962325|-2.674930963804951|-0.3277661361563703|-1.024175613943676|-0.1815335303544998|-1.313965797424316|-0.572522759437561|0.3558618426322937|-0.4178392887115479|0.4877509772777557|XArbitraryZVertical|-0.2501471491193399|0.4374481255340687|-0.8182531679114549|0.2766358374623501|-0.1673397421836853|0.8542859554290771|-0.4921310842037201|0|0|0|-1|-1|3
2021-04-22 22:21:03.569 +0100|141732.02954425|0.1945037841796875|0.3493194580078125|0.101165771484375|141732.00958425|-2.699784837436189|-0.3805323054953406|-1.018857559883113|0.2194412052631378|-1.862230896949768|-0.8415987491607666|0.4602347612380981|-0.4353112578392029|0.5776207447052002|XArbitraryZVertical|-0.2660219803209107|0.4310642812342254|-0.8162283168048683|0.2778263024674843|-0.1947473585605621|0.8515095710754395|-0.4868317842483521|0|0|0|-1|-1|3
2021-04-22 22:21:03.589 +0100|141732.04950425|0.1266937255859375|0.1776885986328125|0.061431884765625|141732.04950425|-2.764284481854729|-0.5312249231966135|-0.99050075517923|-0.02178115956485271|-2.944232940673828|-1.253204107284546|0.4235155284404755|-0.6267674565315247|0.5393468141555786|XArbitraryZVertical|-0.3128648158770951|0.407135599520827|-0.8105359390301026|0.2817583716224279|-0.2777486145496368|0.8363006114959717|-0.4727124273777008|0|0|0|-1|-1|3
2021-04-22 22:21:03.609 +0100|141732.06946525|0.0985260009765625|0.10455322265625|0.0153961181640625||||||||||||||||||||||||3
2021-04-22 22:21:03.629 +0100|141732.08942525|-0.03167724609375|0.290496826171875|-0.0691375732421875|141732.06946525|-2.809795687902692|-0.6331766143776045|-0.9819343510938611|-0.6660563945770264|-3.496897220611572|-1.307007431983948|0.4293057918548584|-0.7071536183357239|0.4849950671195984|XArbitraryZVertical|-0.3447719967015024|0.3965573081268642|-0.8023051694275859|0.283162986771492|-0.3286440074443817|0.8315733075141907|-0.447749137878418|0|0|0|-1|-1|3
2021-04-22 22:21:03.649 +0100|141732.10938525|-0.14654541015625|0.6852264404296875|-0.0865478515625|141732.08942525|-2.867392097669283|-0.7563849804288039|-0.9796584313161076|-1.072674512863159|-3.994300842285156|-1.34376859664917|0.3854219913482666|-0.622894823551178|0.3692532777786255|XArbitraryZVertical|-0.382522511487463|0.3885948951784111|-0.788619035339411|0.2841668023648387|-0.3824775218963623|0.8303070664405823|-0.4053410589694977|0|0|0|-1|-1|3
2021-04-22 22:21:03.669 +0100|141732.12934625|-0.1995086669921875|0.951873779296875|-0.0155792236328125|141732.10938525|-2.929369718239701|-0.8930686592534145|-0.9729190738122333|-0.947381854057312|-4.525559425354004|-1.555503487586975|0.3341809511184692|-0.2255501747131348|0.2661832571029663|XArbitraryZVertical|-0.4242577128124332|0.3788570825524867|-0.7714505590097742|0.2851961485728111|-0.4384905397891998|0.8265323638916016|-0.3529454171657562|0|0|0|-1|-1|3
2021-04-22 22:21:03.689 +0100|141732.14930625|-0.28887939453125|1.089508056640625|0.1187286376953125|141732.12934625|-2.981268288890508|-1.030948325748865|-0.9530277233587136|-0.2468111366033554|-4.974286079406738|-1.74647331237793|0.2979158759117126|0.08437782526016235|0.247900515794754|XArbitraryZVertical|-0.4685832098268591|0.3627247145341173|-0.7525453591328916|0.2872908615453109|-0.4968452453613281|0.8151729702949524|-0.2977211177349091|0|0|0|-1|-1|3
2021-04-22 22:21:03.709 +0100|141732.16926625|-0.4947509765625|1.134033203125|0.1056365966796875|141732.14930625|-2.999279218286806|-1.14821873404669|-0.9187742537863757|0.8308437466621399|-5.347926616668701|-1.76331615447998|0.2995875477790833|0.2616289854049683|0.3576641380786896|XArbitraryZVertical|-0.5120205590058354|0.336760754415087|-0.7335974536732531|0.2937038089778201|-0.5534180998802185|0.794858455657959|-0.2488542795181274|0|0|0|-1|-1|3
