loggingTime(txt)|accelerometerTimestamp_sinceReboot(s)|accelerometerAccelerationX(G)|accelerometerAccelerationY(G)|accelerometerAccelerationZ(G)|motionTimestamp_sinceReboot(s)|motionYaw(rad)|motionRoll(rad)|motionPitch(rad)|motionRotationRateX(rad/s)|motionRotationRateY(rad/s)|motionRotationRateZ(rad/s)|motionUserAccelerationX(G)|motionUserAccelerationY(G)|motionUserAccelerationZ(G)|motionAttitudeReferenceFrame(txt)|motionQuaternionX(R)|motionQuaternionY(R)|motionQuaternionZ(R)|motionQuaternionW(R)|motionGravityX(G)|motionGravityY(G)|motionGravityZ(G)|motionMagneticFieldX(µT)|motionMagneticFieldY(µT)|motionMagneticFieldZ(µT)|motionHeading(°)|motionMagneticFieldCalibrationAccuracy(Z)|label
2021-04-22 20:23:12.966 +0100|136581.782981875|-0.1826324462890625|-0.3560333251953125|-0.9352569580078125|136581.763019875|0.1904929626537673|-0.1120900583989778|0.3649122329491899|-0.2995880246162415|-0.3703227043151855|-0.06113021820783615|0.08837666362524033|-0.02791264653205872|-0.02149087190628052|XArbitraryZVertical|0.185578250331397|-0.03760738160325428|0.08325935402340423|0.9783733809423915|-0.1044903695583344|-0.3568673133850098|-0.9282928109169006|0|0|0|-1|-1|3
2021-04-22 20:23:12.968 +0100|136581.802942875|-0.1095428466796875|-0.3031768798828125|-0.94927978515625|136581.782981875|0.1862201890699752|-0.1123896461147076|0.3606605725781971|-0.2415649145841599|-0.07944232970476151|-0.169556736946106|-0.09888963401317596|-0.002453356981277466|0.005917072296142578|XArbitraryZVertical|0.1834330492332649|-0.03836588951175935|0.08129372954064541|0.9789135549499105|-0.1049376949667931|-0.3528923988342285|-0.929760754108429|0|0|0|-1|-1|3
2021-04-22 20:23:12.969 +0100|136581.822904875|-0.1202850341796875|-0.3365325927734375|-0.948333740234375|136581.802942875|0.1830658640136603|-0.1122258650640619|0.3596782031237358|0.07323465496301651|-0.1234164983034134|-0.04618242755532265|-0.0201762393116951|0.03659006953239441|-0.01986002922058105|XArbitraryZVertical|0.1828857497389826|-0.03862398525032973|0.0797997505859792|0.9791288158227761|-0.1048241853713989|-0.3519730567932129|-0.9301219582557678|0|0|0|-1|-1|3
2021-04-22 20:23:12.969 +0100|136581.842865875|-0.12628173828125|-0.439300537109375|-0.9402313232421875|136581.822904875|0.1834267610185371|-0.1137186553406825|0.3636074823542999|0.2550694644451141|-0.1214605718851089|0.0591239333152771|-0.009637773036956787|0.03408536314964294|-0.02490830421447754|XArbitraryZVertical|0.1848719057330257|-0.03912507296388932|0.07969822979264538|0.9787440705825219|-0.1060547903180122|-0.3556481599807739|-0.9285832047462463|0|0|0|-1|-1|3
2021-04-22 20:23:12.984 +0100|136581.862827875|-0.0929718017578125|-0.42236328125|-0.94622802734375|136581.842865875|0.1846017150464425|-0.1143939791370528|0.366281897205484|-0.01338760275393724|-0.02169988676905632|0.0548476055264473|-0.0200449526309967|-0.05513691902160645|-0.01134097576141357|XArbitraryZVertical|0.1862279430044532|-0.03921210656424865|0.08011358698031136|0.978449556624272|-0.1065729111433029|-0.358146458864212|-0.9275631308555603|0|0|0|-1|-1|3
2021-04-22 20:23:13.003 +0100|136581.882788875|-0.0832977294921875|-0.3752899169921875|-0.939483642578125|136581.862827875|0.1852944844136594|-0.1160893816917862|0.3649943670189549|-0.1391137689352036|0.006170093081891537|-0.03024580702185631|0.004728391766548157|-0.08238610625267029|-0.0224640965461731|XArbitraryZVertical|0.1856810117683806|-0.04004221979113175|0.08034197088363552|0.978501169350149|-0.1081986725330353|-0.3569440245628357|-0.9278383851051331|0|0|0|-1|-1|3
2021-04-22 20:23:13.024 +0100|136581.902750875|-0.095245361328125|-0.363555908203125|-0.9264984130859375|136581.882788875|0.1841017486826049|-0.116056870084861|0.3604296390363355|-0.2316006720066071|0.02497616410255432|-0.05709650740027428|0.02649221569299698|-0.03098976612091064|-0.01590800285339355|XArbitraryZVertical|0.1834263379723265|-0.04036682209756345|0.07992885173041812|0.9789467805047904|-0.1083560511469841|-0.3526763021945953|-0.9294505715370178|0|0|0|-1|-1|3
2021-04-22 20:23:13.044 +0100|136581.922711875|-0.0899658203125|-0.3348236083984375|-0.9147186279296875|136581.902750875|0.1820601063552511|-0.1146492208731304|0.3552595801617571|-0.2165406197309494|0.04674873128533363|-0.07687252014875412|0.01271087676286697|-0.01794901490211487|0.003666460514068604|XArbitraryZVertical|0.180802760044499|-0.04012208062191969|0.07924541974960528|0.9795003408761471|-0.1072547659277916|-0.3478337526321411|-0.9314011335372925|0|0|0|-1|-1|3
2021-04-22 20:23:13.063 +0100|136581.942673875|-0.0829010009765625|-0.301177978515625|-0.924072265625|136581.922711875|0.1801592826352782|-0.113307022453961|0.3521199790994275|-0.1793587356805801|0.05629030242562294|-0.06428251415491104|0.0132315456867218|0.003870725631713867|0.0151745080947876|XArbitraryZVertical|0.1791767835520707|-0.03979086331354448|0.07854770167043602|0.9798687103805719|-0.106127493083477|-0.3448884785175323|-0.9326247572898865|0|0|0|-1|-1|3
2021-04-22 20:23:13.083 +0100|136581.962634875|-0.08447265625|-0.2979278564453125|-0.92718505859375|136581.942673875|0.1787847394421604|-0.1117961655702524|0.3518602180452913|-0.07125178724527359|0.0450943224132061|-0.03570173680782318|0.02033150196075439|0.03834065794944763|0.0154380202293396|XArbitraryZVertical|0.1789634469501159|-0.03918638716373091|0.07801869719862327|0.9799743996952754|-0.1047283038496971|-0.3446446657180786|-0.932873010635376|0|0|0|-1|-1|3
2021-04-22 20:23:13.103 +0100|136581.982595875|-0.0927886962890625|-0.3224029541015625|-0.9364013671875|136581.962634875|0.1778907300798833|-0.1098834293502033|0.3529373899861439|0.04615548625588417|0.04881827533245087|-0.02424756810069084|0.01962009072303772|0.05212321877479553|0.008019149303436279|XArbitraryZVertical|0.1793985285373626|-0.03827692000027583|0.07771436262284621|0.9799549749136693|-0.1029030010104179|-0.345655620098114|-0.9327020645141602|0|0|0|-1|-1|3
2021-04-22 20:23:13.123 +0100|136582.002557875|-0.09765625|-0.3471221923828125|-0.944610595703125|136581.982595875|0.1774560259357539|-0.1082321427565682|0.3550809665058979|0.08152174949645996|0.06725449115037918|-0.02074604481458664|0.01101100444793701|0.02885007858276367|-0.003888249397277832|XArbitraryZVertical|0.1803746124211779|-0.0374032721335486|0.0775759131843157|0.9798204506038428|-0.1012824326753616|-0.3476662933826447|-0.9321320056915283|0|0|0|-1|-1|3
2021-04-22 20:23:13.143 +0100|136582.022518875|-0.098052978515625|-0.3597869873046875|-0.9360809326171875|136582.002557875|0.1770843171764586|-0.1062533744611906|0.3566351864552966|0.04700358584523201|0.09963260591030121|-0.03044385835528374|0.001662619411945343|0.004366964101791382|-0.01350539922714233|XArbitraryZVertical|0.1810511206463132|-0.03639253187773482|0.07751962216264537|0.9797381978812695|-0.09938033670186996|-0.3491231203079224|-0.931792140007019|0|0|0|-1|-1|3
2021-04-22 20:23:13.163 +0100|136582.042480875|-0.106719970703125|-0.3332061767578125|-0.924041748046875|136582.022518875|0.1763917815995083|-0.1038007992785952|0.3566156728538002|0.03475773707032204|0.08771049231290817|-0.004002396017313004|-0.0005154535174369812|-0.01133736968040466|-0.002225577831268311|XArbitraryZVertical|0.1809341841749917|-0.03525465538259406|0.07740296178264161|0.9798106200430984|-0.09709545224905014|-0.3491048514842987|-0.9320398569107056|0|0|0|-1|-1|3
2021-04-22 20:23:13.183 +0100|136582.062441875|-0.1030731201171875|-0.3257293701171875|-0.915557861328125|136582.042480875|0.1768271816196913|-0.1020009961563919|0.3564133963375898|0.07541471719741821|0.08505856990814209|0.02969786524772644|-0.009281240403652191|0.01070514321327209|0.00299227237701416|XArbitraryZVertical|0.1807729954994781|-0.03434322127750864|0.07778569826741052|0.9798424417206635|-0.09542500227689743|-0.3489152789115906|-0.932283341884613|0|0|0|-1|-1|3
2021-04-22 20:23:13.203 +0100|136582.082403875|-0.0971832275390625|-0.336700439453125|-0.934356689453125|136582.062441875|0.1776868062594251|-0.1007675880506031|0.3577082562014333|0.1253431141376495|0.05375705286860466|0.04220664501190186|-0.0108734518289566|0.0175640881061554|0.01527798175811768|XArbitraryZVertical|0.1813727826489487|-0.03359903421856519|0.07827616744070016|0.9797183358757432|-0.09422951191663742|-0.3501284718513489|-0.9319500327110291|0|0|0|-1|-1|3
2021-04-22 20:23:13.223 +0100|136582.102364875|-0.0987091064453125|-0.3457794189453125|-0.935821533203125|136582.082403875|0.1785809171782561|-0.1004999401713597|0.3601425474800183|0.1571198999881744|0.008349996991455555|0.01867512986063957|-0.005562931299209595|0.01648631691932678|-0.00465160608291626|XArbitraryZVertical|0.1825675812889401|-0.03326931525368324|0.07865915263536992|0.9794770495330971|-0.09389428049325943|-0.3524076342582703|-0.9311244487762451|0|0|0|-1|-1|3
2021-04-22 20:23:13.243 +0100|136582.122326875|-0.100128173828125|-0.360260009765625|-0.927764892578125|136582.102364875|0.1789841346904847|-0.1007753918263215|0.3628195420955005|0.1162090227007866|-0.01261723041534424|-0.01151251047849655|-0.00276193767786026|0.01743391156196594|-0.004185140132904053|XArbitraryZVertical|0.1838938289234552|-0.03323780712734063|0.07874395060809918|0.9792231327364483|-0.09405551105737686|-0.3549116253852844|-0.9301565885543823|0|0|0|-1|-1|3
2021-04-22 20:23:13.263 +0100|136582.142287875|-0.0955047607421875|-0.3467559814453125|-0.9345245361328125|136582.122326875|0.178566284334772|-0.101049069588991|0.3640577184840398|0.02393137477338314|-0.01779553294181824|-0.05030100792646408|-0.00691579282283783|-0.004647910594940186|0.0004628896713256836|XArbitraryZVertical|0.1845028268173332|-0.03335037376268215|0.07847361208092876|0.9791263998661796|-0.09426566958427429|-0.3560689389705658|-0.9296929240226746|0|0|0|-1|-1|3
2021-04-22 20:23:13.283 +0100|136582.162249875|-0.10565185546875|-0.33203125|-0.9315185546875|136582.142287875|0.1772555828937908|-0.101491478160957|0.3634974907587655|-0.0509026050567627|-0.04195652902126312|-0.07125325500965118|-0.0009911283850669861|0.004319518804550171|-0.003988742828369141|XArbitraryZVertical|0.1842243163649303|-0.03371479112772013|0.07780951387185597|0.9792193360893333|-0.09469716250896454|-0.3555453717708588|-0.9298494458198547|0|0|0|-1|-1|3
2021-04-22 20:23:13.303 +0100|136582.182210875|-0.101959228515625|-0.326385498046875|-0.94207763671875|136582.162249875|0.1758994448548419|-0.1021374256551615|0.3620955401280042|-0.05267287418246269|-0.04932490736246109|-0.05429175496101379|-0.008976273238658905|0.01848119497299194|-0.004348635673522949|XArbitraryZVertical|0.1835409589763299|-0.03422288961002584|0.07713216986238525|0.9793836787033894|-0.09534850716590881|-0.3542346656322479|-0.9302830100059509|0|0|0|-1|-1|3
2021-04-22 20:23:13.323 +0100|136582.202172875|-0.10455322265625|-0.321075439453125|-0.9471588134765625|136582.182210875|0.174886958468202|-0.1029379549619021|0.3610254858197171|0.003850373439490795|-0.06493598967790604|-0.03099442273378372|-0.006086975336074829|0.02718490362167358|-0.004887998104095459|XArbitraryZVertical|0.1830311112366914|-0.03475865984726985|0.07659825616554795|0.9795020634415424|-0.09613208472728729|-0.3532337844371796|-0.9305828809738159|0|0|0|-1|-1|3
2021-04-22 20:23:13.343 +0100|136582.222133875|-0.1110076904296875|-0.3330841064453125|-0.9418182373046875|136582.202172875|0.1748290660147592|-0.1043530925863689|0.3623021039128012|0.1167273595929146|-0.06509044766426086|0.005933680105954409|-0.00536654144525528|0.0334143340587616|-0.02129757404327393|XArbitraryZVertical|0.183708381482292|-0.03539630855206517|0.07639775148610965|0.979368016599424|-0.09740184247493744|-0.354427844285965|-0.92999666929245|0|0|0|-1|-1|3
2021-04-22 20:23:13.363 +0100|136582.242095875|-0.1102752685546875|-0.336639404296875|-0.932830810546875|136582.222133875|0.1756542380353861|-0.1058043079544815|0.3654141887842925|0.2076229155063629|-0.04901587590575218|0.02596304751932621|-0.01074104011058807|0.03060063719749451|-0.01213473081588745|XArbitraryZVertical|0.1852996413820268|-0.03588223811288727|0.07656320829928984|0.9790377446733588|-0.09863439947366714|-0.357336163520813|-0.9287530183792114|0|0|0|-1|-1|3
2021-04-22 20:23:13.383 +0100|136582.262056875|-0.099945068359375|-0.3657379150390625|-0.93609619140625|136582.242095875|0.1772579672918658|-0.1072346422718637|0.3691874443060437|0.2004970908164978|-0.03044352494180202|0.07337610423564911|-0.01059532910585403|0.02067923545837402|-0.009992420673370361|XArbitraryZVertical|0.1872269797868389|-0.03625142528862644|0.07708621677862695|0.9786162113259355|-0.09981770068407059|-0.360857754945755|-0.9272637963294983|0|0|0|-1|-1|3
2021-04-22 20:23:13.403 +0100|136582.282018875|-0.096435546875|-0.375457763671875|-0.925933837890625|136582.262056875|0.1792297329839332|-0.1086730602732389|0.3725478420901407|0.2194480001926422|-0.03843503072857857|0.05950014665722847|-0.001398123800754547|0.001838505268096924|-0.01233947277069092|XArbitraryZVertical|0.1889595447606181|-0.03660625886606928|0.07779926753264289|0.9782135092923253|-0.1010193005204201|-0.3639896810054779|-0.9259085655212402|0|0|0|-1|-1|3
2021-04-22 20:23:13.423 +0100|136582.301979875|-0.1045379638671875|-0.3759307861328125|-0.9296875|136582.282018875|0.1808126401747081|-0.1101214171016505|0.3750019992834485|0.1287306696176529|-0.04945753514766693|0.04781366139650345|0.006695538759231567|-0.005383014678955078|0.00220179557800293|XArbitraryZVertical|0.1902431393128209|-0.03704385481295219|0.078349934587743|0.9779042702426454|-0.1022617593407631|-0.3662743866443634|-0.9248706102371216|0|0|0|-1|-1|3
2021-04-22 20:23:13.443 +0100|136582.321941875|-0.108489990234375|-0.3530731201171875|-0.9307098388671875|136582.301979875|0.1817842204943376|-0.1115399759627318|0.3756458938149577|0.04494938999414444|-0.04635260999202728|0.027132797986269|0.002732113003730774|-0.01053652167320251|-0.003671884536743164|XArbitraryZVertical|0.1906311765271946|-0.03761300448427337|0.07866701443203504|0.9777814785753784|-0.1035473719239235|-0.3668734729290009|-0.9244900345802307|0|0|0|-1|-1|3
2021-04-22 20:23:13.463 +0100|136582.341902|-0.1085968017578125|-0.34942626953125|-0.9342498779296875|136582.321941875|0.1824588762500678|-0.1128037529908681|0.3756118565886742|0.01953482814133167|-0.0429779589176178|0.01996365562081337|-0.002400092780590057|0.004995793104171753|-0.007697343826293945|XArbitraryZVertical|0.1906771274845802|-0.03816822078944811|0.07887758956995511|0.9777340290790848|-0.1047170385718346|-0.3668417930603027|-0.9243708252906799|0|0|0|-1|-1|3
2021-04-22 20:23:13.483 +0100|136582.361864|-0.1090240478515625|-0.3489227294921875|-0.92608642578125|136582.341902|0.1826090394688087|-0.1136347812988312|0.3760654765914805|0.07374268770217896|-0.03736284375190735|-0.01280449982732534|-0.003695502877235413|0.01792997121810913|-0.01037627458572388|XArbitraryZVertical|0.1909340902861307|-0.03853748152749176|0.07885530391876562|0.9776712062285151|-0.1054663062095642|-0.3672637641429901|-0.9241180419921875|0|0|0|-1|-1|3
2021-04-22 20:23:13.503 +0100|136582.381825|-0.1110687255859375|-0.3560638427734375|-0.921112060546875|136582.361864|0.1822373791952134|-0.1139794909847191|0.37779049942533|0.08917850255966187|-0.02938129752874374|-0.02506098710000515|-0.003021925687789917|0.0177638828754425|-0.0028342604637146|XArbitraryZVertical|0.1917819986431749|-0.03865533718091717|0.07857797582139216|0.9775229155846087|-0.1057126373052597|-0.3688676953315735|-0.9234508872032166|0|0|0|-1|-1|3
2021-04-22 20:23:13.532 +0100|136582.401787|-0.115875244140625|-0.364593505859375|-0.91693115234375|136582.381825|0.1816505544559855|-0.1141713834817283|0.3801119278689292|0.1190107986330986|-0.02774323895573616|-0.04180321842432022|-0.005521297454833984|0.01659417152404785|-0.0006407499313354492|XArbitraryZVertical|0.1929104198226346|-0.03868975213189766|0.07818818784487649|0.9773307582461548|-0.1057920008897781|-0.3710243999958038|-0.9225773215293884|0|0|0|-1|-1|3
2021-04-22 20:23:13.543 +0100|136582.421748|-0.1102294921875|-0.3785247802734375|-0.91107177734375|136582.401787|0.1807946668877435|-0.1143235112449885|0.3823786195874376|0.1070325672626495|-0.01481140870600939|-0.06869857013225555|-0.009337633848190308|0.01184692978858948|0.002945542335510254|XArbitraryZVertical|0.1940051198923184|-0.03873413295003172|0.07767259708651868|0.9771533852685206|-0.1058361381292343|-0.373128354549408|-0.9217233657836914|0|0|0|-1|-1|3
2021-04-22 20:23:13.563 +0100|136582.441709|-0.123260498046875|-0.37750244140625|-0.9011993408203125|136582.421748|0.1793553792384797|-0.1141301954892048|0.3839335700027663|0.08003445714712143|-0.01740197092294693|-0.09056258946657181|-0.005172237753868103|-0.001756042242050171|0.01047563552856445|XArbitraryZVertical|0.1947279451112476|-0.03870262945662666|0.07693153105388667|0.9770694765732623|-0.1055917516350746|-0.3745705485343933|-0.9211662411689758|0|0|0|-1|-1|3
2021-04-22 20:23:13.583 +0100|136582.461671|-0.131134033203125|-0.3774261474609375|-0.8780059814453125|136582.441709|0.1771551416882724|-0.1136024559201043|0.3843255034438894|-0.01885800063610077|0.0009319214150309563|-0.1318916529417038|-0.01408261805772781|-0.004200249910354614|0.01728230714797974|XArbitraryZVertical|0.194856332577792|-0.03863988242428516|0.07589377798753524|0.9771275515993015|-0.1050889566540718|-0.3749339282512665|-0.9210759401321411|0|0|0|-1|-1|3
2021-04-22 20:23:13.603 +0100|136582.481632|-0.167022705078125|-0.4169464111328125|-0.8724517822265625|136582.461671|0.1732810903866207|-0.111972754819668|0.3832669352680333|-0.08892646431922913|0.02445301413536072|-0.2234718054533005|-0.02591553330421448|-0.004693567752838135|0.03662979602813721|XArbitraryZVertical|0.1942044297673824|-0.03827142367426335|0.0741972930525191|0.9774021231298567|-0.1036320254206657|-0.3739523589611053|-0.9216398596763611|0|0|0|-1|-1|3
2021-04-22 20:23:13.623 +0100|136582.501594|-0.1995697021484375|-0.4011688232421875|-0.811187744140625|136582.481632|0.1665544285653415|-0.1089463017285095|0.3802223889511735|-0.2403422892093658|0.0948750376701355|-0.3938725888729095|-0.05600203573703766|-0.0265313982963562|0.04905301332473755|XArbitraryZVertical|0.1924811721422193|-0.03758474585159689|0.07130823633336049|0.9779844560447538|-0.1009655818343163|-0.3711269795894623|-0.9230767488479614|0|0|0|-1|-1|3
2021-04-22 20:23:13.642 +0100|136582.521555|-0.288360595703125|-0.349609375|-0.750335693359375|136582.501594|0.1565288071016557|-0.1031159164524567|0.3740092456000474|-0.4667305648326874|0.1463720947504044|-0.3915027379989624|-0.08574727922677994|-0.0353597104549408|0.1143254637718201|XArbitraryZVertical|0.1890601774427548|-0.03596514345785791|0.06716743736635908|0.9790052643529816|-0.09581750631332397|-0.3653504550457001|-0.9259254932403564|0|0|0|-1|-1|3
2021-04-22 20:23:13.663 +0100|136582.541517|-0.3122711181640625|-0.34686279296875|-0.6821746826171875|136582.521555|0.1467796254718338|-0.0955600006397445|0.3643916667565189|-0.6925253868103027|0.3148138821125031|-0.4602759480476379|-0.1824418604373932|-0.002245455980300903|0.1587763428688049|XArbitraryZVertical|0.183939645367083|-0.03357447213359052|0.0633973617162122|0.9803162203433083|-0.08914977312088013|-0.356380969285965|-0.9300779104232788|0|0|0|-1|-1|3
2021-04-22 20:23:13.683 +0100|136582.561478|-0.3123779296875|-0.3432769775390625|-0.647491455078125|136582.541517|0.1331989941517144|-0.08337829588555289|0.3489942580113202|-1.014759540557861|0.4461943507194519|-0.6774305701255798|-0.233705148100853|-0.0009264647960662842|0.2372030019760132|XArbitraryZVertical|0.1758090145602162|-0.02940922255068598|0.05826305416903423|0.9822585341484918|-0.07826126366853714|-0.3419528603553772|-0.9364525675773621|0|0|0|-1|-1|3
2021-04-22 20:23:13.703 +0100|136582.58144|-0.2429962158203125|-0.3208465576171875|-0.668060302734375|136582.561478|0.1148806548356456|-0.06734282592341009|0.3248441116097073|-1.545007705688477|0.5590964555740356|-0.8781421184539795|-0.2519016861915588|-0.02728882431983948|0.2935135364532471|XArbitraryZVertical|0.1632578684036745|-0.02388893651481452|0.05118608750359759|0.9849651345009806|-0.06377260386943817|-0.319161057472229|-0.9455523490905762|0|0|0|-1|-1|3
2021-04-22 20:23:13.722 +0100|136582.601401|-0.129791259765625|-0.2817535400390625|-0.727508544921875|136582.58144|0.09155558138911132|-0.04784771780275767|0.289376767716369|-2.124413967132568|0.6742035150527954|-1.131115317344666|-0.2234925627708435|-0.04244866967201233|0.3026922345161438|XArbitraryZVertical|0.1450750561614546|-0.01705058310924269|0.0418251754512859|0.9883892377444428|-0.0458408035337925|-0.2853549718856812|-0.9573249816894531|0|0|0|-1|-1|3
2021-04-22 20:23:13.742 +0100|136582.621363|-0.0651397705078125|-0.24908447265625|-0.7961883544921875|136582.601401|0.06405268654327317|-0.02716257073342708|0.2421026404583455|-2.713277816772461|0.6558735370635986|-1.360200643539429|-0.1265721917152405|-0.05349801480770111|0.2573734521865845|XArbitraryZVertical|0.1211145157144368|-0.009608220371169453|0.03014448268266754|0.9921343541747673|-0.02636715956032276|-0.2397444695234299|-0.9704779386520386|0|0|0|-1|-1|3
2021-04-22 20:23:13.762 +0100|136582.641324|-0.017730712890625|-0.20220947265625|-0.8660430908203125|136582.621363|0.03280531965724952|-0.007844121999473326|0.1824751292060986|-3.324551105499268|0.6250656843185425|-1.583125352859497|-0.07062534242868423|-0.07743078470230103|0.2032310366630554|XArbitraryZVertical|0.09116213402251912|-0.002410827931339128|0.01597628368073238|0.9957050528442841|-0.007713811472058296|-0.1814641654491425|-0.9833673238754272|0|0|0|-1|-1|3
2021-04-22 20:23:13.782 +0100|136582.661286|0.018035888671875|-0.0801239013671875|-0.9129638671875|136582.641324|-0.0006355873492041633|0.00954982787401832|0.1101441964457417|-3.880081653594971|0.6255763173103333|-1.731304883956909|-0.03718707710504532|-0.1057756766676903|0.1435683369636536|XArbitraryZVertical|0.05504514311306263|0.004750163386710236|-5.447768795676299e-05|0.9984726714398343|0.0094918143004179|-0.1099216267466545|-0.9938949346542358|0|0|0|-1|-1|3
2021-04-22 20:23:13.802 +0100|136582.681247|0.0501861572265625|0.129150390625|-0.957672119140625|136582.661286|-0.03488885722524365|0.02428671943751014|0.02866770541349994|-4.146180152893066|0.6143237352371216|-1.815558195114136|-0.01446354202926159|-0.08988082408905029|0.09502792358398438|XArbitraryZVertical|0.01454191928284602|0.01188995920898964|-0.01726643997670554|0.9996745561892231|0.02427435293793678|-0.02866377867758274|-0.9992943406105042|0|0|0|-1|-1|3
2021-04-22 20:23:13.822 +0100|136582.701209|0.0510101318359375|0.3051605224609375|-1.034713745117188|136582.681247|-0.06846601352885229|0.035813617934365|-0.05369047606136339|-3.930068492889404|0.5695299506187439|-1.774011611938477|0.006954360753297806|0.01727434992790222|0.05947268009185791|XArbitraryZVertical|-0.02620935330314087|0.01880746727419396|-0.03468884752883365|0.9988774837025098|0.03575436770915985|0.0536646842956543|-0.9979187250137329|0|0|0|-1|-1|3
2021-04-22 20:23:13.842 +0100|136582.72117|0.079986572265625|0.3971710205078125|-1.07135009765625|136582.701209|-0.1000901653677901|0.04373398982412334|-0.1275097971024127|-3.274129390716553|0.5167564749717712|-1.672228813171387|0.007308673113584518|0.1433746814727783|-0.02745354175567627|XArbitraryZVertical|-0.06252516358140874|0.02497987325911084|-0.05130195327168168|0.9964109905093979|0.04336511343717575|0.1271645575761795|-0.9909332394599915|0|0|0|-1|-1|3
2021-04-22 20:23:13.862 +0100|136582.741132|0.1169586181640625|0.4232025146484375|-1.105484008789062|136582.72117|-0.1300876579955238|0.04884931110504624|-0.1857940275144341|-2.407202243804932|0.4562504291534424|-1.566566348075867|0.02278006076812744|0.1948210299015045|-0.08256077766418457|XArbitraryZVertical|-0.0909591364036465|0.03029313968695155|-0.06695911021817647|0.9931391043920481|0.04798951745033264|0.1847269535064697|-0.9816175103187561|0|0|0|-1|-1|3
2021-04-22 20:23:13.882 +0100|136582.761093|0.1446075439453125|0.4089202880859375|-1.141387939453125|136582.741132|-0.1588753998271552|0.05095621589863738|-0.2267997088681563|-1.579362154006958|0.3483131229877472|-1.451765894889832|0.06035484746098518|0.1972749084234238|-0.1237363219261169|XArbitraryZVertical|-0.1107549160221953|0.03420846604832026|-0.08169252561387264|0.989893728269597|0.04962979257106781|0.2248603403568268|-0.973126232624054|0|0|0|-1|-1|3
2021-04-22 20:23:13.902 +0100|136582.781055|0.130828857421875|0.3870697021484375|-1.141937255859375|136582.761093|-0.1860680705175729|0.04997274917833269|-0.2530014491351918|-0.925638735294342|0.1926896870136261|-1.322607159614563|0.09165216237306595|0.1665294468402863|-0.1603623032569885|XArbitraryZVertical|-0.1232763400882768|0.03639388028128494|-0.0952671997963415|0.9871184346606596|0.04836175590753555|0.2503109872341156|-0.9669568538665771|0|0|0|-1|-1|3
2021-04-22 20:23:13.922 +0100|136582.801016|0.092926025390625|0.379974365234375|-1.174591064453125|136582.781055|-0.2114821538203364|0.04562732315623241|-0.2677540340253724|-0.4743835628032684|0.04247819259762764|-1.193712830543518|0.09457807242870331|0.1256476640701294|-0.1770930886268616|XArbitraryZVertical|-0.1303112893578555|0.0365653783146568|-0.1076003174998114|0.9849387484226754|0.0439862422645092|0.26456618309021|-0.9633638858795166|0|0|0|-1|-1|3
2021-04-22 20:23:13.942 +0100|136582.820978|0.0433502197265625|0.330810546875|-1.136734008789062|136582.801016|-0.2345340807216876|0.0395216461140528|-0.2743831659602914|-0.1204839274287224|-0.01814600452780724|-1.089600801467896|0.0667327344417572|0.1116464734077454|-0.2068601250648499|XArbitraryZVertical|-0.1335057301971288|0.03543721941548125|-0.1185602960158398|0.9832923795709011|0.03803333640098572|0.2709532380104065|-0.9618408679962158|0|0|0|-1|-1|3
2021-04-22 20:23:13.962 +0100|136582.840939|-0.001861572265625|0.287322998046875|-1.082870483398438|136582.820978|-0.2565411587274772|0.03352161187806544|-0.2749349026394412|0.1400616019964218|0.02126798033714294|-1.029324531555176|0.02342193946242332|0.07139676809310913|-0.182995080947876|XArbitraryZVertical|-0.1337663052153001|0.03399243777600293|-0.1289723957624631|0.9819965960123161|0.0322565957903862|0.2714842855930328|-0.9619022011756897|0|0|0|-1|-1|3
2021-04-22 20:23:13.982 +0100|136582.860901|-0.0022125244140625|0.26348876953125|-1.043960571289062|136582.840939|-0.2772849451622079|0.02912058897557651|-0.2712928095677027|0.263773113489151|0.1063724383711815|-0.9647648930549622|-0.02045347169041634|0.03065335750579834|-0.1377673149108887|XArbitraryZVertical|-0.1319253331036203|0.03297435066404693|-0.1388647754021824|0.9809307582901059|0.02805154584348202|0.2679771780967712|-0.9630168080329895|0|0|0|-1|-1|3
2021-04-22 20:23:14.002 +0100|136582.880862|0.013702392578125|0.2496337890625|-1.011947631835938|136582.860901|-0.2969623295407826|0.02685918168624453|-0.2659092972063967|0.2987699210643768|0.1811862736940384|-0.9179520010948181|-0.03279460221529007|0.005463540554046631|-0.09036445617675781|XArbitraryZVertical|-0.1291237287565435|0.03277334650449375|-0.1483779791879072|0.9799168295917271|0.02591207250952721|0.2627867162227631|-0.9645059704780579|0|0|0|-1|-1|3
2021-04-22 20:23:14.035 +0100|136582.900824|0.02606201171875|0.25115966796875|-0.978485107421875|136582.880862|-0.3158499225315432|0.02575752140023762|-0.2608541429136548|0.2373747378587723|0.1964575797319412|-0.894787609577179|-0.01243305206298828|-0.004899173974990845|-0.05583298206329346|XArbitraryZVertical|-0.1264203027722726|0.03306249573094504|-0.157574713888113|0.978823263067696|0.02488339319825172|0.257905900478363|-0.9658495783805847|0|0|0|-1|-1|3
2021-04-22 20:23:14.042 +0100|136582.920785|0.03814697265625|0.2558746337890625|-0.974365234375|136582.900824|-0.3341109720317251|0.02486718182124164|-0.2581466825867603|0.08202683180570602|0.185058668255806|-0.8756237030029297|0.0006318949162960052|-0.00559350848197937|-0.01504713296890259|XArbitraryZVertical|-0.1248633389573649|0.03355925211421781|-0.1664616874148394|0.9775344252470498|0.02404072508215904|0.2552890777587891|-0.9665658473968506|0|0|0|-1|-1|3
2021-04-22 20:23:14.062 +0100|136582.940747|0.0457763671875|0.2803955078125|-0.9674224853515625|136582.920785|-0.3522288494411446|0.0237769528463937|-0.2583506621029475|-0.07410492748022079|0.1694327890872955|-0.8779640197753906|0.01206288486719131|-0.003608733415603638|-0.01754552125930786|XArbitraryZVertical|-0.124749353736422|0.03417452698057581|-0.175241124607092|0.9759919669124333|0.02298569306731224|0.2554863095283508|-0.9665393829345703|0|0|0|-1|-1|3
2021-04-22 20:23:14.082 +0100|136582.960708|0.048858642578125|0.303436279296875|-0.9551849365234375|136582.940747|-0.3700094731551737|0.02242171135404832|-0.2615622029112977|-0.1910727322101593|0.1539787799119949|-0.8550114631652832|0.02355364710092545|0.014588862657547|-0.001861035823822021|XArbitraryZVertical|-0.1261305758015831|0.03491251777195999|-0.1838058411224825|0.9742113831811131|0.02165727131068707|0.2585899233818054|-0.9657443761825562|0|0|0|-1|-1|3
2021-04-22 20:23:14.102 +0100|136582.98067|0.04278564453125|0.30279541015625|-0.950225830078125|136582.960708|-0.3874154131418344|0.02110684855812473|-0.266379661263227|-0.2440290153026581|0.1752521693706512|-0.8321466445922852|0.02854263037443161|0.03615286946296692|0.002525150775909424|XArbitraryZVertical|-0.1282919739387409|0.0358258170064253|-0.1921582490425277|0.9722824390582606|0.02036090381443501|0.2632405161857605|-0.9645153880119324|0|0|0|-1|-1|3
2021-04-22 20:23:14.122 +0100|136583.000631|0.0501861572265625|0.3020477294921875|-0.9317169189453125|136582.98067|-0.4040941658097358|0.02061153383991676|-0.2710214493233934|-0.2238313406705856|0.2230980843305588|-0.7853537797927856|0.02253025956451893|0.03576695919036865|0.01453250646591187|XArbitraryZVertical|-0.1302920593812994|0.03711243087641362|-0.2001888368398733|0.9703459787234069|0.01985776424407959|0.2677157521247864|-0.9632933139801025|0|0|0|-1|-1|3
2021-04-22 20:23:14.142 +0100|136583.020592|0.0659637451171875|0.28399658203125|-0.9269561767578125|136583.000631|-0.4198708515848543|0.02164895094259458|-0.2752667743537638|-0.2125730067491531|0.2791741490364075|-0.7576526403427124|0.02637749165296555|0.03247249126434326|0.02722138166427612|XArbitraryZVertical|-0.1319446927029782|0.03907669686733099|-0.207866401047755|0.9684293006782999|0.02083230018615723|0.2718036770820618|-0.9621272087097168|0|0|0|-1|-1|3
2021-04-22 20:23:14.162 +0100|136583.040554|0.0781402587890625|0.2749786376953125|-0.93280029296875|136583.020592|-0.4350169647911008|0.02369730436263796|-0.2796153769313791|-0.2127985954284668|0.2898558676242828|-0.7202916741371155|0.03940384835004807|0.01222267746925354|0.0341646671295166|XArbitraryZVertical|-0.1335278066202722|0.04152615734762308|-0.2152890815860705|0.9664868090725616|0.02277480810880661|0.275985985994339|-0.9608917832374573|0|0|0|-1|-1|3
2021-04-22 20:23:14.182 +0100|136583.060515|0.0735321044921875|0.27984619140625|-0.9268646240234375|136583.040554|-0.4494583395842652|0.02581876228696582|-0.2847661336545345|-0.2455157339572906|0.27398881316185|-0.6969161033630371|0.05166939273476601|-0.003207176923751831|0.02929294109344482|XArbitraryZVertical|-0.135475151668313|0.0440763055887926|-0.2223546865572135|0.9645010970618606|0.02477622032165527|0.2809330224990845|-0.9594075083732605|0|0|0|-1|-1|3
2021-04-22 20:23:14.201 +0100|136583.080477|0.0597076416015625|0.2843170166015625|-0.94378662109375|136583.060515|-0.4634175503075975|0.02741307154241047|-0.2912222970804967|-0.3275923728942871|0.2419268935918808|-0.6670992970466614|0.04983913153409958|-0.007779985666275024|0.02773958444595337|XArbitraryZVertical|-0.1380920187434075|0.04651574779643564|-0.2291249672012136|0.9624286542381695|0.02625551819801331|0.2871232628822327|-0.9575337767601013|0|0|0|-1|-1|3
2021-04-22 20:23:14.221 +0100|136583.100438|0.06402587890625|0.28875732421875|-0.9433746337890625|136583.080477|-0.4768774702527028|0.02859176720518659|-0.299220895128251|-0.4158183038234711|0.2368358373641968|-0.6658239364624023|0.03560870140790939|-0.01253339648246765|0.01230496168136597|XArbitraryZVertical|-0.1414824644272297|0.04893636626279201|-0.2355940528747982|0.9602517778833842|0.02731761150062084|0.2947758138179779|-0.9551758766174316|0|0|0|-1|-1|3
2021-04-22 20:23:14.241 +0100|136583.1204|0.0510711669921875|0.3194580078125|-0.9439239501953125|136583.100438|-0.4903024213085539|0.02996362210989022|-0.3092251254183927|-0.535252571105957|0.2382926940917969|-0.65726238489151|0.03493744879961014|-0.01687493920326233|0.007714748382568359|XArbitraryZVertical|-0.1457834825651408|0.05173136639706098|-0.2420190505680757|0.9578610984708189|0.02853816747665405|0.3043206036090851|-0.952142059803009|0|0|0|-1|-1|3
2021-04-22 20:23:14.261 +0100|136583.140361|0.025970458984375|0.3421173095703125|-0.9407501220703125|136583.1204|-0.5030210145151773|0.03168996924718923|-0.3205333890543558|-0.5962855815887451|0.2483956217765808|-0.6262941360473633|0.02710284106433392|-0.00406762957572937|0.003385484218597412|XArbitraryZVertical|-0.1506486651708787|0.05485877096901075|-0.248095989045127|0.955376356030763|0.03007088601589203|0.3150728344917297|-0.9485909938812256|0|0|0|-1|-1|3
2021-04-22 20:23:14.282 +0100|136583.160323|0.0238494873046875|0.3577728271484375|-0.9366455078125|136583.140361|-0.5152458393749714|0.03407977895551187|-0.3320517008725112|-0.5806677341461182|0.2988692820072174|-0.6069527864456177|-0.001359645277261734|0.01024460792541504|0.001986205577850342|XArbitraryZVertical|-0.1555054058817454|0.05835050550785694|-0.2539657428219937|0.9528455949110746|0.03221195191144943|0.3259833455085754|-0.944826602935791|0|0|0|-1|-1|3
2021-04-22 20:23:14.301 +0100|136583.180284|0.033905029296875|0.3673858642578125|-0.928009033203125|136583.160323|-0.5272340094192149|0.03734618274727314|-0.3425522132817909|-0.5107494592666626|0.3551614284515381|-0.5861662030220032|-0.01217418909072876|0.01989763975143433|0.005849599838256836|XArbitraryZVertical|-0.159728913100791|0.06216769366304207|-0.2597893175374394|0.9503323570618561|0.03516821190714836|0.3358921110630035|-0.9412437081336975|0|0|0|-1|-1|3
2021-04-22 20:23:14.321 +0100|136583.200246|0.0353546142578125|0.3634796142578125|-0.9276580810546875|136583.180284|-0.5388566042143251|0.04114864207311002|-0.3515378903443954|-0.4565053880214691|0.36379474401474|-0.5640621185302734|-0.007830005139112473|0.02019092440605164|0.008240163326263428|XArbitraryZVertical|-0.1631293114660034|0.06606097933749666|-0.2654914159719212|0.9479130542117181|0.03862126544117928|0.344342052936554|-0.9380495548248291|0|0|0|-1|-1|3
2021-04-22 20:23:14.342 +0100|136583.220207|0.0348358154296875|0.3616485595703125|-0.9316558837890625|136583.200246|-0.5503078086657817|0.04443943616694337|-0.3598987098167484|-0.4301726818084717|0.329307496547699|-0.5596101880073547|-0.006347067654132843|0.0113770067691803|0.006923317909240723|XArbitraryZVertical|-0.16626558096593|0.06965275258908013|-0.2710688801758735|0.9455295713934116|0.04157862439751625|0.3521794378757477|-0.9350085258483887|0|0|0|-1|-1|3
2021-04-22 20:23:14.361 +0100|136583.240169|0.0295562744140625|0.3505859375|-0.935150146484375|136583.220207|-0.5616990777734153|0.0465652313304834|-0.3684524798140499|-0.4446302652359009|0.2971113920211792|-0.5469890236854553|-0.007567185908555984|0.004147142171859741|-0.0007423758506774902|XArbitraryZVertical|-0.1696175352809318|0.07275012354177454|-0.2765054988524844|0.9431235550589584|0.04342434927821159|0.3601722121238708|-0.9318746328353882|0|0|0|-1|-1|3
2021-04-22 20:23:14.381 +0100|136583.26013|0.0301513671875|0.3447265625|-0.9345245361328125|136583.240169|-0.5732224119801915|0.04755481307997079|-0.3783182416099538|-0.5301902890205383|0.2612833380699158|-0.5564332604408264|-0.01234657317399979|-0.01756623387336731|-0.006959199905395508|XArbitraryZVertical|-0.1737102949145694|0.07554105277964257|-0.2818702670749781|0.9405677504147846|0.04417541995644569|0.3693581521511078|-0.9282365441322327|0|0|0|-1|-1|3
2021-04-22 20:23:14.401 +0100|136583.280092|0.0358123779296875|0.3385162353515625|-0.931243896484375|136583.26013|-0.5847793909634814|0.04783243835594665|-0.3903571097718186|-0.6492732167243958|0.2381503880023956|-0.5595435500144958|-0.01338028162717819|-0.03254148364067078|-0.01123607158660889|XArbitraryZVertical|-0.1788951609962472|0.0783502075417418|-0.2871286757578105|0.9377713192327786|0.04421729221940041|0.3805186748504639|-0.9237155318260193|0|0|0|-1|-1|3
2021-04-22 20:23:14.421 +0100|136583.300053|0.054229736328125|0.3384857177734375|-0.9222412109375|136583.280092|-0.5964326096442281|0.0477521968672487|-0.4046723307567323|-0.7751650214195251|0.2269801795482635|-0.581616997718811|-0.01122583076357841|-0.05372077226638794|-0.01240396499633789|XArbitraryZVertical|-0.1851623324771762|0.08138244173733447|-0.2923256380330201|0.9346858634664154|0.04387864097952843|0.3937175869941711|-0.9181836247444153|0|0|0|-1|-1|3
2021-04-22 20:23:14.441 +0100|136583.320015|0.0642242431640625|0.335052490234375|-0.899505615234375|136583.300053|-0.6086993926387702|0.04722988478400847|-0.4215666627213755|-0.9383053183555603|0.2352639883756638|-0.6199854016304016|0.006007671356201172|-0.06971243023872375|-0.01344931125640869|XArbitraryZVertical|-0.1926351922704211|0.08471077606613198|-0.2976718588212953|0.931186098169404|0.04307884350419044|0.409190446138382|-0.9114315509796143|0|0|0|-1|-1|3
2021-04-22 20:23:14.461 +0100|136583.3399761667|0.0710601806640625|0.3535003662109375|-0.871246337890625|136583.320015|-0.6219522278494802|0.04602806278709342|-0.4412691738370051|-1.117092967033386|0.2220850735902786|-0.6696799397468567|0.02144394814968109|-0.09119522571563721|-0.002630889415740967|XArbitraryZVertical|-0.2014259607409594|0.08832453910290422|-0.3032860427759408|0.9271699824157381|0.04160435870289803|0.4270873963832855|-0.9032527208328247|0|0|0|-1|-1|3
2021-04-22 20:23:14.481 +0100|136583.3599381667|0.0576629638671875|0.419525146484375|-0.859771728515625|136583.3399761667|-0.6363992709619419|0.04339307752473259|-0.4642924442468843|-1.319538831710815|0.1772746294736862|-0.7238102555274963|0.03091387450695038|-0.1030327379703522|0.01332277059555054|XArbitraryZVertical|-0.2118606563373556|0.09201405779814259|-0.309133680626598|0.922542624723562|0.03878725320100784|0.447790265083313|-0.8932969570159912|0|0|0|-1|-1|3
2021-04-22 20:23:14.501 +0100|136583.3798991667|0.0240478515625|0.4762420654296875|-0.8556671142578125|136583.3599381667|-0.6517328046528318|0.03910050638785478|-0.4917658753295219|-1.479314923286438|0.1125987991690636|-0.7447172403335571|0.02862047776579857|-0.07281455397605896|0.02030748128890991|XArbitraryZVertical|-0.2244888208240726|0.09587193988642112|-0.3149498024868199|0.9171805189114155|0.03445833176374435|0.4721832573413849|-0.8808266520500183|0|0|0|-1|-1|3
2021-04-22 20:23:14.521 +0100|136583.3998611667|0.00225830078125|0.510467529296875|-0.8494110107421875|136583.3798991667|-0.6675325434309639|0.03329557431920917|-0.5220566753270164|-1.474092125892639|0.08077183365821838|-0.7563613057136536|0.002378582954406738|-0.03664261102676392|0.01183831691741943|XArbitraryZVertical|-0.2385297345124371|0.09972990674985444|-0.3205214369393674|0.9112758265862219|0.02885512076318264|0.4986639022827148|-0.8663150072097778|0|0|0|-1|-1|3
2021-04-22 20:23:14.541 +0100|136583.4198221667|-0.000579833984375|0.483123779296875|-0.851470947265625|136583.3998611667|-0.6842444777773619|0.02638771566231955|-0.5515161295133181|-1.452817440032959|0.09276943653821945|-0.7809763550758362|-0.01435600407421589|-0.0158611536026001|0.003091931343078613|XArbitraryZVertical|-0.2522152646446619|0.1032965478661146|-0.3261680576922067|0.9051694336638102|0.02247262932360172|0.5239791870117188|-0.851434588432312|0|0|0|-1|-1|3
2021-04-22 20:23:14.561 +0100|136583.4397841667|0.010040283203125|0.455291748046875|-0.8307647705078125|136583.4198221667|-0.7028345435813008|0.01852490021699313|-0.5815613677371345|-1.55065393447876|0.1185886189341545|-0.8594338893890381|-0.0186382383108139|-0.05816376209259033|-0.01806807518005371|XArbitraryZVertical|-0.2661126918947164|0.1070174118645759|-0.3322572535903122|0.8985190971935579|0.01547863241285086|0.5493292808532715|-0.8354626297950745|0|0|0|-1|-1|3
2021-04-22 20:23:14.581 +0100|136583.4597451667|0.010467529296875|0.4523162841796875|-0.8109130859375|136583.4597451667|-0.7484994545406509|-0.003024696170648316|-0.6548700669184239|-2.164400100708008|0.1190027892589569|-1.06005597114563|0.01268231868743896|-0.1581281423568726|-0.02934026718139648|XArbitraryZVertical|-0.2998770140448408|0.1162412786543299|-0.3456983247887709|0.8815069839651052|-0.002398964948952198|0.6090561747550964|-0.7931234836578369|0|0|0|-1|-1|3
2021-04-22 20:23:14.601 +0100|136583.4797071667|0.014739990234375|0.482818603515625|-0.786865234375||||||||||||||||||||||||3
2021-04-22 20:23:14.621 +0100|136583.4996681667|-0.0080108642578125|0.541748046875|-0.7462615966796875|136583.4797071667|-0.7780243008862028|-0.01933895718403385|-0.7010288001998095|-2.470759153366089|0.09786272794008255|-1.185853600502014|0.02770063281059265|-0.1766048669815063|-0.02766585350036621|XArbitraryZVertical|-0.3211544541004903|0.121826680231994|-0.3531243661278904|0.87024213794762|-0.01477750483900309|0.6450042128562927|-0.7640361785888672|0|0|0|-1|-1|3
2021-04-22 20:23:14.641 +0100|136583.5196301667|-0.045166015625|0.6473236083984375|-0.7006378173828125|136583.4996681667|-0.813047133071563|-0.04090424095281945|-0.7520141343473853|-2.687784910202026|0.06925585120916367|-1.287585973739624|0.02974148280918598|-0.1562706232070923|-0.02575868368148804|XArbitraryZVertical|-0.3447332938377194|0.1276993098614886|-0.3608193801778079|0.8571239491399609|-0.02986463345587254|0.6831110715866089|-0.7297036647796631|0|0|0|-1|-1|3
2021-04-22 20:23:14.661 +0100|136583.5395911667|-0.112823486328125|0.75439453125|-0.6697998046875|136583.5196301667|-0.8543400929941473|-0.06922634646671372|-0.8052291891832635|-2.791181087493896|-0.01769518479704857|-1.340641975402832|0.01336957514286041|-0.1042594909667969|-0.01402038335800171|XArbitraryZVertical|-0.369593716097839|0.1332565022527403|-0.3685999862857793|0.8424829221030838|-0.04793182387948036|0.720989465713501|-0.6912863850593567|0|0|0|-1|-1|3
2021-04-22 20:23:14.680 +0100|136583.5595531667|-0.1561737060546875|0.8495635986328125|-0.6186370849609375|136583.5395911667|-0.9008138183994465|-0.1041974459898226|-0.85769353315363|-2.652744770050049|0.008886890485882759|-1.331161975860596|-0.02120877057313919|-0.02647691965103149|-0.02795261144638062|XArbitraryZVertical|-0.3944614564745137|0.1381386127063124|-0.3758791233848316|0.8270629120417354|-0.06804100424051285|0.7563357353210449|-0.6506357789039612|0|0|0|-1|-1|3
2021-04-22 20:23:14.700 +0100|136583.5795141667|-0.1629180908203125|0.866363525390625|-0.58941650390625|136583.5595531667|-0.9517185950720302|-0.1421496391043033|-0.9036382225169558|-2.303244113922119|0.1054708510637283|-1.311569452285767|-0.06761452555656433|0.04715001583099365|-0.01817619800567627|XArbitraryZVertical|-0.4163838271949167|0.1427129962235173|-0.3835326912112986|0.8118868127516513|-0.08766002207994461|0.7855832576751709|-0.6125150322914124|0|0|0|-1|-1|3
2021-04-22 20:23:14.721 +0100|136583.5994761667|-0.1508941650390625|0.8538055419921875|-0.567047119140625|136583.5994761667|-1.058662592139821|-0.2179846124016331|-0.9681638037003591|-1.517188787460327|0.4153152406215668|-1.208052039146423|-0.03234317898750305|0.03652060031890869|-0.01634764671325684|XArbitraryZVertical|-0.4479368729619055|0.1505077064297176|-0.4005900166033164|0.7850018558754965|-0.122580423951149|0.8238463401794434|-0.5533999800682068|0|0|0|-1|-1|3
2021-04-22 20:23:14.740 +0100|136583.6194371667|-0.1412506103515625|0.8451995849609375|-0.5255889892578125||||||||||||||||||||||||3
2021-04-22 20:23:14.760 +0100|136583.6393991667|-0.144287109375|0.893646240234375|-0.5156097412109375|136583.6194371667|-1.111520477652426|-0.2526299466690709|-0.9905268147687876|-1.382392168045044|0.4980801939964294|-1.135733366012573|-0.006596386432647705|0.001621544361114502|-0.01013755798339844|XArbitraryZVertical|-0.4589984933519018|0.1545857017502174|-0.4096352872999032|0.7730607116117041|-0.1370356976985931|0.8363149166107178|-0.5308473110198975|0|0|0|-1|-1|3
2021-04-22 20:23:14.780 +0100|136583.6593601667|-0.135101318359375|0.919769287109375|-0.5369873046875|136583.6593601667|-1.2121208461128|-0.3166114231109201|-1.02544927494823|-0.9189354181289673|0.5809493660926819|-0.9879699945449829|0.01532070338726044|0.06953698396682739|-0.05349940061569214|XArbitraryZVertical|-0.4763963143309619|0.1630341591855722|-0.4266182426444088|0.7513078993593639|-0.1615010201931|0.8549473285675049|-0.4929328262805939|0|0|0|-1|-1|3
2021-04-22 20:23:14.800 +0100|136583.6793221667|-0.065521240234375|0.9127349853515625|-0.6036224365234375||||||||||||||||||||||||3
2021-04-22 20:23:14.821 +0100|136583.6992831667|0.0040130615234375|0.8518829345703125|-0.6218109130859375|136583.6793221667|-1.259087655375037|-0.3448697579899048|-1.036230181160361|-0.8981301188468933|0.6079640984535217|-0.9384572505950928|0.08063830435276031|0.07536232471466064|-0.1075809001922607|XArbitraryZVertical|-0.4821311216700374|0.166776682606396|-0.4352313901058716|0.7418281231987637|-0.1722379326820374|0.8604897260665894|-0.4794702529907227|0|0|0|-1|-1|3
2021-04-22 20:23:14.840 +0100|136583.7192451667|-0.0041961669921875|0.83563232421875|-0.6035919189453125|136583.6992831667|-1.304136996555314|-0.3727135573235096|-1.045962404624228|-0.8475244641304016|0.4988212585449219|-0.8500106334686279|0.1782794296741486|-0.003484010696411133|-0.1539379060268402|XArbitraryZVertical|-0.4875215586290937|0.1702617357292816|-0.4430623363815107|0.7328230234667793|-0.1824614405632019|0.8654071688652039|-0.4666673541069031|0|0|0|-1|-1|3
2021-04-22 20:23:14.860 +0100|136583.7392061667|-0.0270233154296875|0.827117919921875|-0.5620574951171875|136583.7192451667|-1.346506680473118|-0.3999646662843369|-1.056221588236085|-0.8861296772956848|0.4648840427398682|-0.71940016746521|0.1923580318689346|-0.04028671979904175|-0.1589686572551727|XArbitraryZVertical|-0.4930887247903517|0.1737907890799076|-0.4495902274791828|0.7242437141385425|-0.1916419714689255|0.8705021142959595|-0.4533205330371857|0|0|0|-1|-1|3
2021-04-22 20:23:14.880 +0100|136583.7591681667|-0.0322265625|0.8457794189453125|-0.480804443359375|136583.7392061667|-1.384379392113246|-0.4241294716574341|-1.066523137722368|-0.757700502872467|0.4295589625835419|-0.5508933663368225|0.1774596869945526|-0.04192304611206055|-0.1387554407119751|XArbitraryZVertical|-0.498263609641959|0.1776310760386405|-0.4549264585648399|0.7163956119319713|-0.1988383531570435|0.8755258917808533|-0.4403611421585083|0|0|0|-1|-1|3
2021-04-22 20:23:14.900 +0100|136583.7791291667|-0.027099609375|0.9218597412109375|-0.4657440185546875|136583.7591681667|-1.411913773520488|-0.4402020998038126|-1.074279622857092|-0.4797360599040985|0.3766883015632629|-0.3265274465084076|0.1690534204244614|-0.04521721601486206|-0.06749168038368225|XArbitraryZVertical|-0.5016870378123852|0.1812022818720981|-0.4589401130740083|0.7105278494397748|-0.2029900699853897|0.8792471885681152|-0.4309516847133636|0|0|0|-1|-1|3
2021-04-22 20:23:14.920 +0100|136583.7990911667|-0.0653076171875|0.9101715087890625|-0.478546142578125|136583.7791291667|-1.425654923117477|-0.4458991458374574|-1.07691274247549|-0.0158382598310709|0.2454869151115417|-0.1660548597574234|0.1765791326761246|0.02617865800857544|-0.034353107213974|XArbitraryZVertical|-0.5024860795260807|0.183463100080834|-0.461764359363045|0.707547016068958|-0.2044427841901779|0.880498468875885|-0.4276980757713318|0|0|0|-1|-1|3
2021-04-22 20:23:14.940 +0100|136583.8190521667|-0.149566650390625|0.8395233154296875|-0.4857330322265625|136583.7990911667|-1.425611447984871|-0.4424728245001773|-1.071700725571724|0.4551673531532288|0.1114073544740677|-0.05713032931089401|0.1544459760189056|0.04507982730865479|-0.0371583104133606|XArbitraryZVertical|-0.5002370082341453|0.1830140660492716|-0.4638316494606345|0.7079048040029519|-0.2049384415149689|0.8780158162117004|-0.4325375854969025|0|0|0|-1|-1|3
2021-04-22 20:23:14.960 +0100|136583.8390141667|-0.14208984375|0.802703857421875|-0.4738006591796875|136583.8190521667|-1.419179755414171|-0.4346684778522933|-1.063492888348819|0.3443629145622253|0.09913402050733566|-0.03372407332062721|0.06964990496635437|-0.0186195969581604|-0.04241704940795898|XArbitraryZVertical|-0.4966942893187508|0.1815820122206233|-0.46540988407622|0.7097299300968564|-0.2045844793319702|0.8740577101707458|-0.4406455159187317|0|0|0|-1|-1|3
2021-04-22 20:23:14.980 +0100|136583.8589751667|-0.18603515625|0.855072021484375|-0.45330810546875|136583.8390141667|-1.415539621199317|-0.4303426241198541|-1.060150766016168|0.04017509147524834|-0.001137301325798035|0.04475253820419312|0.06538878381252289|-0.05989879369735718|-0.02406755089759827|XArbitraryZVertical|-0.4950667467340596|0.181161711120198|-0.4659624611176938|0.7106113153633549|-0.2038939148187637|0.8724291920661926|-0.4441787004470825|0|0|0|-1|-1|3
2021-04-22 20:23:15.001 +0100|136583.8789371667|-0.2351531982421875|0.8592529296875|-0.4641265869140625|136583.8589751667|-1.414540824217398|-0.4304610091125278|-1.062956231300096|-0.2397649884223938|-0.1090349555015564|0.09564793854951859|0.0293087363243103|-0.03779846429824829|-0.005214810371398926|XArbitraryZVertical|-0.4959845210061099|0.1817555350606496|-0.4649310948537711|0.7104952449429006|-0.202924370765686|0.8737968802452087|-0.4419285655021667|0|0|0|-1|-1|3
2021-04-22 20:23:15.030 +0100|136583.8988981667|-0.2460479736328125|0.8375701904296875|-0.4287261962890625|136583.8988981667|-1.418848575970235|-0.4405767683210944|-1.075425802082763|-0.4330237805843353|-0.2300808429718018|0.02604995667934418|-0.04085551202297211|-0.03891140222549438|-0.0076884925365448|XArbitraryZVertical|-0.50146486822213|0.1831694476656172|-0.4610390650210526|0.7088194425320273|-0.2027216553688049|0.8797926306724548|-0.4299638867378235|0|0|0|-1|-1|3
2021-04-22 20:23:15.040 +0100|136583.9188601667|-0.23492431640625|0.8631744384765625|-0.3972320556640625|136583.9188601667|-1.422806077015792|-0.4479655842788152|-1.083701060910876|-0.5010881423950195|-0.2230066955089569|0.06909782439470291|-0.03580918908119202|-0.02929568290710449|0.01579564809799194|XArbitraryZVertical|-0.505119367665766|0.1841620792106113|-0.4586354446020874|0.7075254969715151|-0.2027325630187988|0.8836961984634399|-0.4218775033950806|0|0|0|-1|-1|3
2021-04-22 20:23:15.060 +0100|136583.9388211667|-0.219757080078125|0.89813232421875|-0.3722991943359375||||||||||||||||||||||||3
2021-04-22 20:23:15.080 +0100|136583.9587831667|-0.224212646484375|0.9454803466796875|-0.3000946044921875|136583.9587831667|-1.430248850845284|-0.4626831694321686|-1.095638105704529|-0.2345275580883026|-0.2101204097270966|0.03464104607701302|-0.01434126496315002|0.03714066743850708|0.09118771553039551|XArbitraryZVertical|-0.5110973060654517|0.1846349142982679|-0.4546828598347508|0.7056578851299187|-0.2041961997747421|0.8892203569412231|-0.4093789756298065|0|0|0|-1|-1|3
2021-04-22 20:23:15.100 +0100|136583.9787441667|-0.297760009765625|1.032119750976562|-0.2335357666015625||||||||||||||||||||||||3
2021-04-22 20:23:15.120 +0100|136583.9987061667|-0.3998260498046875|1.085845947265625|-0.1933441162109375|136583.9787441667|-1.432883876775947|-0.4689436850394082|-1.098915154409171|-0.2172849178314209|-0.1486662030220032|0.1214088723063469|-0.06594161689281464|0.1182267665863037|0.1552623808383942|XArbitraryZVertical|-0.5131723730261341|0.184142883417739|-0.4532200811068517|0.7052213709355624|-0.2054370492696762|0.8907147645950317|-0.4054910242557526|0|0|0|-1|-1|3
2021-04-22 20:23:15.145 +0100|136584.0186671667|-0.437591552734375|1.05340576171875|-0.1790008544921875|136583.9987061667|-1.430320615651487|-0.4680930906050747|-1.102469935750455|-0.09575101733207703|0.04537432640790939|0.2318280637264252|-0.1747721135616302|0.183251678943634|0.1984461545944214|XArbitraryZVertical|-0.5141867402794967|0.1849142232398704|-0.4516760223631893|0.7052713491806778|-0.2036622315645218|0.8923249840736389|-0.4028374552726746|0|0|0|-1|-1|3
2021-04-22 20:23:15.160 +0100|136584.0386291667|-0.3846588134765625|0.9653472900390625|-0.1732635498046875|136584.0186671667|-1.419351418262591|-0.4553024207069136|-1.104863470444721|0.08547672629356384|0.2645401954650879|0.3433188199996948|-0.2382693141698837|0.1729879975318909|0.2198505699634552|XArbitraryZVertical|-0.5129797346629746|0.187368229812699|-0.4505140117834774|0.7062450891818004|-0.1975533366203308|0.8934028744697571|-0.403489887714386|0|0|0|-1|-1|3
2021-04-22 20:23:15.179 +0100|136584.0585901667|-0.321258544921875|0.8775634765625|-0.2218780517578125|136584.0386291667|-1.401358618526107|-0.4323640599869797|-1.106273789417261|0.08777201920747757|0.3966632187366486|0.4386207461357117|-0.2147787809371948|0.09484070539474487|0.2366810441017151|XArbitraryZVertical|-0.5099137487572922|0.1913183187754641|-0.4496838662989445|0.7079334966362191|-0.1877186745405197|0.8940355777740479|-0.4067705273628235|0|0|0|-1|-1|3
2021-04-22 20:23:15.200 +0100|136584.0785521667|-0.3168792724609375|0.8638916015625|-0.2733154296875|136584.0585901667|-1.387352067826368|-0.4126229751160626|-1.113421678183329|-0.2153354287147522|0.4203626811504364|0.4919938743114471|-0.1553438454866409|-0.007459819316864014|0.1950749754905701|XArbitraryZVertical|-0.5088661870275257|0.1969495783117958|-0.4480826152731949|0.7081582369582741|-0.1770852506160736|0.897214949131012|-0.4045321345329285|0|0|0|-1|-1|3
2021-04-22 20:23:15.219 +0100|136584.0985131667|-0.3309783935546875|0.9000091552734375|-0.2888031005859375|136584.0785521667|-1.383723765933557|-0.4027121240421583|-1.128274033413278|-0.6700778603553772|0.4447231590747833|0.4652944207191467|-0.142935648560524|-0.03992027044296265|0.129833847284317|XArbitraryZVertical|-0.5112446091090836|0.204076685545279|-0.4458789316836329|0.7058142424826146|-0.1678259372711182|0.9036744236946106|-0.3939633071422577|0|0|0|-1|-1|3
2021-04-22 20:23:15.239 +0100|136584.1184751667|-0.3152923583984375|0.9913787841796875|-0.283111572265625|136584.0985131667|-1.394454556744551|-0.4053880071987689|-1.150051747544927|-1.056759595870972|0.500989556312561|0.3551240861415863|-0.1698091775178909|-0.02376234531402588|0.08755537867546082|XArbitraryZVertical|-0.5168703169269142|0.2125490674203047|-0.4438680988874188|0.7004634940283351|-0.1610787659883499|0.9127850532531738|-0.3753359317779541|0|0|0|-1|-1|3
2021-04-22 20:23:15.259 +0100|136584.1384361667|-0.2739105224609375|1.06707763671875|-0.2880706787109375|136584.1184751667|-1.403111895276115|-0.4031051481636689|-1.173535603410627|-1.187001705169678|0.5022158622741699|0.2557333111763|-0.1720994710922241|0.04365026950836182|0.07803642749786377|XArbitraryZVertical|-0.5219483512334897|0.2227737919190312|-0.4419091002849523|0.6947361055500169|-0.1517694592475891|0.9221242666244507|-0.3558835089206696|0|0|0|-1|-1|3
2021-04-22 20:23:15.279 +0100|136584.1583981667|-0.21533203125|1.05718994140625|-0.295654296875|136584.1384361667|-1.41615370693101|-0.4061578856720373|-1.195170489273357|-0.9688155055046082|0.3900567889213562|0.1433009505271912|-0.1403717994689941|0.1255994439125061|0.05206745862960815|XArbitraryZVertical|-0.527051156961711|0.2317587539581829|-0.440413738547379|0.688869310382182|-0.1449381560087204|0.9302782416343689|-0.3370099067687988|0|0|0|-1|-1|3
2021-04-22 20:23:15.299 +0100|136584.1783591667|-0.167449951171875|1.007278442382812|-0.3020477294921875|136584.1583981667|-1.428682608430434|-0.4115968639280281|-1.209969278264846|-0.5731366276741028|0.2316354364156723|0.02825132384896278|-0.09021639823913574|0.1284817457199097|0.02668815851211548|XArbitraryZVertical|-0.5307487257945352|0.2377484001114077|-0.4396630772581379|0.6844545582688897|-0.1412452906370163|0.9356051683425903|-0.3235629796981812|0|0|0|-1|-1|3
2021-04-22 20:23:15.319 +0100|136584.1983211667|-0.1712493896484375|0.980987548828125|-0.2822265625|136584.1783591667|-1.440161451144552|-0.4191952889884483|-1.217453264320252|-0.3102306425571442|0.08837713301181793|-0.08509218692779541|-0.03537912666797638|0.08082175254821777|0.01353970170021057|XArbitraryZVertical|-0.5330243045018622|0.2405146683336138|-0.439712515149784|0.6816823466812439|-0.1408457010984421|0.9382211565971375|-0.3160755634307861|0|0|0|-1|-1|3
2021-04-22 20:23:15.339 +0100|136584.2182821667|-0.2078704833984375|0.984405517578125|-0.2399444580078125|136584.1983211667|-1.454302971708699|-0.4313675071120752|-1.221170811775282|-0.2429265826940536|0.03991740196943283|-0.2084473222494125|-0.02222883701324463|0.04636931419372559|0.02555370330810547|XArbitraryZVertical|-0.5349665359569948|0.2413027685567116|-0.4403449640621302|0.6794706680650942|-0.1432233303785324|0.9395010471343994|-0.3111675679683685|0|0|0|-1|-1|3
2021-04-22 20:23:15.359 +0100|136584.2382431667|-0.22674560546875|1.00909423828125|-0.1904144287109375|136584.2182821667|-1.474168662132627|-0.4486666907949094|-1.222996667416487|-0.2122962772846222|0.1029047295451164|-0.3231286406517029|-0.05075399577617645|0.04064905643463135|0.05557164549827576|XArbitraryZVertical|-0.5368518298928603|0.2413325642496641|-0.4419828902516465|0.676904837835385|-0.147840291261673|0.9401249289512634|-0.3070974051952362|0|0|0|-1|-1|3
2021-04-22 20:23:15.379 +0100|136584.2582051667|-0.229736328125|1.061676025390625|-0.14007568359375|136584.2382431667|-1.496822780627251|-0.4672496731754475|-1.222344182213377|-0.02495116367936134|0.1701742708683014|-0.383427768945694|-0.07021810114383698|0.06012809276580811|0.102192610502243|XArbitraryZVertical|-0.5380775301737797|0.2409364075075443|-0.444809156314017|0.6742159471256952|-0.1537972837686539|0.9399023652076721|-0.3048444390296936|0|0|0|-1|-1|3
2021-04-22 20:23:15.399 +0100|136584.2781661667|-0.2511444091796875|1.068496704101562|-0.1457977294921875|136584.2582051667|-1.513106632645786|-0.4792215214882971|-1.21652305419712|0.3185626864433289|0.1517503559589386|-0.3746486306190491|-0.06853032112121582|0.1157510280609131|0.1635901927947998|XArbitraryZVertical|-0.5373696342294726|0.2394121798569836|-0.4485898754537155|0.6728172180662496|-0.1599558740854263|0.9378988742828369|-0.3078313767910004|0|0|0|-1|-1|3
2021-04-22 20:23:15.419 +0100|136584.2981281667|-0.2607574462890625|1.014450073242188|-0.1971588134765625|136584.2781661667|-1.516794785572939|-0.4800601277443432|-1.203863337273028|0.7316935658454895|0.1131668537855148|-0.32033771276474|-0.07906758785247803|0.1388335227966309|0.1774259805679321|XArbitraryZVertical|-0.534033674685071|0.2360218251269238|-0.4529084794193455|0.6737772348949062|-0.1656844913959503|0.9334320425987244|-0.31820347905159|0|0|0|-1|-1|3
2021-04-22 20:23:15.439 +0100|136584.3180901667|-0.2160797119140625|0.9277801513671875|-0.26422119140625|136584.2981281667|-1.509395925852136|-0.4708154837195927|-1.186004273707777|0.9245847463607788|0.1388163417577744|-0.265157550573349|-0.0929439514875412|0.1058534979820251|0.1518634259700775|XArbitraryZVertical|-0.5283884292123141|0.231392631631794|-0.4574812275770765|0.676737887429848|-0.170271247625351|0.9268764853477478|-0.3345262408256531|0|0|0|-1|-1|3
2021-04-22 20:23:15.459 +0100|136584.3380511667|-0.1691436767578125|0.907958984375|-0.35076904296875|136584.3180901667|-1.501569230136639|-0.4604163434427045|-1.16866225543789|0.7018855214118958|0.1710002720355988|-0.2474998235702515|-0.05483046174049377|0.02525240182876587|0.1017111539840698|XArbitraryZVertical|-0.5225336828626634|0.2272547335551139|-0.461976401855434|0.6796262382670661|-0.1738999038934708|0.9202278256416321|-0.3506276607513428|0|0|0|-1|-1|3
2021-04-22 20:23:15.479 +0100|136584.3580127917|-0.109222412109375|0.943115234375|-0.4268798828125|136584.3380511667|-1.507997081177347|-0.4634616585773384|-1.161639250962742|0.2315651327371597|0.2184976935386658|-0.2463992387056351|-0.002660930156707764|-0.01201534271240234|0.0239596962928772|XArbitraryZVertical|-0.5207301329187533|0.225623044924656|-0.4651412926761233|0.6793953913157665|-0.1778516620397568|0.9174565076828003|-0.3558687269687653|0|0|0|-1|-1|3
2021-04-22 20:23:15.499 +0100|136584.3779747917|-0.050994873046875|1.029571533203125|-0.5183258056640625|136584.3580127917|-1.524797282960757|-0.4753479794355776|-1.162503552728529|-0.1310793310403824|0.2264251708984375|-0.2636526226997375|0.05720841884613037|0.01175010204315186|-0.05395787954330444|XArbitraryZVertical|-0.521820908209529|0.2262536853864019|-0.4675193619445419|0.6767111414750644|-0.1817059814929962|0.9178000092506409|-0.353024423122406|0|0|0|-1|-1|3
2021-04-22 20:23:15.519 +0100|136584.3979357917|-0.0227813720703125|1.09881591796875|-0.580169677734375|136584.3779747917|-1.543860687271807|-0.4893116901499792|-1.165117585674267|-0.1652855277061462|0.1820381730794907|-0.2380219846963882|0.1231256127357483|0.0856207013130188|-0.1498652696609497|XArbitraryZVertical|-0.5235747350376795|0.2273817886317641|-0.4696330056356684|0.6735072530249995|-0.1854893863201141|0.9188347458839417|-0.3483340442180634|0|0|0|-1|-1|3
2021-04-22 20:23:15.539 +0100|136584.4178977917|-0.037628173828125|1.070465087890625|-0.604156494140625|136584.3979357917|-1.552798572000569|-0.4943282098272061|-1.163126176815376|0.2259359806776047|0.1512767374515533|-0.1736762076616287|0.1636565625667572|0.1698434948921204|-0.2188770174980164|XArbitraryZVertical|-0.5232556699592658|0.2273738815739558|-0.4718430815083987|0.6722119675763555|-0.1881022453308105|0.9180470108985901|-0.349009245634079|0|0|0|-1|-1|3
2021-04-22 20:23:15.559 +0100|136584.4378597917|-0.0570068359375|0.9897003173828125|-0.5774993896484375|136584.4178977917|-1.54873174530676|-0.4871459919725298|-1.153566539277799|0.7011423110961914|0.1996055543422699|-0.1358545124530792|0.1561504602432251|0.1786346435546875|-0.2421750426292419|XArbitraryZVertical|-0.5196899654276567|0.2255596575637122|-0.474817952757478|0.6734933473029262|-0.1896903961896896|0.9142150282859802|-0.3580903708934784|0|0|0|-1|-1|3
2021-04-22 20:23:15.579 +0100|136584.4578207917|-0.0627593994140625|0.91485595703125|-0.615966796875|136584.4378597917|-1.535703986801495|-0.4708751036097822|-1.137322693795598|0.9332582950592041|0.2368566244840622|-0.1369767934083939|0.1371142119169235|0.103992760181427|-0.2083111107349396|XArbitraryZVertical|-0.5132419916002798|0.2223175544697651|-0.4787633275841606|0.6767151164760256|-0.1905515938997269|0.9075121879577637|-0.3743151128292084|0|0|0|-1|-1|3
2021-04-22 20:23:15.599 +0100|136584.4777817917|-0.032318115234375|0.8556060791015625|-0.619873046875|136584.4578207917|-1.520396158450539|-0.4519683541110888|-1.118567531285724|1.012301564216614|0.2735696732997894|-0.1099599897861481|0.1273029893636703|0.02893024682998657|-0.2232379615306854|XArbitraryZVertical|-0.5056052550078161|0.2186683891024379|-0.483069625397436|0.680581636555411|-0.1908417046070099|0.8994753956794739|-0.393094927072525|0|0|0|-1|-1|3
2021-04-22 20:23:15.619 +0100|136584.4977437917|-0.001312255859375|0.8260040283203125|-0.63092041015625|136584.4777817917|-1.504416859935255|-0.4320135328493308|-1.099874398947981|0.977838933467865|0.2756832838058472|-0.04800722748041153|0.1497749984264374|-0.02249813079833984|-0.2081239223480225|XArbitraryZVertical|-0.4975995426626174|0.2153667856137424|-0.4871830100723297|0.6845909659265845|-0.1899677813053131|0.8911503553390503|-0.4120236933231354|0|0|0|-1|-1|3
2021-04-22 20:23:15.639 +0100|136584.5177057917|0.0111846923828125|0.803863525390625|-0.6287841796875|136584.4977437917|-1.488665865483177|-0.4129381230051569|-1.082513942727283|0.9136466383934021|0.2393571138381958|0.001431517768651247|0.1810210645198822|-0.04903358221054077|-0.1998983025550842|XArbitraryZVertical|-0.4899463686107288|0.2123980825216054|-0.4906221477849868|0.6885707779143313|-0.1882548481225967|0.8831399083137512|-0.4296792149543762|0|0|0|-1|-1|3
2021-04-22 20:23:15.659 +0100|136584.5376667917|0.025360107421875|0.80853271484375|-0.628570556640625|136584.5177057917|-1.472970115913828|-0.3945562834245563|-1.066377472068241|0.8775588274002075|0.2202377468347549|0.0481957383453846|0.1946893930435181|-0.06825041770935059|-0.1803601384162903|XArbitraryZVertical|-0.4826259734096359|0.2097363819625401|-0.4934270030551933|0.6925407428259768|-0.1857793927192688|0.8754554986953735|-0.4461656510829926|0|0|0|-1|-1|3
2021-04-22 20:23:15.679 +0100|136584.5576277917|0.035491943359375|0.7848358154296875|-0.6406097412109375|136584.5376667917|-1.456671287275006|-0.3763806999480476|-1.050646253208061|0.8785582780838013|0.1702948063611984|0.1128742396831512|0.2042086869478226|-0.05851012468338013|-0.1625507771968842|XArbitraryZVertical|-0.4753836316892248|0.2071238390356412|-0.4956927007548733|0.6967057833296602|-0.1826796382665634|0.8677446246147156|-0.4622202217578888|0|0|0|-1|-1|3
2021-04-22 20:23:15.699 +0100|136584.5775897917|0.04473876953125|0.71112060546875|-0.627655029296875|136584.5576277917|-1.438372842648815|-0.3577002516158972|-1.034664876300687|0.9266737103462219|0.1243373155593872|0.175098642706871|0.2134525775909424|-0.06588345766067505|-0.1621125042438507|XArbitraryZVertical|-0.4680042847218271|0.2042818657455546|-0.4972412543498054|0.701421437748353|-0.1788467168807983|0.8596912026405334|-0.4784818291664124|0|0|0|-1|-1|3
2021-04-22 20:23:15.719 +0100|136584.5975517917|0.04388427734375|0.6847991943359375|-0.607452392578125|136584.5775897917|-1.415618260364076|-0.3352345454513499|-1.018553385838278|0.852478563785553|0.06105411425232887|0.2445998787879944|0.2143958806991577|-0.1230176091194153|-0.1358910799026489|XArbitraryZVertical|-0.4599450663250642|0.2018732613649976|-0.4979062426442601|0.7069562818659564|-0.1725879013538361|0.8513500094413757|-0.4953954517841339|0|0|0|-1|-1|3
2021-04-22 20:23:15.739 +0100|136584.6175127917|0.0303497314453125|0.68157958984375|-0.5947723388671875|136584.5975517917|-1.39059265637221|-0.3112415513920754|-1.004701039348918|0.6305633187294006|0.002882260829210281|0.2916953861713409|0.2092006653547287|-0.1550674438476562|-0.09964239597320557|XArbitraryZVertical|-0.452272343114779|0.2004092496261232|-0.4973786880073187|0.7126713475170001|-0.1642493903636932|0.8440016508102417|-0.5105717182159424|0|0|0|-1|-1|3
2021-04-22 20:23:15.759 +0100|136584.6374737917|0.0092926025390625|0.68426513671875|-0.5897369384765625|136584.6175127917|-1.368075527560283|-0.2907659377640526|-0.9953131462336389|0.4154744148254395|-0.06183095648884773|0.3002315163612366|0.1903725862503052|-0.1585859060287476|-0.07803046703338623|XArbitraryZVertical|-0.4465137207370333|0.1998190356517913|-0.4958206459251316|0.7175374436012911|-0.1560261696577072|0.8389294147491455|-0.5213956832885742|0|0|0|-1|-1|3
2021-04-22 20:23:15.779 +0100|136584.6574357917|0.02880859375|0.7070465087890625|-0.565185546875|136584.6374737917|-1.348883305455033|-0.2741042300427253|-0.9894363127525571|0.2064594924449921|-0.1094548776745796|0.2441845089197159|0.1584140658378601|-0.1541827917098999|-0.06121420860290527|XArbitraryZVertical|-0.4424420396045954|0.199787538513083|-0.4937721061278322|0.7214702399776529|-0.1486495435237885|0.8357165455818176|-0.5286599397659302|0|0|0|-1|-1|3
2021-04-22 20:23:15.798 +0100|136584.6773967917|0.0132293701171875|0.7835540771484375|-0.5294342041015625|136584.6574357917|-1.334253387321261|-0.2626830325536427|-0.987201188217586|-0.06967196613550186|-0.2081313282251358|0.1971054971218109|0.1656686216592789|-0.1356956362724304|-0.03801888227462769|XArbitraryZVertical|-0.4403715892883299|0.2000251182181248|-0.4914346853051627|0.7242616008692742|-0.1430867165327072|0.8344870209693909|-0.5321256518363953|0|0|0|-1|-1|3
2021-04-22 20:23:15.818 +0100|136584.6973587917|-0.0664825439453125|0.8545684814453125|-0.494964599609375|136584.6773967917|-1.322145936455444|-0.2557547173281462|-0.9888296093162887|-0.2303249686956406|-0.3522896468639374|0.2169770449399948|0.1647320538759232|-0.07424443960189819|-0.003779351711273193|XArbitraryZVertical|-0.4404155856283088|0.200349039786653|-0.4882607286021979|0.7262891110578003|-0.139052614569664|0.8353832364082336|-0.5317887663841248|0|0|0|-1|-1|3
2021-04-22 20:23:15.838 +0100|136584.7173197917|-0.145416259765625|0.8816070556640625|-0.472747802734375|136584.6973587917|-1.309903139019945|-0.2516240478515285|-0.9914573156445511|-0.1529776602983475|-0.4594735503196716|0.2456888407468796|0.09161369502544403|0.003507375717163086|0.02322715520858765|XArbitraryZVertical|-0.4414954666656382|0.1999157540884695|-0.4842245283630291|0.7284519660628496|-0.1363078206777573|0.8368247151374817|-0.5302308797836304|0|0|0|-1|-1|3
2021-04-22 20:23:15.858 +0100|136584.7372817917|-0.1851654052734375|0.8800048828125|-0.4453582763671875|136584.7173197917|-1.301368173087948|-0.2538313560498788|-0.9934567960337672|0.07565169781446457|-0.4670628309249878|0.2567467093467712|0.007509186863899231|0.04019498825073242|0.04529112577438354|XArbitraryZVertical|-0.443532714808383|0.1977997660018616|-0.480248442604693|0.7304214638160756|-0.1370574086904526|0.837917685508728|-0.5283079743385315|0|0|0|-1|-1|3
2021-04-22 20:23:15.878 +0100|136584.7572427917|-0.2312164306640625|0.8516693115234375|-0.419464111328125|136584.7372817917|-1.290367209302693|-0.2535269484633935|-0.9912030825883712|0.2955354154109955|-0.4238150715827942|0.2714968323707581|-0.04057922959327698|0.04705774784088135|0.08324658870697021|XArbitraryZVertical|-0.4437968574033043|0.1948233738219889|-0.4767112954481476|0.7333721227725409|-0.1373698860406876|0.8366854786872864|-0.5301764011383057|0|0|0|-1|-1|3
2021-04-22 20:23:15.898 +0100|136584.7772047917|-0.26947021484375|0.826324462890625|-0.381439208984375|136584.7572427917|-1.275071065626164|-0.2478956438446574|-0.9857830900914866|0.3834150731563568|-0.3835701644420624|0.2613032162189484|-0.08347189426422119|0.02856934070587158|0.1093962788581848|XArbitraryZVertical|-0.4421379480289557|0.1919610420795678|-0.4733367005548774|0.7373042359687001|-0.1354928612709045|0.8337047696113586|-0.5353299975395203|0|0|0|-1|-1|3
2021-04-22 20:23:15.918 +0100|136584.7971657917|-0.296295166015625|0.827423095703125|-0.344329833984375|136584.7772047917|-1.261618593539522|-0.2430218998708989|-0.9811451848272126|0.2538663446903229|-0.3090701699256897|0.2370765209197998|-0.1260165721178055|-0.005054473876953125|0.1486180424690247|XArbitraryZVertical|-0.4407161232260698|0.1894827683031496|-0.4702870204281666|0.7407400275141981|-0.1338112056255341|0.8311347365379333|-0.5397311449050903|0|0|0|-1|-1|3
2021-04-22 20:23:15.938 +0100|136584.8171277917|-0.3078460693359375|0.8516387939453125|-0.3095703125|136584.7971657917|-1.252387948738238|-0.2404739070742307|-0.9792807470007906|0.04715903103351593|-0.2051016688346863|0.2272354364395142|-0.1595856547355652|-0.005786240100860596|0.1868840456008911|XArbitraryZVertical|-0.4403600455494577|0.1878718260098998|-0.4677607231208907|0.7429584039321111|-0.1328043639659882|0.8300965428352356|-0.5415744185447693|0|0|0|-1|-1|3
2021-04-22 20:23:15.958 +0100|136584.8370897917|-0.2972259521484375|0.9056396484375|-0.304107666015625|136584.8171277917|-1.244509046441115|-0.2367445203799929|-0.9814977274286338|-0.129611998796463|-0.07252104580402374|0.2467896938323975|-0.1768087893724442|0.01078653335571289|0.2276537418365479|XArbitraryZVertical|-0.4409823841126395|0.1881402146209076|-0.4652560545765823|0.7440931683057919|-0.1303517520427704|0.8313307166099548|-0.5402755737304688|0|0|0|-1|-1|3
2021-04-22 20:23:15.978 +0100|136584.8570507917|-0.303070068359375|0.9034881591796875|-0.2975006103515625|136584.8370897917|-1.238008149342623|-0.2325648873033322|-0.9863381309745239|-0.1075105518102646|-0.004180388525128365|0.2786973714828491|-0.1709637492895126|0.06016921997070312|0.2330762147903442|XArbitraryZVertical|-0.4422720491005379|0.1896008921102512|-0.4628963905167526|0.7444286967522545|-0.1271635740995407|0.8340111374855042|-0.5368938446044922|0|0|0|-1|-1|3
2021-04-22 20:23:15.998 +0100|136584.8770127917|-0.307098388671875|0.87115478515625|-0.3213958740234375|136584.8570507917|-1.232118310971406|-0.2287871759249089|-0.9909019091703035|-0.01760428585112095|0.06715259701013565|0.3407635986804962|-0.1730792224407196|0.0696684718132019|0.2359131574630737|XArbitraryZVertical|-0.4435148329798041|0.1909599147046886|-0.4607291317037531|0.744686385232651|-0.1242699101567268|0.8365204930305481|-0.5336577892303467|0|0|0|-1|-1|3
2021-04-22 20:23:16.018 +0100|136584.8969737917|-0.2863922119140625|0.85302734375|-0.36920166015625|136584.8770127917|-1.225420302553802|-0.2232835790483315|-0.9956026888134065|-0.06228071078658104|0.1398949772119522|0.394570529460907|-0.1889599561691284|0.04285573959350586|0.2129882574081421|XArbitraryZVertical|-0.4444975414067425|0.192809414047725|-0.4586247265668028|0.7449227367231623|-0.1204588934779167|0.8390869498252869|-0.530492901802063|0|0|0|-1|-1|3
2021-04-22 20:23:16.038 +0100|136584.9169357917|-0.282562255859375|0.865753173828125|-0.370208740234375|136584.8969737917|-1.218992655236155|-0.2172187600867069|-1.003239100990948|-0.202237457036972|0.1813565045595169|0.4229184091091156|-0.1744292974472046|0.0130150318145752|0.1718378067016602|XArbitraryZVertical|-0.4463475175699357|0.1957121111222844|-0.4562369440902388|0.744525783230917|-0.1158550307154655|0.8432166576385498|-0.5249413251876831|0|0|0|-1|-1|3
2021-04-22 20:23:16.058 +0100|136584.9368967917|-0.2908172607421875|0.9066009521484375|-0.3448944091796875|136584.9169357917|-1.21294955382709|-0.2108709527960166|-1.014146013129348|-0.3687261641025543|0.1758203208446503|0.4198945462703705|-0.1707996129989624|0.007369875907897949|0.1404366493225098|XArbitraryZVertical|-0.4492367803709674|0.1996630256787754|-0.4534949159754836|0.7434134477033261|-0.1105888336896896|0.8490296602249146|-0.5166419744491577|0|0|0|-1|-1|3
2021-04-22 20:23:16.078 +0100|136584.9568587917|-0.2952728271484375|0.9367218017578125|-0.399169921875|136584.9368967917|-1.208334184078872|-0.2065443401314039|-1.027313916757297|-0.426405668258667|0.1025401502847672|0.3888466358184814|-0.1816093921661377|0.03925907611846924|0.1497141718864441|XArbitraryZVertical|-0.4532323377909211|0.203754824591881|-0.4504451902493526|0.7417302720259138|-0.1060504093766212|0.8559130430221558|-0.5061288475990295|0|0|0|-1|-1|3
2021-04-22 20:23:16.098 +0100|136584.9768197917|-0.2364349365234375|0.9376068115234375|-0.42132568359375|136584.9568587917|-1.205559836313855|-0.2045153013647606|-1.039175358008602|-0.3103793859481812|0.1246141344308853|0.3532911241054535|-0.1976452171802521|0.06651085615158081|0.1033158302307129|XArbitraryZVertical|-0.4571145411740035|0.2070334988809462|-0.4477899574956454|0.7400458520873142|-0.1029540374875069|0.8619864583015442|-0.4963668584823608|0|0|0|-1|-1|3
2021-04-22 20:23:16.118 +0100|136584.9967817917|-0.181396484375|0.9468994140625|-0.47222900390625|136584.9768197917|-1.202223051880277|-0.2016719203600604|-1.047192944664057|-0.2053609490394592|0.1087137758731842|0.3483609855175018|-0.1513417959213257|0.07271289825439453|0.07629656791687012|XArbitraryZVertical|-0.4595621930899311|0.2094451464052783|-0.4457920901850361|0.7390567931094056|-0.1001546680927277|0.8660231232643127|-0.4898706376552582|0|0|0|-1|-1|3
2021-04-22 20:23:16.138 +0100|136585.0167427917|-0.11932373046875|0.9305572509765625|-0.5068206787109375|136584.9967817917|-1.196822193445128|-0.1967482566318759|-1.052162724469017|-0.03995188325643539|0.1240197122097015|0.3503424823284149|-0.1009171009063721|0.07524359226226807|0.02200448513031006|XArbitraryZVertical|-0.4607314346602199|0.2113316863915452|-0.4440535770290603|0.7388383681070856|-0.09689896553754807|0.8684973120689392|-0.4861309230327606|0|0|0|-1|-1|3
2021-04-22 20:23:16.158 +0100|136585.0367047917|-0.11602783203125|0.8394775390625|-0.542144775390625|136585.0167427917|-1.190534958121796|-0.1911061701806338|-1.053353114741438|0.1633535623550415|0.1213059574365616|0.3293599486351013|-0.03560534119606018|0.07308244705200195|-0.01268231868743896|XArbitraryZVertical|-0.4605537423272022|0.2122806409637374|-0.4428210613484067|0.7394165097778123|-0.09395816922187805|0.869086742401123|-0.485654354095459|0|0|0|-1|-1|3
2021-04-22 20:23:16.178 +0100|136585.0566657917|-0.0120849609375|0.8002166748046875|-0.5693511962890625|136585.0367047917|-1.186256088203902|-0.1862538576612434|-1.052623380253817|0.08689861744642258|0.2264760434627533|0.1994628310203552|-0.03032296150922775|-0.005535900592803955|-0.04984757304191589|XArbitraryZVertical|-0.4596840930247385|0.2129007994134718|-0.4424816616163321|0.7399822711495079|-0.091717928647995|0.8687255382537842|-0.4867275655269623|0|0|0|-1|-1|3
2021-04-22 20:23:16.198 +0100|136585.0766277917|0.086151123046875|0.823883056640625|-0.609344482421875|136585.0566657917|-1.188417203757127|-0.1852513869872115|-1.055784716858221|-0.2742906510829926|0.2180100679397583|0.07080420106649399|0.04778430610895157|-0.06746113300323486|-0.07536107301712036|XArbitraryZVertical|-0.4603174541226235|0.2145905045872599|-0.4429632907538523|0.7388114068848757|-0.09072364121675491|0.8702870011329651|-0.4841175079345703|0|0|0|-1|-1|3
2021-04-22 20:23:16.218 +0100|136585.0965887917|0.136077880859375|0.849517822265625|-0.648681640625|136585.0766277917|-1.191955373238117|-0.1857673785033132|-1.06452317747971|-0.5313752889633179|0.1097390949726105|0.04029546678066254|0.1557873785495758|-0.06141692399978638|-0.1246179938316345|XArbitraryZVertical|-0.4630429912136466|0.2174904872270426|-0.4426269296640619|0.7364580891503251|-0.08956533670425415|0.8745577931404114|-0.4765781462192535|0|0|0|-1|-1|3
2021-04-22 20:23:16.238 +0100|136585.1165507917|0.132965087890625|0.8747711181640625|-0.6290740966796875|136585.0965887917|-1.194870592835516|-0.1872684502386114|-1.075271295069168|-0.511742889881134|-0.002243205439299345|0.02274009026587009|0.218224048614502|-0.03679311275482178|-0.1799903512001038|XArbitraryZVertical|-0.4667199085258931|0.2204138318747119|-0.4414607258443217|0.7339638495682377|-0.08852545171976089|0.8797191977500916|-0.4671805500984192|0|0|0|-1|-1|3
2021-04-22 20:23:16.258 +0100|136585.1365117917|0.0730133056640625|0.8980865478515625|-0.5909576416015625|136585.1165507917|-1.197422487623582|-0.1907043413553598|-1.083751290931567|-0.3128751516342163|-0.1235833242535591|0.0116933872923255|0.2291688323020935|-0.01662373542785645|-0.175004631280899|XArbitraryZVertical|-0.4700716563284401|0.2219609262502401|-0.4400863681032561|0.7321817024828774|-0.08871279656887054|0.8837196826934814|-0.4595319628715515|0|0|0|-1|-1|3
2021-04-22 20:23:16.278 +0100|136585.1564737917|-0.00927734375|0.888946533203125|-0.541778564453125|136585.1365117917|-1.198200353519246|-0.1949074212978519|-1.086470836589891|0.04777522012591362|-0.2321683317422867|0.01167243719100952|0.1815614104270935|0.009862422943115234|-0.1447058320045471|XArbitraryZVertical|-0.4718283421139605|0.2213149127098848|-0.4388948457790061|0.7319624525762702|-0.09017764031887054|0.8849892020225525|-0.4567954540252686|0|0|0|-1|-1|3
2021-04-22 20:23:16.297 +0100|136585.1764347917|-0.06597900390625|0.8533782958984375|-0.517547607421875|136585.1564737917|-1.195532131366548|-0.1982797054098966|-1.082222906951108|0.3847377598285675|-0.3464930653572083|0.03886189311742783|0.1013826131820679|0.0107954740524292|-0.09698867797851562|XArbitraryZVertical|-0.4714253882450443|0.2183410061163301|-0.437883855908585|0.7337188026265323|-0.09245733171701431|0.8830033540725708|-0.4601706266403198|0|0|0|-1|-1|3
2021-04-22 20:23:16.317 +0100|136585.1963967917|-0.0776214599609375|0.784912109375|-0.4979248046875|136585.1764347917|-1.179636484591686|-0.1901411310751437|-1.069723214667597|0.6560758948326111|-0.4440769851207733|0.1046586632728577|0.03739658743143082|-0.01198577880859375|-0.05557283759117126|XArbitraryZVertical|-0.4671128881623409|0.2143611075188274|-0.4361570107485426|0.7386623202512521|-0.09078817814588547|0.8770675659179688|-0.4717097282409668|0|0|0|-1|-1|3
2021-04-22 20:23:16.338 +0100|136585.2163577917|-0.114471435546875|0.694854736328125|-0.46258544921875|136585.1963967917|-1.159911212747727|-0.1802631752125016|-1.053858767450404|0.8051024079322815|-0.5333843231201172|0.1649565249681473|0.01115328073501587|-0.06553423404693604|-0.01937222480773926|XArbitraryZVertical|-0.4615799046454095|0.2093748376766605|-0.4338697668544036|0.7448915592524452|-0.0886080339550972|0.8693367838859558|-0.4862123429775238|0|0|0|-1|-1|3
2021-04-22 20:23:16.357 +0100|136585.2363197917|-0.1652374267578125|0.622833251953125|-0.4035491943359375|136585.2163577917|-1.140412687457016|-0.1728479899541915|-1.038703638393742|0.671483039855957|-0.6235971450805664|0.1954091638326645|-0.01601626724004745|-0.1446146965026855|0.026297926902771|XArbitraryZVertical|-0.456685902352601|0.203835767439642|-0.4308159461463951|0.7511901032118627|-0.08725631237030029|0.8617472648620605|-0.4997779428958893|0|0|0|-1|-1|3
2021-04-22 20:23:16.377 +0100|136585.2562807917|-0.21728515625|0.5926055908203125|-0.3013916015625|136585.2363197917|-1.126709801304128|-0.1738512136355273|-1.029602204983139|0.2880576252937317|-0.7464932203292847|0.2085223942995071|-0.06445485353469849|-0.2181169986724854|0.08013325929641724|XArbitraryZVertical|-0.4550575739870804|0.1980539845197872|-0.4269164556190673|0.7559363453510053|-0.08911072462797165|0.8570941090583801|-0.5073944330215454|0|0|0|-1|-1|3
2021-04-22 20:23:16.397 +0100|136585.2762427917|-0.3175201416015625|0.71954345703125|-0.2387237548828125|136585.2562807917|-1.118992527747019|-0.1848586643154598|-1.028681831911929|-0.117183655500412|-1.058368921279907|0.1914187669754028|-0.106825977563858|-0.2684695720672607|0.1829853057861328|XArbitraryZVertical|-0.4578180771550012|0.1918947312871659|-0.4216323264996868|0.7588184231734476|-0.09483528882265091|0.856619656085968|-0.5071580410003662|0|0|0|-1|-1|3
2021-04-22 20:23:16.417 +0100|136585.2962037917|-0.45733642578125|0.7916412353515625|-0.2903900146484375|136585.2762427917|-1.11105562920024|-0.2046172770878441|-1.035951449435388|-0.4320686757564545|-1.616240382194519|0.3587664663791656|-0.1788420081138611|-0.1776388883590698|0.2672634124755859|XArbitraryZVertical|-0.4652644038707935|0.1843683271111179|-0.4128514455881087|0.7609804663586982|-0.1035687699913979|0.8603476881980896|-0.4990746974945068|0|0|0|-1|-1|3
2021-04-22 20:23:16.437 +0100|136585.3161657917|-0.4966888427734375|0.8003387451171875|-0.390899658203125|136585.2962037917|-1.098078709793497|-0.2307506894803808|-1.045327791205456|-0.2820574343204498|-2.094770193099976|0.4658744633197784|-0.3144301772117615|-0.07845258712768555|0.2113611698150635|XArbitraryZVertical|-0.4750476802690927|0.1736897471627661|-0.4001678690966073|0.7642168656598652|-0.1147243678569794|0.8650889992713928|-0.4883231520652771|0|0|0|-1|-1|3
2021-04-22 20:23:16.457 +0100|136585.3361267917|-0.3798675537109375|0.698455810546875|-0.3963165283203125|136585.3161657917|-1.081343260732162|-0.2606294467709605|-1.050477106915651|0.01439589262008667|-2.285465002059937|0.4646634459495544|-0.3718892633914948|-0.05882257223129272|0.124196857213974|XArbitraryZVertical|-0.4841225188411007|0.1595048782100761|-0.3856913820370145|0.7690421108609882|-0.1281118243932724|0.8676605224609375|-0.4803671538829803|0|0|0|-1|-1|3
2021-04-22 20:23:16.477 +0100|136585.3560881667|-0.257720947265625|0.582733154296875|-0.3029022216796875|136585.3361267917|-1.063889723876824|-0.2903400889551833|-1.050166709199227|0.1276508569717407|-2.23137640953064|0.3413658440113068|-0.2791074812412262|-0.1410198211669922|0.06150799989700317|XArbitraryZVertical|-0.490963016432819|0.1437061516924442|-0.3717675624595024|0.7746567117084511|-0.1424023807048798|0.8675061464309692|-0.4766077101230621|0|0|0|-1|-1|3
2021-04-22 20:23:16.497 +0100|136585.3760491667|-0.17144775390625|0.653167724609375|-0.261688232421875|136585.3560881667|-1.055827873863932|-0.3295526919919213|-1.053614378323077|-0.4199715554714203|-2.409539937973022|0.1320786625146866|-0.1174586415290833|-0.2760456800460815|0.1392131447792053|XArbitraryZVertical|-0.4998700250390951|0.12734577578154|-0.3582932028969364|0.7781639977125607|-0.1600082665681839|0.8692159652709961|-0.4678260087966919|0|0|0|-1|-1|3
2021-04-22 20:23:16.517 +0100|136585.3960111667|-0.124603271484375|0.8963775634765625|-0.4232177734375|136585.3760491667|-1.066881603002133|-0.3892813179576015|-1.067572075431017|-1.008946418762207|-2.603411436080933|-0.1657087355852127|-0.005176708102226257|-0.2623541951179504|0.1718036830425262|XArbitraryZVertical|-0.5145017500296326|0.1104636233468402|-0.3447583702905729|0.7773206767245195|-0.1830262541770935|0.8760322332382202|-0.4461714625358582|0|0|0|-1|-1|3
2021-04-22 20:23:16.537 +0100|136585.4159721667|-0.07122802734375|1.083831787109375|-0.536773681640625|136585.3960111667|-1.096947518005105|-0.4688872815475043|-1.085367220749436|-1.086693048477173|-2.687592744827271|-0.382355272769928|0.07599012553691864|-0.04011440277099609|0.05076736211776733|XArbitraryZVertical|-0.5323473283297433|0.09214817845260363|-0.3318898305116955|0.773281544181566|-0.2108483612537384|0.8844748139381409|-0.4162300825119019|0|0|0|-1|-1|3
2021-04-22 20:23:16.557 +0100|136585.4359341667|-0.0146942138671875|1.20867919921875|-0.6688385009765625|136585.4159721667|-1.129791952436412|-0.5518404577526836|-1.096155088421037|-0.5627061724662781|-2.688390493392944|-0.3497719466686249|0.151917040348053|0.1279536485671997|-0.1162970662117004|XArbitraryZVertical|-0.5479318280579338|0.0719764122768729|-0.3197369543995497|0.7696483932715261|-0.239595040678978|0.8894567489624023|-0.3891802132129669|0|0|0|-1|-1|3
2021-04-22 20:23:16.577 +0100|136585.4558951667|-0.046142578125|1.228103637695312|-0.7052764892578125|136585.4359341667|-1.13957233289951|-0.6136942177634906|-1.094025230761596|0.5675168037414551|-2.611693859100342|-0.121636264026165|0.2406167387962341|0.3073652982711792|-0.2947325706481934|XArbitraryZVertical|-0.5566751170420875|0.05026038719829036|-0.3069264640271258|0.7703136217846606|-0.2642841339111328|0.8884813189506531|-0.375173419713974|0|0|0|-1|-1|3
2021-04-22 20:23:16.597 +0100|136585.4758571667|-0.170562744140625|1.144851684570312|-0.71380615234375|136585.4558951667|-1.113238493964154|-0.641700313736622|-1.078057630714363|1.383504748344421|-2.548941373825073|0.1899167448282242|0.2503046989440918|0.3551961183547974|-0.3268972039222717|XArbitraryZVertical|-0.5565693646597214|0.02754869825704433|-0.2928235065808084|0.7769982432258513|-0.2831425964832306|0.881040632724762|-0.3789432346820831|0|0|0|-1|-1|3
2021-04-22 20:23:16.617 +0100|136585.4958181667|-0.22698974609375|1.03369140625|-0.7545928955078125|136585.4758571667|-1.063066977071679|-0.6475186625202832|-1.05623482627803|1.734236121177673|-2.416599750518799|0.3834702968597412|0.1514084339141846|0.2966514825820923|-0.3267196416854858|XArbitraryZVertical|-0.5510950319247986|0.005262206632886155|-0.2768631105772097|0.7871553387744724|-0.2968714237213135|0.87050861120224|-0.392533153295517|0|0|0|-1|-1|3
2021-04-22 20:23:16.637 +0100|136585.5157801667|-0.2069091796875|0.9109649658203125|-0.78118896484375|136585.4958181667|-1.007436532729536|-0.6457097930794348|-1.033223688509197|1.776244401931763|-2.189704418182373|0.4441832602024078|0.09301626682281494|0.2071470022201538|-0.3340940177440643|XArbitraryZVertical|-0.54339515073544|-0.01550735782665287|-0.2607605183763144|0.7978002375186821|-0.3081355392932892|0.858954131603241|-0.4089624583721161|0|0|0|-1|-1|3
2021-04-22 20:23:16.657 +0100|136585.5357411667|-0.25177001953125|0.7594146728515625|-0.717132568359375|136585.5157801667|-0.9542709483942092|-0.6403557860948873|-1.010057619571523|1.709344387054443|-1.820526361465454|0.3656957447528839|0.09895080327987671|0.09910625219345093|-0.3524024784564972|XArbitraryZVertical|-0.5344468380257653|-0.03377920600587205|-0.2462087473388732|0.8078408359402747|-0.3177474141120911|0.8468624949455261|-0.4264510869979858|0|0|0|-1|-1|3
2021-04-22 20:23:16.677 +0100|136585.5557031667|-0.2701873779296875|0.7063446044921875|-0.6884765625|136585.5357411667|-0.9083127340691898|-0.6358919975009761|-0.9886644773806689|1.457828164100647|-1.595953822135925|0.3465935885906219|0.09936884045600891|-0.05800950527191162|-0.2834107279777527|XArbitraryZVertical|-0.5257090356547882|-0.04958731921440798|-0.2335454439083485|0.8164727751056537|-0.3265272974967957|0.8352924585342407|-0.442342221736908|0|0|0|-1|-1|3
2021-04-22 20:23:16.697 +0100|136585.5756641667|-0.29296875|0.7500152587890625|-0.6076507568359375|136585.5557031667|-0.8738306772226299|-0.636061916538212|-0.9711687848367573|1.10981297492981|-1.286738991737366|0.1701768636703491|0.05718672275543213|-0.1159356236457825|-0.2338297367095947|XArbitraryZVertical|-0.5186964750919857|-0.06298163438604081|-0.2232314721951192|0.8228943806361728|-0.335233211517334|0.8255458474159241|-0.453974574804306|0|0|0|-1|-1|3
2021-04-22 20:23:16.717 +0100|136585.5956261667|-0.3761138916015625|0.781646728515625|-0.5484466552734375|136585.5756641667|-0.8498113052024835|-0.6389935113226051|-0.9574783286721417|0.7838074564933777|-0.9702267050743103|0.1373251676559448|0.06696435809135437|-0.08091086149215698|-0.176865428686142|XArbitraryZVertical|-0.5133799552003906|-0.07369816962883975|-0.2155512903330142|0.8273737598184818|-0.3432712852954865|0.8177427649497986|-0.4620192050933838|0|0|0|-1|-1|3
2021-04-22 20:23:16.737 +0100|136585.6155871667|-0.4209136962890625|0.8074188232421875|-0.4835662841796875|136585.5956261667|-0.8331480421894106|-0.6410039810802073|-0.9489890504681749|0.513444721698761|-0.6026065349578857|0.122015193104744|-0.0118308961391449|-0.03037142753601074|-0.0972411036491394|XArbitraryZVertical|-0.5099324667653771|-0.08081568611953809|-0.2099693887898255|0.8302713914149346|-0.3483383357524872|0.8128270506858826|-0.4668754041194916|0|0|0|-1|-1|3
2021-04-22 20:23:16.757 +0100|136585.6355491667|-0.438690185546875|0.772674560546875|-0.4571533203125|136585.6155871667|-0.8205642465882673|-0.6391198431020404|-0.9438313579819327|0.3518282175064087|-0.2319899499416351|0.1687096357345581|-0.06172880530357361|-0.002453863620758057|-0.02112922072410583|XArbitraryZVertical|-0.5073696372630006|-0.08444689231075089|-0.206327426893191|0.8323904454566566|-0.3499541282653809|0.8098118305206299|-0.470889538526535|0|0|0|-1|-1|3
2021-04-22 20:23:16.777 +0100|136585.6555101667|-0.4147491455078125|0.6893768310546875|-0.4603271484375|136585.6355491667|-0.8104490943769913|-0.6314570107115471|-0.9415388466274114|0.1491510272026062|0.1853279620409012|0.1631056368350983|-0.0955023467540741|-0.02124834060668945|0.01633051037788391|XArbitraryZVertical|-0.5053294925284278|-0.08434927976324601|-0.2045422047299672|0.8340802634279738|-0.347430557012558|0.8084647655487061|-0.4750545918941498|0|0|0|-1|-1|3
2021-04-22 20:23:16.796 +0100|136585.6754721667|-0.44317626953125|0.71026611328125|-0.4875640869140625|136585.6555101667|-0.8073990390526424|-0.621994475426609|-0.9438662952812364|-0.2777867615222931|0.5089381337165833|0.118885800242424|-0.07724559307098389|-0.1094841361045837|0.01847827434539795|XArbitraryZVertical|-0.505077078890937|-0.08063472101954119|-0.2051685399234098|0.8344466664495862|-0.3418225944042206|0.8098323345184326|-0.4767903685569763|0|0|0|-1|-1|3
2021-04-22 20:23:16.816 +0100|136585.6954331667|-0.521514892578125|0.81658935546875|-0.526580810546875|136585.6754721667|-0.8156431399309124|-0.616295613223797|-0.9539809331789554|-0.7966586947441101|0.7124748229980469|0.0997065082192421|-0.09244117140769958|-0.1215258836746216|-0.006340175867080688|XArbitraryZVertical|-0.508466030637699|-0.07383301004631934|-0.2079199503803577|0.8323342714420131|-0.3343479633331299|0.8157246708869934|-0.4720219671726227|0|0|0|-1|-1|3
2021-04-22 20:23:16.837 +0100|136585.7153951667|-0.5266876220703125|0.8924407958984375|-0.5786590576171875|136585.6954331667|-0.8313428352039739|-0.6122875360754609|-0.9706255045684926|-1.028380274772644|1.000456094741821|0.1245903819799423|-0.1865964531898499|-0.03645104169845581|-0.04985582828521729|XArbitraryZVertical|-0.5145656749804611|-0.06427216284179589|-0.2119498441847673|0.828353056406085|-0.3246043026447296|0.8252391219139099|-0.4621825218200684|0|0|0|-1|-1|3
2021-04-22 20:23:16.856 +0100|136585.7353561667|-0.4608917236328125|0.88677978515625|-0.631866455078125|136585.7153951667|-0.8476928806751597|-0.6027565034397195|-0.9884375265062474|-0.9347977638244629|1.337568283081055|0.1283386051654816|-0.2163828611373901|0.04186201095581055|-0.1140950918197632|XArbitraryZVertical|-0.520355071195676|-0.05190358485554464|-0.2173947870755053|0.8241822076092692|-0.3118009865283966|0.8351676464080811|-0.4530732333660126|0|0|0|-1|-1|3
2021-04-22 20:23:16.876 +0100|136585.7553181667|-0.40545654296875|0.8233642578125|-0.6873321533203125|136585.7353561667|-0.8627934233172435|-0.5853019613767517|-1.003550223657321|-0.7730259895324707|1.65374743938446|0.03601416945457458|-0.1875068843364716|0.0524294376373291|-0.1775527596473694|XArbitraryZVertical|-0.5240992980039576|-0.03718958897958115|-0.2249625691898147|0.8205662610776853|-0.2968384921550751|0.8433838486671448|-0.4478737115859985|0|0|0|-1|-1|3
2021-04-22 20:23:16.896 +0100|136585.7752791667|-0.3717041015625|0.67877197265625|-0.609832763671875|136585.7553181667|-0.8771041997704431|-0.5605922143636211|-1.013816264225223|-0.5027444362640381|2.058402538299561|-0.146459236741066|-0.1393779218196869|0.001593410968780518|-0.2307061553001404|XArbitraryZVertical|-0.5250787342674057|-0.02086332301017978|-0.2351510199979173|0.8176559071067251|-0.2810636460781097|0.8488553762435913|-0.44771409034729|0|0|0|-1|-1|3
2021-04-22 20:23:16.916 +0100|136585.7952411667|-0.4148406982421875|0.6857452392578125|-0.5115966796875|136585.7752791667|-0.8938809818205606|-0.5310991720217989|-1.020184204614928|-0.5739461183547974|2.317109107971191|-0.2523791790008545|-0.1011245548725128|-0.1443032026290894|-0.1850921511650085|XArbitraryZVertical|-0.5238537828859122|-0.00290192496816188|-0.2484155918296712|0.8147752375002753|-0.2649957239627838|0.852204442024231|-0.4511375725269318|0|0|0|-1|-1|3
2021-04-22 20:23:16.937 +0100|136585.8152021667|-0.393035888671875|0.762664794921875|-0.387603759765625|136585.7952411667|-0.9198310390816968|-0.5048101600804697|-1.030646529572719|-1.01459801197052|2.490392208099365|-0.4231700301170349|-0.159331887960434|-0.181667149066925|-0.08056619763374329|XArbitraryZVertical|-0.524069215460428|0.01709462613262653|-0.2637062003372296|0.8096408954729249|-0.2487195879220963|0.8576316833496094|-0.4501184523105621|0|0|0|-1|-1|3
2021-04-22 20:23:16.956 +0100|136585.8351641667|-0.3600006103515625|0.8703460693359375|-0.297821044921875|136585.8152021667|-0.9597541491541527|-0.4904516474758867|-1.047674682352224|-1.449499368667603|2.36640739440918|-0.5190673470497131|-0.1629378199577332|-0.1251596212387085|0.02391767501831055|XArbitraryZVertical|-0.5274870338735584|0.03754493961215753|-0.2800814401693805|0.8011880245224985|-0.2353175431489944|0.8662638664245605|-0.4406956136226654|0|0|0|-1|-1|3
2021-04-22 20:23:16.976 +0100|136585.8551251667|-0.3036346435546875|0.948699951171875|-0.3206939697265625|136585.8351641667|-1.009790133824949|-0.4890799776968829|-1.071362131443544|-1.77581000328064|2.13759446144104|-0.5187821984291077|-0.1459345817565918|-0.03718584775924683|0.1173780560493469|XArbitraryZVertical|-0.5341547820759368|0.05733771512586865|-0.2954222348643059|0.7900107225782983|-0.2250075787305832|0.8778536915779114|-0.4227821230888367|0|0|0|-1|-1|3
2021-04-22 20:23:16.996 +0100|136585.8750871667|-0.2368621826171875|0.9799652099609375|-0.3883514404296875|136585.8551251667|-1.063113456333382|-0.4960552458186992|-1.097096826121872|-1.645530581474304|1.898756504058838|-0.474622368812561|-0.09830646216869354|0.04271525144577026|0.09051316976547241|XArbitraryZVertical|-0.5419211943082702|0.07565075536693756|-0.3089242432962135|0.7779231020220949|-0.2171242535114288|0.889886736869812|-0.4011967778205872|0|0|0|-1|-1|3
2021-04-22 20:23:17.016 +0100|136585.8950481667|-0.170989990234375|0.912139892578125|-0.4510040283203125|136585.8750871667|-1.11043205156797|-0.5004816475358524|-1.11812027770284|-1.176793932914734|1.900084257125854|-0.3929873406887054|-0.04797095060348511|0.07182002067565918|0.03232133388519287|XArbitraryZVertical|-0.5473419570074244|0.09247391103140244|-0.3213404954242794|0.7672065469687722|-0.2098730951547623|0.8992798924446106|-0.3837307095527649|0|0|0|-1|-1|3
2021-04-22 20:23:17.036 +0100|136585.9150101667|-0.1507720947265625|0.808868408203125|-0.4527130126953125|136585.8950481667|-1.14781372869291|-0.4967310107185078|-1.130882224669081|-0.7605246305465698|1.856315612792969|-0.4075866341590881|0.02055692672729492|0.03776240348815918|-0.06357809901237488|XArbitraryZVertical|-0.5488283651398774|0.1076579023380298|-0.3337410544158417|0.7588242303032209|-0.2029462605714798|0.9047882556915283|-0.374394416809082|0|0|0|-1|-1|3
2021-04-22 20:23:17.056 +0100|136585.9349711667|-0.1337890625|0.798309326171875|-0.507659912109375|136585.9150101667|-1.181083351719908|-0.4899196633810718|-1.139625480442961|-0.7245195508003235|1.811715364456177|-0.4167893528938293|0.04056300222873688|-0.08709627389907837|-0.09194973111152649|XArbitraryZVertical|-0.5484319619788838|0.1218011058615559|-0.3461658237744709|0.7513696610770483|-0.1966614872217178|0.9084770083427429|-0.3687737584114075|0|0|0|-1|-1|3
2021-04-22 20:23:17.076 +0100|136585.9549331667|-0.106842041015625|0.746551513671875|-0.5228729248046875|136585.9349711667|-1.21376757190242|-0.4855108094212743|-1.149544486574357|-0.7454479932785034|1.615383386611938|-0.3020287454128265|0.05853943526744843|-0.1057081818580627|-0.1335285902023315|XArbitraryZVertical|-0.5485331249112063|0.1352287838958498|-0.3572914531389517|0.743752345659124|-0.1908189505338669|0.912577748298645|-0.3616491854190826|0|0|0|-1|-1|3
2021-04-22 20:23:17.096 +0100|136585.9748941667|-0.0160675048828125|0.77752685546875|-0.55328369140625|136585.9549331667|-1.240545473254969|-0.4795164945321185|-1.159951839065981|-0.7030097246170044|1.444626092910767|-0.1658481955528259|0.06558719277381897|-0.1658072471618652|-0.1635117530822754|XArbitraryZVertical|-0.5486247947962121|0.1477854079910217|-0.3664077661908736|0.7368281933091589|-0.1842558532953262|0.91678386926651|-0.3543406128883362|0|0|0|-1|-1|3
2021-04-22 20:23:17.116 +0100|136585.9948561667|0.03338623046875|0.8359375|-0.576812744140625|136585.9748941667|-1.260360069260946|-0.4712587185345132|-1.171883779727496|-0.7162048816680908|1.191053986549377|0.02174593135714531|0.1354344487190247|-0.1571558713912964|-0.201452374458313|XArbitraryZVertical|-0.5490470805474899|0.1597126462646333|-0.3731242030795868|0.7306282504200103|-0.1763443648815155|0.9214839339256287|-0.3460783362388611|0|0|0|-1|-1|3
2021-04-22 20:23:17.136 +0100|136586.0148171667|0.0266265869140625|0.8532867431640625|-0.5633697509765625|136585.9948561667|-1.269387702954235|-0.4585289076316784|-1.184378780217481|-0.5222517848014832|0.9263737797737122|0.225915938615799|0.1952562183141708|-0.0982775092124939|-0.2320787608623505|XArbitraryZVertical|-0.5495194129496785|0.1704603085516835|-0.376945822467991|0.7258674651893676|-0.1668149083852768|0.9262651205062866|-0.3379434049129486|0|0|0|-1|-1|3
2021-04-22 20:23:17.156 +0100|136586.0347791667|0.0398712158203125|0.848052978515625|-0.5306854248046875|136586.0148171667|-1.263299617719635|-0.4359246021012577|-1.193063287367095|-0.1782112568616867|0.7854639291763306|0.3471266031265259|0.1825247704982758|-0.07861196994781494|-0.2411618828773499|XArbitraryZVertical|-0.5482896435894393|0.1794908982394632|-0.3788973859842966|0.7236009795711954|-0.1557314395904541|0.9295030832290649|-0.3343229591846466|0|0|0|-1|-1|3
2021-04-22 20:23:17.176 +0100|136586.0547401667|0.080322265625|0.8448028564453125|-0.512969970703125|136586.0347791667|-1.245360298849978|-0.4054108788462658|-1.196853225766036|0.1023370027542114|0.5973629355430603|0.3973090648651123|0.1798342168331146|-0.08331418037414551|-0.199446439743042|XArbitraryZVertical|-0.5452536408592756|0.1867056222788363|-0.3798723128538501|0.7235583249249078|-0.1440687030553818|0.9308941960334778|-0.3356789648532867|0|0|0|-1|-1|3
2021-04-22 20:23:17.196 +0100|136586.0747021667|0.1431732177734375|0.8477325439453125|-0.5008392333984375|136586.0547401667|-1.219370423016656|-0.3715293164444287|-1.195655442192648|0.3536505997180939|0.3616509139537811|0.4527491629123688|0.2005996257066727|-0.08032786846160889|-0.1788886487483978|XArbitraryZVertical|-0.5409169017134985|0.191588860940812|-0.3799263676288757|0.7255057921107977|-0.1330195367336273|0.9304559826850891|-0.3414052128791809|0|0|0|-1|-1|3
2021-04-22 20:23:17.216 +0100|136586.0946631667|0.1557159423828125|0.8531341552734375|-0.4532928466796875|136586.0747021667|-1.186831400207049|-0.3369181322597882|-1.191438184723794|0.445530503988266|0.07925549149513245|0.5355646014213562|0.2505488395690918|-0.08351981639862061|-0.1496106386184692|XArbitraryZVertical|-0.5361969826638847|0.1942698198449772|-0.3783266878374454|0.7291234684369394|-0.1224218904972076|0.9289025068283081|-0.3495040535926819|0|0|0|-1|-1|3
2021-04-22 20:23:17.236 +0100|136586.1146251667|0.0089569091796875|0.8977813720703125|-0.331695556640625|136586.0946631667|-1.148650444109657|-0.3024096166215674|-1.186073531996499|0.5107224583625793|-0.1443730741739273|0.6318308115005493|0.2775739729404449|-0.0728679895401001|-0.1128429770469666|XArbitraryZVertical|-0.5317197428798212|0.1952900252594129|-0.3746863285964898|0.7339933388872678|-0.1117730811238289|0.9269025325775146|-0.3582718372344971|0|0|0|-1|-1|3
2021-04-22 20:23:17.256 +0100|136586.1345861667|-0.127838134765625|1.022705078125|-0.2107696533203125|136586.1146251667|-1.108469550392485|-0.2674105465645355|-1.178987623553384|0.353190153837204|-0.1294566541910172|0.4567725956439972|0.1517574489116669|-0.04781597852706909|0.003817856311798096|XArbitraryZVertical|-0.526816200383068|0.1957554537905665|-0.370545009663905|0.7394870219793304|-0.1009009927511215|0.9242199063301086|-0.3682889938354492|0|0|0|-1|-1|3
2021-04-22 20:23:17.276 +0100|136586.1545481667|-0.2470703125|1.203460693359375|-0.115447998046875|136586.1345861667|-1.079939146340643|-0.2426685817616629|-1.174570185020703|-0.007744147907942533|-0.1992520838975906|0.2334091812372208|-0.0008594989776611328|0.05936390161514282|0.1222062706947327|XArbitraryZVertical|-0.5235734833050644|0.1963536793025928|-0.3672984799967795|0.7432416367292812|-0.09273903071880341|0.9225240349769592|-0.3746320903301239|0|0|0|-1|-1|3
2021-04-22 20:23:17.296 +0100|136586.1745091667|-0.3051910400390625|1.27960205078125|-0.109283447265625|136586.1545481667|-1.071867805903191|-0.240845619618882|-1.180337233669185|-0.4428671896457672|-0.3699018061161041|0.2483659386634827|-0.1306970417499542|0.2380006313323975|0.236037015914917|XArbitraryZVertical|-0.525978113648726|0.1962990218507435|-0.3637143919677626|0.7433207213972262|-0.09078536182641983|0.9247344136238098|-0.369627445936203|0|0|0|-1|-1|3
2021-04-22 20:23:17.315 +0100|136586.1944711667|-0.2648162841796875|1.167999267578125|-0.1778411865234375|136586.1745091667|-1.062091206718194|-0.2408784165236377|-1.191952070932544|-0.4956024289131165|-0.5294839143753052|0.3708195984363556|-0.2102490961551666|0.3509367108345032|0.2725911140441895|XArbitraryZVertical|-0.53086218278593|0.1964708006068429|-0.3579370477577902|0.742607378427773|-0.08822914958000183|0.9290927052497864|-0.3591691255569458|0|0|0|-1|-1|3
2021-04-22 20:23:17.335 +0100|136586.2144321667|-0.190277099609375|0.9925689697265625|-0.1666717529296875|136586.1944711667|-1.04640204636559|-0.2360289755012263|-1.200910384205435|-0.2766689658164978|-0.409713476896286|0.3898393511772156|-0.2008495628833771|0.2854354977607727|0.188477098941803|XArbitraryZVertical|-0.5345671448627886|0.1962008570421519|-0.3517613741446305|0.7429719782930586|-0.08453667163848877|0.9323685765266418|-0.3514863848686218|0|0|0|-1|-1|3
2021-04-22 20:23:17.355 +0100|136586.2343941667|-0.162994384765625|1.013626098632812|-0.19659423828125|136586.2144321667|-1.031305658900648|-0.2285914638728604|-1.210656622071171|-0.6539658308029175|-0.2917297184467316|0.3675601482391357|-0.1248406171798706|0.08516389131546021|0.1739879250526428|XArbitraryZVertical|-0.5380558250977504|0.1971722587617317|-0.346382388627528|0.7427236793722733|-0.07985711097717285|0.9358475804328918|-0.3432380557060242|0|0|0|-1|-1|3
2021-04-22 20:23:17.376 +0100|136586.2543561667|-0.1138153076171875|1.065826416015625|-0.21038818359375|136586.2343941667|-1.020754334590235|-0.2248742270946893|-1.229799828180959|-1.027462959289551|-0.3325487375259399|0.4209942519664764|-0.09345912933349609|0.04698866605758667|0.1407805681228638|XArbitraryZVertical|-0.5449522582971758|0.2000592744633763|-0.3400304692745227|0.7398532328674182|-0.07457174360752106|0.9424218535423279|-0.3260066509246826|0|0|0|-1|-1|3
2021-04-22 20:23:17.395 +0100|136586.2743171667|-0.0516510009765625|1.040603637695312|-0.19415283203125|136586.2543561667|-1.006642132995087|-0.2176380468160692|-1.250002232181675|-0.7531735897064209|-0.2578291594982147|0.4787075221538544|-0.06247004866600037|0.11803138256073|0.09734165668487549|XArbitraryZVertical|-0.5519872810083974|0.2033937547719784|-0.3331800196579143|0.7368393084144236|-0.06808523833751678|0.9489853382110596|-0.3078820407390594|0|0|0|-1|-1|3
2021-04-22 20:23:17.415 +0100|136586.2942791667|-0.0428466796875|0.99981689453125|-0.1893463134765625|136586.2743171667|-0.9828572541065104|-0.1992825312559013|-1.261906425091875|-0.2972243428230286|-0.1828377544879913|0.4881107211112976|-0.004684176295995712|0.1012072563171387|0.09272411465644836|XArbitraryZVertical|-0.5554278354294331|0.2061733243892561|-0.3274035714361045|0.7360702961420955|-0.06018199399113655|0.9526716470718384|-0.2979849576950073|0|0|0|-1|-1|3
2021-04-22 20:23:17.435 +0100|136586.3142401667|-0.0510711669921875|0.978759765625|-0.2198486328125|136586.2942791667|-0.951154256604935|-0.1724684406145204|-1.265657384469255|0.1127226650714874|-0.14374840259552|0.5140107870101929|0.01684272289276123|0.04860585927963257|0.1076455116271973|XArbitraryZVertical|-0.5556401256066725|0.2080372937016164|-0.322534827808523|0.737533735194379|-0.05155754089355469|0.9538052082061768|-0.2959690690040588|0|0|0|-1|-1|3
2021-04-22 20:23:17.455 +0100|136586.3342021667|-0.00396728515625|0.893096923828125|-0.2544403076171875|136586.3142401667|-0.9153238877972366|-0.1398425732458693|-1.260547695718871|0.5734403729438782|-0.003145111724734306|0.4711824953556061|-0.01315661892294884|0.03906017541885376|0.09970948100090027|XArbitraryZVertical|-0.5523598077679669|0.2091435155681386|-0.3191467400049092|0.7411498261695885|-0.04255430400371552|0.9522576928138733|-0.3023152649402618|0|0|0|-1|-1|3
2021-04-22 20:23:17.475 +0100|136586.35416375|0.0634613037109375|0.827178955078125|-0.252471923828125|136586.3342021667|-0.8834659430966977|-0.10789191320128|-1.246957546124595|0.8455901145935059|0.1580723822116852|0.3413458466529846|0.01523676887154579|-0.03098279237747192|0.06629738211631775|XArbitraryZVertical|-0.5457654007221738|0.2096691313152172|-0.3181074913113218|0.7463153867313601|-0.03426552563905716|0.948020875453949|-0.3163579702377319|0|0|0|-1|-1|3
2021-04-22 20:23:17.495 +0100|136586.37412575|0.0739898681640625|0.827239990234375|-0.24652099609375|136586.35416375|-0.8650637097028214|-0.08742808699293156|-1.234308550901959|0.6828235983848572|0.170881599187851|0.22103551030159|0.07872489094734192|-0.1063803434371948|0.07471713423728943|XArbitraryZVertical|-0.5398579323853588|0.2099927481686677|-0.3185582621632927|0.7503180293435157|-0.02882971987128258|0.9439201354980469|-0.3289129137992859|0|0|0|-1|-1|3
2021-04-22 20:23:17.515 +0100|136586.39408675|0.023406982421875|0.876495361328125|-0.2334747314453125|136586.37412575|-0.8540769997218564|-0.07410239219500916|-1.226836928856623|0.4013544619083405|0.1459165960550308|0.1038586497306824|0.1032727956771851|-0.1219533681869507|0.08697915077209473|XArbitraryZVertical|-0.5361545312183159|0.2106946932981233|-0.3190246242971782|0.7525752683691758|-0.02496576495468616|0.9414268732070923|-0.3362921178340912|0|0|0|-1|-1|3
2021-04-22 20:23:17.535 +0100|136586.41404875|-0.0619354248046875|0.9335174560546875|-0.2313385009765625|136586.39408675|-0.851223228714942|-0.06853110923847629|-1.223964302697088|0.2259229719638824|0.1786338537931442|0.03513497486710548|0.06407782435417175|-0.08017891645431519|0.09534826874732971|XArbitraryZVertical|-0.5345090415775167|0.211515823234327|-0.3198211393491594|0.7531769936845354|-0.02327687852084637|0.9404543042182922|-0.3391222953796387|0|0|0|-1|-1|3
2021-04-22 20:23:17.555 +0100|136586.43400975|-0.1067962646484375|0.9188232421875|-0.2406005859375|136586.41404875|-0.8507332579807354|-0.0637447424220955|-1.222084753264269|0.1802978962659836|0.2901082932949066|-0.02235956490039825|-0.01911333203315735|-0.01250636577606201|0.113165020942688|XArbitraryZVertical|-0.5331007879929708|0.2128537058945252|-0.3211597994105897|0.7532286977880494|-0.02176604419946671|0.9398137331008911|-0.3409937024116516|0|0|0|-1|-1|3
2021-04-22 20:23:17.575 +0100|136586.45397175|-0.1151580810546875|0.8557586669921875|-0.29559326171875|136586.43400975|-0.8509256167639934|-0.05585665266244941|-1.219293815232331|0.1918644458055496|0.477988064289093|-0.1090849637985229|-0.07993075251579285|-0.01168650388717651|0.1091074049472809|XArbitraryZVertical|-0.5307773871546764|0.2153820148461875|-0.3236913615461732|0.7530669814269421|-0.01922194287180901|0.9388564229011536|-0.343771904706955|0|0|0|-1|-1|3
2021-04-22 20:23:17.595 +0100|136586.47393275|-0.031646728515625|0.809814453125|-0.3731842041015625|136586.45397175|-0.859197365243816|-0.05229318216219396|-1.216463608434102|0.05232463404536247|0.6573526263237|-0.2026410102844238|-0.1013417541980743|-0.06254220008850098|0.07190927863121033|XArbitraryZVertical|-0.5282527101519593|0.2184116617170289|-0.328111304930935|0.7520562931097589|-0.01813564263284206|0.9378781914710999|-0.3464908301830292|0|0|0|-1|-1|3
2021-04-22 20:23:17.615 +0100|136586.49389475|0.0520172119140625|0.8508148193359375|-0.426300048828125|136586.47393275|-0.8747175902483878|-0.05267068242530307|-1.218171955405705|-0.2763431966304779|0.733464241027832|-0.320866197347641|-0.0430067777633667|-0.1251606941223145|-0.009806990623474121|XArbitraryZVertical|-0.5272341459108786|0.2226713258028129|-0.3336145418487655|0.7490948843596225|-0.01818205416202545|0.9384695887565613|-0.3448832631111145|0|0|0|-1|-1|3
2021-04-22 20:23:17.635 +0100|136586.51385575|0.0443878173828125|0.914581298828125|-0.4365234375|136586.49389475|-0.8977324168748223|-0.06002902293123856|-1.226898085077607|-0.6125366687774658|0.698567807674408|-0.4066737592220306|0.05713716149330139|-0.1073103547096252|-0.08277386426925659|XArbitraryZVertical|-0.5290774510560511|0.2275977921490516|-0.3390971712284053|0.7438343439009546|-0.020227225497365|0.9414474964141846|-0.3365525901317596|0|0|0|-1|-1|3
2021-04-22 20:23:17.655 +0100|136586.53381775|-0.011383056640625|1.031723022460938|-0.4027862548828125|136586.51385575|-0.9269428504765045|-0.07419326547216575|-1.239603261728519|-0.6950808167457581|0.6381612420082092|-0.4643021821975708|0.08106338977813721|-0.04724794626235962|-0.1229576766490936|XArbitraryZVertical|-0.5327338689687694|0.2324996519689093|-0.3443795847736744|0.7372525424496242|-0.02410341799259186|0.9456550478935242|-0.3242770731449127|0|0|0|-1|-1|3
2021-04-22 20:23:17.675 +0100|136586.55377875|-0.0278167724609375|1.127349853515625|-0.399871826171875|136586.53381775|-0.9629934952545987|-0.09651193908271589|-1.253222823474139|-0.6810697317123413|0.5606952905654907|-0.468671977519989|0.02725109457969666|0.05194211006164551|-0.09182381629943848|XArbitraryZVertical|-0.5372207431632282|0.2366201087791354|-0.3496178702758159|0.7301865113616128|-0.0300903208553791|0.9499959349632263|-0.3108095824718475|0|0|0|-1|-1|3
2021-04-22 20:23:17.695 +0100|136586.57374075|-0.0272674560546875|1.12896728515625|-0.435516357421875|136586.55377875|-0.9999618788867074|-0.1221051699774877|-1.260157641435798|-0.2505702078342438|0.4444005489349365|-0.4514825344085693|0.01132035255432129|0.148508608341217|-0.09529000520706177|XArbitraryZVertical|-0.5397551685786831|0.2386810980839383|-0.3550817813509859|0.7249915941265623|-0.03723087534308434|0.9521385431289673|-0.3033913969993591|0|0|0|-1|-1|3
2021-04-22 20:23:17.715 +0100|136586.59370175|-0.0438995361328125|1.030593872070312|-0.4542694091796875|136586.57374075|-1.025659764580401|-0.1389303031800108|-1.25694741844215|0.3020269572734833|0.2947427332401276|-0.4255510568618774|0.02055031806230545|0.1904339194297791|-0.1267018914222717|XArbitraryZVertical|-0.5385944282759908|0.2388356732977948|-0.3603811162512675|0.7231866893661326|-0.04275296255946159|0.9511523842811584|-0.3057471215724945|0|0|0|-1|-1|3
2021-04-22 20:23:17.735 +0100|136586.61366375|-0.0371246337890625|0.931304931640625|-0.473480224609375|136586.59370175|-1.049332019762764|-0.1567178544602111|-1.247045807867068|0.5075082182884216|0.189611405134201|-0.4512518048286438|0.008665800094604492|0.1133677959442139|-0.1326271891593933|XArbitraryZVertical|-0.5356416288061155|0.236590301247066|-0.3658565727125231|0.7233686495599108|-0.04965200647711754|0.9480489492416382|-0.3142261505126953|0|0|0|-1|-1|3
2021-04-22 20:23:17.755 +0100|136586.63362475|-0.0311126708984375|0.92071533203125|-0.46502685546875|136586.61366375|-1.071866059711676|-0.1747149735648083|-1.235245337657494|0.5290747284889221|0.1587596237659454|-0.4561353325843811|0.01886263862252235|0.001648128032684326|-0.1482573449611664|XArbitraryZVertical|-0.5323272501476195|0.2334296619597069|-0.3712780166210287|0.7240794210747088|-0.05723958089947701|0.9442290067672729|-0.3242765963077545|0|0|0|-1|-1|3
2021-04-22 20:23:17.775 +0100|136586.65358675|-0.0529327392578125|0.941650390625|-0.4660797119140625|136586.63362475|-1.090609771446216|-0.189016468702845|-1.222636276716476|0.6167782545089722|0.1648142784833908|-0.3803099989891052|0.03337100148200989|-0.02154487371444702|-0.1327871084213257|XArbitraryZVertical|-0.5285992755456015|0.2302962252627375|-0.3765396544584254|0.7250962595852593|-0.06410331279039383|0.9400020241737366|-0.3350929021835327|0|0|0|-1|-1|3
2021-04-22 20:23:17.795 +0100|136586.67354775|-0.052978515625|0.8992156982421875|-0.4381866455078125|136586.65358675|-1.102183660799144|-0.1965284475758653|-1.207477851931326|0.7982457280158997|0.1828498989343643|-0.311002105474472|0.02096069604158401|0.003082573413848877|-0.1129492223262787|XArbitraryZVertical|-0.5236302109475164|0.2270302367172101|-0.3815210113081415|0.7271248225590019|-0.06939321756362915|0.9347226619720459|-0.3485373556613922|0|0|0|-1|-1|3
2021-04-22 20:23:17.814 +0100|136586.69350975|-0.0326995849609375|0.88104248046875|-0.41717529296875|136586.67354775|-1.108621381840979|-0.1985938456281486|-1.190073620320964|0.8011665344238281|0.2100168466567993|-0.2716447710990906|0.02315500378608704|-0.01767539978027344|-0.09194916486740112|XArbitraryZVertical|-0.5174697694366748|0.2237875316598825|-0.3864962140067025|0.7299076232200203|-0.07331176102161407|0.9283963441848755|-0.3642883598804474|0|0|0|-1|-1|3
2021-04-22 20:23:17.834 +0100|136586.71347075|-0.0215301513671875|0.877044677734375|-0.38873291015625|136586.69350975|-1.115743540400659|-0.2010166764859069|-1.176214387289218|0.498445600271225|0.191106379032135|-0.262753427028656|0.03636482357978821|-0.04029899835586548|-0.04426223039627075|XArbitraryZVertical|-0.5124905888065484|0.2213877034512748|-0.3909919160710446|0.7317556345908351|-0.07675595581531525|0.9231573343276978|-0.37668177485466|0|0|0|-1|-1|3
2021-04-22 20:23:17.855 +0100|136586.73343275|-0.0099639892578125|0.8845062255859375|-0.375579833984375|136586.71347075|-1.125425359428956|-0.2067984458904648|-1.168131504040521|0.2414417713880539|0.1161871403455734|-0.2669226229190826|0.05630630999803543|-0.04276162385940552|-0.00420340895652771|XArbitraryZVertical|-0.5098417262802666|0.2197733459118895|-0.3945296804442752|0.7321936786136286|-0.08046207576990128|0.9200199842453003|-0.3835221827030182|0|0|0|-1|-1|3
2021-04-22 20:23:17.874 +0100|136586.75339375|-0.023223876953125|0.889312744140625|-0.3824615478515625|136586.73343275|-1.133776824516153|-0.21264232602922|-1.162784146410129|0.1236090958118439|0.02006236650049686|-0.2448609918355942|0.07079848647117615|-0.03177237510681152|0.01365774869918823|XArbitraryZVertical|-0.5082903697118424|0.2184410616716188|-0.397080458428742|0.7322920758601259|-0.0837390273809433|0.9179113507270813|-0.3878487944602966|0|0|0|-1|-1|3
2021-04-22 20:23:17.894 +0100|136586.77335575|-0.0459442138671875|0.8705902099609375|-0.3692474365234375|136586.75339375|-1.142067096127618|-0.2202615306570021|-1.157402669997249|0.2227970063686371|-0.05576539412140846|-0.2658737599849701|0.06933588534593582|-0.02974593639373779|0.01261979341506958|XArbitraryZVertical|-0.5071067010692744|0.2164157323490818|-0.3991770452174432|0.732574046293769|-0.08776961266994476|0.9157627820968628|-0.3920140564441681|0|0|0|-1|-1|3
2021-04-22 20:23:17.915 +0100|136586.79331675|-0.066650390625|0.8841552734375|-0.3761444091796875|136586.77335575|-1.150108999535603|-0.2292918922914964|-1.150016216279926|0.3529201447963715|-0.1589856892824173|-0.3102804720401764|0.05339584499597549|-0.03781634569168091|0.02383503317832947|XArbitraryZVertical|-0.505587556418311|0.213284460004028|-0.4012151183755783|0.7334285181034178|-0.09284093230962753|0.9127705693244934|-0.3977819383144379|0|0|0|-1|-1|3
2021-04-22 20:23:17.934 +0100|136586.81327875|-0.087310791015625|0.860015869140625|-0.3910369873046875|136586.79331675|-1.157256348105546|-0.2395413453904059|-1.141433562184054|0.3931993842124939|-0.2822732627391815|-0.287038266658783|0.03883049637079239|-0.02698326110839844|0.02876463532447815|XArbitraryZVertical|-0.5040394248075363|0.2091450501320991|-0.402864916759371|0.7347806213692309|-0.09876814484596252|0.9092311859130859|-0.4044052064418793|0|0|0|-1|-1|3
2021-04-22 20:23:17.954 +0100|136586.83323975|-0.06951904296875|0.8283538818359375|-0.4033966064453125|136586.81327875|-1.16189586246084|-0.249783558058173|-1.132297106373174|0.5000743269920349|-0.388746976852417|-0.2842824459075928|0.01695553213357925|-0.03798872232437134|0.03230056166648865|XArbitraryZVertical|-0.502593023285647|0.2042003499099443|-0.4037242868215624|0.736688105232594|-0.1049540787935257|0.9053899049758911|-0.411404937505722|0|0|0|-1|-1|3
2021-04-22 20:23:17.974 +0100|136586.85320175|-0.042205810546875|0.826568603515625|-0.4734954833984375|136586.83323975|-1.164231825392171|-0.2596551609416324|-1.121260391623189|0.5994248986244202|-0.4830459356307983|-0.2821273803710938|0.03321398049592972|-0.06596255302429199|0.02381744980812073|XArbitraryZVertical|-0.5006905087936243|0.1982888412503518|-0.4042112025400506|0.7393266924837185|-0.111568957567215|0.900648832321167|-0.4199810922145844|0|0|0|-1|-1|3
2021-04-22 20:23:17.994 +0100|136586.87316275|-0.0493927001953125|0.8391876220703125|-0.515106201171875|136586.85320175|-1.166257184668733|-0.2713137036812793|-1.107885674006742|0.7143766283988953|-0.5570213794708252|-0.3175258040428162|0.07826191186904907|-0.0654413104057312|-0.03236585855484009|XArbitraryZVertical|-0.498410879028775|0.1909893858841435|-0.4046056888955467|0.7425657945825707|-0.1196753829717636|0.8947564959526062|-0.430219292640686|0|0|0|-1|-1|3
2021-04-22 20:23:18.014 +0100|136586.89312475|-0.07666015625|0.80401611328125|-0.481719970703125|136586.87316275|-1.168995043357581|-0.2842280174452349|-1.092759568254459|0.8056110739707947|-0.5326295495033264|-0.3445623815059662|0.08630684018135071|-0.05359488725662231|-0.07384657859802246|XArbitraryZVertical|-0.4957441313943972|0.1828875697973609|-0.405318132106656|0.7459942071409056|-0.1290020346641541|0.8878998160362244|-0.4415797889232635|0|0|0|-1|-1|3
2021-04-22 20:23:18.034 +0100|136586.91308575|-0.14031982421875|0.7350921630859375|-0.3684234619140625|136586.89312475|-1.172387315331126|-0.2981263423348023|-1.076434733780163|0.8230296969413757|-0.6142138838768005|-0.3772233724594116|0.07247030735015869|-0.06366711854934692|-0.03596127033233643|XArbitraryZVertical|-0.4928332317362046|0.1741987269937282|-0.4062997488341596|0.7494604141916859|-0.139365941286087|0.8802717924118042|-0.4535404145717621|0|0|0|-1|-1|3
