loggingTime(txt)|accelerometerTimestamp_sinceReboot(s)|accelerometerAccelerationX(G)|accelerometerAccelerationY(G)|accelerometerAccelerationZ(G)|motionTimestamp_sinceReboot(s)|motionYaw(rad)|motionRoll(rad)|motionPitch(rad)|motionRotationRateX(rad/s)|motionRotationRateY(rad/s)|motionRotationRateZ(rad/s)|motionUserAccelerationX(G)|motionUserAccelerationY(G)|motionUserAccelerationZ(G)|motionAttitudeReferenceFrame(txt)|motionQuaternionX(R)|motionQuaternionY(R)|motionQuaternionZ(R)|motionQuaternionW(R)|motionGravityX(G)|motionGravityY(G)|motionGravityZ(G)|motionMagneticFieldX(µT)|motionMagneticFieldY(µT)|motionMagneticFieldZ(µT)|motionHeading(°)|motionMagneticFieldCalibrationAccuracy(Z)|label
2021-04-22 20:36:51.596 +0100|137234.789245125|-0.0240325927734375|-0.3022308349609375|-1.000228881835938|137234.769283125|-0.8562040701744206|-0.01531544199863284|0.2786549132278799|-0.01952269859611988|0.2321375012397766|-0.02634036727249622|0.05006235837936401|0.1446765065193176|-0.03359007835388184|XArbitraryZVertical|0.1231922576196514|-0.06455148764591262|-0.4120773652857487|0.9004716951182039|-0.01472409348934889|-0.2750627100467682|-0.9613135457038879|0|0|0|-1|-1|3
2021-04-22 20:36:51.605 +0100|137234.809206125|0.029815673828125|-0.3230743408203125|-0.9648284912109375|137234.789245125|-0.8556773196487537|-0.0115339182954478|0.2802855808551493|0.1759873032569885|0.1770860850811005|0.06983223557472229|-0.0124160498380661|0.03635010123252869|-0.04282587766647339|XArbitraryZVertical|0.1247226021071741|-0.06315054004477198|-0.411563630674551|0.9005952467709166|-0.0110835786908865|-0.2766301035881042|-0.9609125852584839|0|0|0|-1|-1|3
2021-04-22 20:36:51.606 +0100|137234.829168125|-0.010345458984375|-0.25494384765625|-0.90557861328125|137234.809206125|-0.854248241528937|-0.009423054013021771|0.2812420302959821|-0.06770487129688263|0.03208201751112938|0.06519415974617004|0.02409677952528|-0.05739641189575195|-0.01064467430114746|XArbitraryZVertical|0.1256324206210634|-0.06230639742878952|-0.4107623895771127|0.9008934340459339|-0.009052702225744724|-0.2775490880012512|-0.9606688022613525|0|0|0|-1|-1|3
2021-04-22 20:36:51.623 +0100|137234.849130125|-0.0476531982421875|-0.256927490234375|-0.9145965576171875|137234.829168125|-0.8529261577287083|-0.009987933453682693|0.2787491273658148|-0.1301328539848328|-0.004354925360530615|0.05663751438260078|0.01752045750617981|0.008948594331741333|0.03964525461196899|XArbitraryZVertical|0.1244336823101902|-0.0619681193459832|-0.4102686171668586|0.9013079147708264|-0.009602243080735207|-0.2751532793045044|-0.9613524079322815|0|0|0|-1|-1|3
2021-04-22 20:36:51.644 +0100|137234.869091125|-0.0235595703125|-0.2810821533203125|-0.9520721435546875|137234.849130125|-0.8519381615544446|-0.009175160998471312|0.2769672071963364|-0.04548036307096481|0.1137866824865341|0.03239351883530617|-0.03702839463949203|0.01988455653190613|0.05352342128753662|XArbitraryZVertical|0.1238270627803059|-0.06117619003420629|-0.4098199967335048|0.9016496195009561|-0.008825363591313362|-0.2734397053718567|-0.9618486762046814|0|0|0|-1|-1|3
2021-04-22 20:36:51.663 +0100|137234.889053125|-0.005218505859375|-0.275787353515625|-0.958221435546875|137234.869091125|-0.8521446936872906|-0.006193766378640171|0.2762761393340278|-0.04226122051477432|0.1619825959205627|-0.04663800448179245|-0.02373584359884262|-0.004110932350158691|0.0250476598739624|XArbitraryZVertical|0.1241199688067277|-0.05970358073964092|-0.4097468010793404|0.9017412905920793|-0.00595884770154953|-0.2727749049663544|-0.9620594382286072|0|0|0|-1|-1|3
2021-04-22 20:36:51.683 +0100|137234.909014125|-0.0101776123046875|-0.26678466796875|-0.975372314453125|137234.889053125|-0.8534021125703766|-0.002615282784562265|0.2749964166655678|-0.1444685608148575|0.1438018828630447|-0.04587571695446968|-0.004655711352825165|-0.004472583532333374|0.006291866302490234|XArbitraryZVertical|0.1242393447414159|-0.05790633079216261|-0.4101266041168303|0.9016694152726908|-0.002517013810575008|-0.2715435028076172|-0.9624229073524475|0|0|0|-1|-1|3
2021-04-22 20:36:51.703 +0100|137234.928976125|-0.009796142578125|-0.2603759765625|-0.9717254638671875|137234.909014125|-0.8544258443995002|0.001198525206873215|0.2726585125711256|-0.1817927211523056|0.1299544125795364|-0.03972372785210609|-0.009440861642360687|-0.002985000610351562|-0.01286399364471436|XArbitraryZVertical|0.1239385236487785|-0.05577093313976576|-0.4104172366496183|0.9017131115411239|0.001154249417595565|-0.2692926824092865|-0.9630576968193054|0|0|0|-1|-1|3
2021-04-22 20:36:51.723 +0100|137234.948937125|-0.0017242431640625|-0.2596435546875|-0.9668121337890625|137234.928976125|-0.8548276667897451|0.00213178425374137|0.2691784077098611|-0.1702017933130264|0.127225935459137|-0.04246669635176659|-0.01296614110469818|0.006769180297851562|-0.005174458026885986|XArbitraryZVertical|0.1225499895582933|-0.05466019018806144|-0.4106395896932579|0.9018696968896256|0.00205501657910645|-0.2659395337104797|-0.9639875292778015|0|0|0|-1|-1|3
2021-04-22 20:36:51.743 +0100|137234.968899125|0.0083770751953125|-0.2337799072265625|-0.966827392578125|137234.948937125|-0.8553987710794251|0.003131221466647762|0.2659696769067194|-0.2053167819976807|0.1190152615308762|-0.06065404415130615|-0.0080270916223526|0.002682775259017944|-0.008158624172210693|XArbitraryZVertical|0.1212930334549654|-0.05358474184248908|-0.4109268531680755|0.9019732950104234|0.003021116834133863|-0.262844979763031|-0.9648333787918091|0|0|0|-1|-1|3
2021-04-22 20:36:51.763 +0100|137234.988861125|0.008941650390625|-0.242340087890625|-0.96905517578125|137234.968899125|-0.8566261133307271|0.005092286187341829|0.2629115068656174|-0.1643999218940735|0.1079267114400864|-0.07585785537958145|0.0007426366209983826|0.0203913152217865|0.003222465515136719|XArbitraryZVertical|0.1202849273075013|-0.05214494790674568|-0.4114483951708052|0.9019550659692264|0.004917280748486519|-0.2598931193351746|-0.9656248688697815|0|0|0|-1|-1|3
2021-04-22 20:36:51.783 +0100|137235.008822125|0.0093994140625|-0.257568359375|-0.955322265625|137234.988861125|-0.8581781301650614|0.007091934123665217|0.260489487278344|-0.1307445615530014|0.1002359315752983|-0.08072957396507263|0.00350700318813324|0.02177488803863525|0.002296209335327148|XArbitraryZVertical|0.1195648781536424|-0.05083675551015005|-0.4120974036505507|0.9018290742825648|0.006852623540908098|-0.2575535476207733|-0.9662397503852844|0|0|0|-1|-1|3
2021-04-22 20:36:51.803 +0100|137235.028783625|0.038726806640625|-0.2498626708984375|-0.9575042724609375|137235.008822125|-0.8595483159539261|0.008911802377713858|0.2577223987756646|-0.1484684497117996|0.1213143691420555|-0.06611867249011993|-0.004834264516830444|-0.001010894775390625|0.005798697471618652|XArbitraryZVertical|0.1186586761388944|-0.04952592545854059|-0.4126862403385036|0.9017524339961382|0.008617358282208443|-0.2548788487911224|-0.9669346213340759|0|0|0|-1|-1|3
2021-04-22 20:36:51.823 +0100|137235.048744625|0.0222930908203125|-0.218536376953125|-0.9422149658203125|137235.028783625|-0.8602884039318156|0.01076781065831736|0.2549126283705952|-0.1336742490530014|0.08892548829317093|-0.03078021481633186|0.02313333749771118|-8.20159912109375e-05|0.01387858390808105|XArbitraryZVertical|0.1177575540464252|-0.04815120647616107|-0.4129912968208649|0.9018054283674212|0.01041965093463659|-0.2521608471870422|-0.9676292538642883|0|0|0|-1|-1|3
2021-04-22 20:36:51.843 +0100|137235.068706625|0.0040740966796875|-0.2736358642578125|-0.96319580078125|137235.048744625|-0.8610708061769737|0.0121874389211671|0.2529993176793806|-0.03825517743825912|0.08073616027832031|-0.04002590849995613|0.01708462089300156|0.02867516875267029|0.02409380674362183|XArbitraryZVertical|0.1171700492641012|-0.04716054771431995|-0.4133162027880417|0.9017854074691427|0.01179917249828577|-0.2503089308738708|-0.9680941104888916|0|0|0|-1|-1|3
2021-04-22 20:36:51.863 +0100|137235.088668625|0.01483154296875|-0.2903900146484375|-0.9892578125|137235.068706625|-0.8617087978632643|0.01423015794001792|0.2520400766085639|-0.02199579402804375|0.1128282621502876|-0.03756869956851006|-0.005694032646715641|-0.00434286892414093|0.01451122760772705|XArbitraryZVertical|0.1171452478157036|-0.04607788198244468|-0.4135122733985949|0.9017547151486685|0.01378010120242834|-0.2493800967931747|-0.9683076143264771|0|0|0|-1|-1|3
2021-04-22 20:36:51.883 +0100|137235.108629625|0.015228271484375|-0.2265167236328125|-0.978607177734375|137235.088668625|-0.8627346072452698|0.01621458634517208|0.2499008746091613|-0.187222883105278|0.06676910072565079|-0.05566425621509552|-0.004709729924798012|-0.04961268603801727|-0.01426845788955688|XArbitraryZVertical|0.1165688016192251|-0.04479875143970137|-0.41392211668333|0.9017057877202178|0.01571022346615791|-0.2473079115152359|-0.9688095450401306|0|0|0|-1|-1|3
2021-04-22 20:36:51.903 +0100|137235.128591625|0.03326416015625|-0.210418701171875|-0.9670562744140625|137235.108629625|-0.8639357436669337|0.01820481358713923|0.2462431416510272|-0.206775575876236|0.100405365228653|-0.06217364594340324|-0.004594258964061737|0.003482148051261902|-0.01566201448440552|XArbitraryZVertical|0.115307074815569|-0.04321005136657367|-0.4144571292434072|0.9016997778121779|0.01765469089150429|-0.2437621504068375|-0.9696743488311768|0|0|0|-1|-1|3
2021-04-22 20:36:51.923 +0100|137235.148552625|0.0395355224609375|-0.228240966796875|-0.957427978515625|137235.128591625|-0.864867156103549|0.02109217390897939|0.242287524592828|-0.1769129782915115|0.1117315143346786|-0.02509516291320324|0.009141631424427032|0.0261942595243454|-0.004674553871154785|XArbitraryZVertical|0.1141045558063053|-0.04113725603900288|-0.4148298965325662|0.901778343935313|0.02047458849847317|-0.239923968911171|-0.970575749874115|0|0|0|-1|-1|3
2021-04-22 20:36:51.948 +0100|137235.168514625|0.0317230224609375|-0.1845550537109375|-0.939727783203125|137235.148552625|-0.8649638811157935|0.02313607486528825|0.2388737741588413|-0.1542119830846786|0.1140099093317986|0.01880962215363979|0.01528729312121868|0.01715679466724396|0.01783853769302368|XArbitraryZVertical|0.1129890605532376|-0.03950887116574059|-0.4148603219545455|0.9019776027859442|0.02247712202370167|-0.2366085350513458|-0.971345067024231|0|0|0|-1|-1|3
2021-04-22 20:36:51.963 +0100|137235.188476625|0.0427093505859375|-0.1456298828125|-0.9486083984375|137235.168514625|-0.8644817194908418|0.0244940353872848|0.2377519110639784|-0.09194661676883698|0.08977226167917252|-0.004513100255280733|0.006835922598838806|0.03692537546157837|0.04010552167892456|XArbitraryZVertical|0.1127747424715265|-0.03863509714928422|-0.4146001743884269|0.9021618358798941|0.02380263619124889|-0.2355183660984039|-0.9715783596038818|0|0|0|-1|-1|3
2021-04-22 20:36:51.983 +0100|137235.208437625|0.141448974609375|-0.231658935546875|-0.9251556396484375|137235.188476625|-0.8645892703546412|0.02649514211145812|0.2379704510661692|0.07872529327869415|0.1618512570858002|0.01012452132999897|0.01195792853832245|0.08857515454292297|0.01188254356384277|XArbitraryZVertical|0.1132859253058464|-0.03778411540653251|-0.4145289172040379|0.9021665437558426|0.0257454551756382|-0.235730767250061|-0.9714773297309875|0|0|0|-1|-1|3
2021-04-22 20:36:52.003 +0100|137235.228399625|0.06585693359375|-0.2735443115234375|-0.8817596435546875|137235.208437625|-0.8606365985833471|0.0297085944117886|0.2393594562133781|-0.01087718084454536|0.07652612775564194|0.3642394542694092|0.08361408859491348|0.03821276128292084|0.04923206567764282|XArbitraryZVertical|0.1146495029754885|-0.03639797852684418|-0.4125186159398391|0.9029725396863927|0.02885735780000687|-0.2370803952217102|-0.9710613489151001|0|0|0|-1|-1|3
2021-04-22 20:36:52.023 +0100|137235.248360625|0.114776611328125|-0.2685546875|-0.8386077880859375|137235.228399625|-0.8577505014807395|0.03009452328942968|0.2378918573804814|-0.137659564614296|0.1124725714325905|0.1680844128131866|0.03621657192707062|-0.027666375041008|0.0686715841293335|XArbitraryZVertical|0.1141192916165861|-0.03575401597816579|-0.4112393385763354|0.9036485508642706|0.02924255467951298|-0.2356543838977814|-0.9713968634605408|0|0|0|-1|-1|3
2021-04-22 20:36:52.043 +0100|137235.268322625|0.170379638671875|-0.2540283203125|-0.7711944580078125|137235.248360625|-0.8516524608301359|0.03185804260567984|0.2331493829294335|-0.2969729006290436|0.1513663977384567|0.2483000606298447|0.08782827109098434|-0.0355280339717865|0.1364818215370178|XArbitraryZVertical|0.1124454910332768|-0.03363134702882693|-0.4085305178836762|0.9051673440694201|0.0309908352792263|-0.2310428321361542|-0.9724498987197876|0|0|0|-1|-1|3
2021-04-22 20:36:52.062 +0100|137235.288283625|0.124786376953125|-0.3018646240234375|-0.6829833984375|137235.268322625|-0.8458365151224574|0.03327202775741212|0.2244791627559991|-0.5660493969917297|0.03735007345676422|0.503364622592926|0.1548387855291367|-0.03431342542171478|0.1776328682899475|XArbitraryZVertical|0.1089063510169714|-0.03088855951190644|-0.4060853272403656|0.906796708264442|0.03243125602602959|-0.2225986272096634|-0.9743705987930298|0|0|0|-1|-1|3
2021-04-22 20:36:52.083 +0100|137235.308245625|0.1705322265625|-0.2887115478515625|-0.6199798583984375|137235.288283625|-0.8335881520152705|0.03435033995195134|0.2123786002550781|-0.7422816753387451|0.2963278293609619|0.6867789030075073|0.08025752007961273|-0.06490993499755859|0.2602807879447937|XArbitraryZVertical|0.1038154529665958|-0.02728605048288488|-0.4008268898703255|0.909843773870009|0.03357196226716042|-0.2107856571674347|-0.9769556522369385|0|0|0|-1|-1|3
2021-04-22 20:36:52.103 +0100|137235.328207625|0.220733642578125|-0.1634979248046875|-0.6255035400390625|137235.308245625|-0.8163545426733936|0.03770896093714547|0.1947462110614502|-1.155421614646912|0.3876080214977264|0.9392406940460205|0.1132495850324631|-0.1214541643857956|0.3541480302810669|XArbitraryZVertical|0.09666461694168149|-0.02136056374493439|-0.3933041403632743|0.9140632785111866|0.03698737546801567|-0.1935175508260727|-0.9803993701934814|0|0|0|-1|-1|3
2021-04-22 20:36:52.123 +0100|137235.348168625|0.1624755859375|-0.1576690673828125|-0.5615386962890625|137235.328207625|-0.7925869073788827|0.03993064161585532|0.1686946698054413|-1.527231335639954|0.2906107902526855|1.27821671962738|0.1878489404916763|-0.02605852484703064|0.347186267375946|XArbitraryZVertical|0.0853812677304692|-0.0141618654414368|-0.3830011961355257|0.9196845696390198|0.03935335576534271|-0.1678956896066666|-0.9850189685821533|0|0|0|-1|-1|3
2021-04-22 20:36:52.143 +0100|137235.368130625|0.19842529296875|-0.2418670654296875|-0.4836273193359375|137235.348168625|-0.762454014169008|0.04329582560359291|0.1338734834633688|-2.177472114562988|0.5017807483673096|1.598905205726624|0.1248132660984993|-0.01770983636379242|0.4310414791107178|XArbitraryZVertical|0.07010598880296544|-0.004832816922283608|-0.3697955749383054|0.926451881649252|0.04289502277970314|-0.1334739625453949|-0.9901235699653625|0|0|0|-1|-1|3
2021-04-22 20:36:52.163 +0100|137235.388091625|0.2994842529296875|-0.193359375|-0.540557861328125|137235.368130625|-0.7239017346090905|0.05034027646631245|0.08242987254958377|-3.164785385131836|0.6191390752792358|1.941777944564819|0.1419742107391357|-0.130767360329628|0.4653584957122803|XArbitraryZVertical|0.04742563160395899|0.008931407225697397|-0.3527167936278406|0.9344848809670736|0.05014816299080849|-0.08233655989170074|-0.9953420758247375|0|0|0|-1|-1|3
2021-04-22 20:36:52.183 +0100|137235.408053625|0.3423919677734375|0.108642578125|-0.567230224609375|137235.388091625|-0.6793796490258989|0.06078163287904343|0.01237673287834849|-4.020977020263672|0.5294603109359741|2.084817171096802|0.204060435295105|-0.2337321937084198|0.4630579352378845|XArbitraryZVertical|0.0159563216950222|0.02658830008083564|-0.3328571031128616|0.9424673979878349|0.06073956191539764|-0.01237641647458076|-0.9980769157409668|0|0|0|-1|-1|3
2021-04-22 20:36:52.202 +0100|137235.428015625|0.358245849609375|0.50836181640625|-0.606597900390625|137235.408053625|-0.6308745695948661|0.0700303728864715|-0.0704186393789271|-4.317294597625732|0.2872396409511566|2.253187894821167|0.2781301736831665|-0.03154164552688599|0.5049947500228882|XArbitraryZVertical|-0.02259080413516952|0.04417424833207081|-0.311021427128199|0.9491069807382985|0.06979972869157791|0.0703604519367218|-0.995076596736908|0|0|0|-1|-1|3
2021-04-22 20:36:52.222 +0100|137235.447976625|0.332733154296875|0.659698486328125|-0.7729034423828125|137235.428015625|-0.577791592854192|0.08145640604123763|-0.153652801264018|-4.528928279876709|0.2011170536279678|2.370771646499634|0.2740224003791809|0.2692385911941528|0.3393425941467285|XArbitraryZVertical|-0.06194341151694744|0.06076218104001955|-0.2868135782151668|0.9540487978444617|0.08040774613618851|0.1530489176511765|-0.9849419593811035|0|0|0|-1|-1|3
2021-04-22 20:36:52.243 +0100|137235.467938625|0.355072021484375|0.6843414306640625|-0.8100738525390625|137235.447976625|-0.5189413358759848|0.09432794123384516|-0.2366755344551915|-4.333892345428467|0.06108954176306725|2.589797973632812|0.2642715871334076|0.4007365703582764|0.1993991732597351|XArbitraryZVertical|-0.1019711288695674|0.07550689580015688|-0.2598711302849521|0.957271026839012|0.091562420129776|0.2344721406698227|-0.9678012132644653|0|0|0|-1|-1|3
2021-04-22 20:36:52.262 +0100|137235.487899625|0.38885498046875|0.8281707763671875|-0.816497802734375|137235.467938625|-0.4570160722970555|0.1127884447906625|-0.3193132287260482|-4.643187046051025|-0.01657574623823166|2.557287693023682|0.2338523268699646|0.3614095151424408|0.1308576464653015|XArbitraryZVertical|-0.1419949058433876|0.09015639332854641|-0.2320159138584595|0.958059520776315|0.1068602278828621|0.313914567232132|-0.943418562412262|0|0|0|-1|-1|3
2021-04-22 20:36:52.282 +0100|137235.507861625|0.36761474609375|1.077774047851562|-0.7575225830078125|137235.487899625|-0.3896201479363604|0.1328245477017895|-0.4097452164237964|-4.966175556182861|-0.3842446208000183|2.537516117095947|0.2619654834270477|0.3734756112098694|0.07981300354003906|XArbitraryZVertical|-0.1865762055852176|0.1030421477849955|-0.2023597716963251|0.9558359159615797|0.1214717328548431|0.3983756601810455|-0.9091432690620422|0|0|0|-1|-1|3
2021-04-22 20:36:52.303 +0100|137235.527823625|0.269622802734375|1.175491333007812|-0.6734771728515625|137235.507861625|-0.319623267831691|0.1533889054579358|-0.4988095576496504|-4.695558547973633|-0.6282384991645813|2.452141523361206|0.2435286641120911|0.5464767813682556|0.1125171780586243|XArbitraryZVertical|-0.2311502698446652|0.1124652233454319|-0.1724260419475133|0.9508892664342251|0.1341712921857834|0.4783805012702942|-0.8678422570228577|0|0|0|-1|-1|3
2021-04-22 20:36:52.322 +0100|137235.547784625|0.260498046875|1.111083984375|-0.68145751953125|137235.527823625|-0.2463407956412069|0.1787395613215476|-0.5815781718416725|-4.624905109405518|-0.5447061657905579|2.375277280807495|0.1488480269908905|0.6233258247375488|0.1297646760940552|XArbitraryZVertical|-0.2728956972485871|0.1199403101584|-0.1426266704563275|0.9438220657090293|0.1485602110624313|0.5493433475494385|-0.8222845196723938|0|0|0|-1|-1|3
2021-04-22 20:36:52.342 +0100|137235.567746625|0.238739013671875|1.0338134765625|-0.663055419921875|137235.547784625|-0.1669470409447302|0.2148884672793054|-0.6627046469088874|-4.665037631988525|-0.474951833486557|2.371939420700073|0.08258332312107086|0.5058127045631409|0.06060534715652466|XArbitraryZVertical|-0.3138651121425093|0.1280189915942598|-0.1131518330511287|0.9339682352334674|0.1681025177240372|0.6152512431144714|-0.7701996564865112|0|0|0|-1|-1|3
2021-04-22 20:36:52.363 +0100|137235.587707625|0.2288970947265625|1.066452026367188|-0.5380706787109375|137235.567746625|-0.0774774780280659|0.2634904833426575|-0.7491241723740277|-5.403523921966553|-0.4504033327102661|2.2045738697052|0.04824177920818329|0.3694486618041992|0.0301937460899353|XArbitraryZVertical|-0.3576874441892278|0.13621176199931|-0.08375711650857205|0.9200494275096516|0.1907253712415695|0.6809976696968079|-0.7070121169090271|0|0|0|-1|-1|3
2021-04-22 20:36:52.382 +0100|137235.607669625|0.1970062255859375|1.214065551757812|-0.3414459228515625|137235.587707625|0.02855183500380755|0.3301421334537055|-0.846124243791764|-5.966414928436279|-0.4973482191562653|2.021507501602173|0.01590970158576965|0.2856466770172119|0.06941384077072144|XArbitraryZVertical|-0.4070713867147328|0.1440386626975517|-0.05461651506696039|0.9003126717341661|0.214894026517868|0.7487168312072754|-0.6270915269851685|0|0|0|-1|-1|3
2021-04-22 20:36:52.402 +0100|137235.627631625|0.1278076171875|1.28033447265625|-0.3155975341796875|137235.607669625|0.1576525425462228|0.4217594765936487|-0.9477684811169204|-6.405953884124756|-0.4496167004108429|1.785990118980408|-0.03036859631538391|0.3711128234863281|0.1583423614501953|XArbitraryZVertical|-0.4595173403760239|0.1505365451677715|-0.02671078558492869|0.8749109928877122|0.2388640195131302|0.8121154308319092|-0.5323651432991028|0|0|0|-1|-1|3
2021-04-22 20:36:52.422 +0100|137235.647592625|0.084869384765625|1.304672241210938|-0.31005859375|137235.627631625|0.3266094524614578|0.5557963257413396|-1.047710077963554|-6.611464500427246|-0.3246352672576904|1.617101311683655|-0.1201133728027344|0.409277617931366|0.1116657853126526|XArbitraryZVertical|-0.5132506455359603|0.1561796582203692|-2.618162652533539e-05|0.8439087051042663|0.2635758817195892|0.8662815690040588|-0.424363374710083|0|0|0|-1|-1|3
2021-04-22 20:36:52.454 +0100|137235.667554625|0.0777740478515625|1.355239868164062|-0.2820892333984375|137235.647592625|0.5477980452239765|0.7488627726604867|-1.132842286277673|-6.326530456542969|-0.04779203981161118|1.391417860984802|-0.1984816789627075|0.3927649259567261|-0.00580713152885437|XArbitraryZVertical|-0.5642981366999181|0.1620285182524308|0.02348305021805592|0.8091742752155999|0.28872150182724|0.9056212306022644|-0.310628741979599|0|0|0|-1|-1|3
2021-04-22 20:36:52.467 +0100|137235.687515625|0.074554443359375|1.400665283203125|-0.289031982421875|137235.687515625|1.148893136481935|1.313663673137441|-1.21887349940884|-5.432445049285889|0.3782849907875061|0.9323110580444336|-0.2621742188930511|0.4496096968650818|-0.1800686120986938|XArbitraryZVertical|-0.6526031663302894|0.174007282932042|0.0594257264176175|0.7350505722946754|0.3333711326122284|0.9387116432189941|-0.08766114711761475|0|0|0|-1|-1|3
2021-04-22 20:36:52.482 +0100|137235.707477625|0.09808349609375|1.427734375|-0.292388916015625||||||||||||||||||||||||3
2021-04-22 20:36:52.502 +0100|137235.727439625|0.1080322265625|1.316635131835938|-0.1669921875|137235.707477625|1.445047631215614|1.600177000645225|-1.215727293120278|-4.701045036315918|0.4605793058872223|0.5127855539321899|-0.252291351556778|0.4973754286766052|-0.3369178771972656|XArbitraryZVertical|-0.6878851416128258|0.1786630222067846|0.0708023644717759|0.6999148271462106|0.3475055992603302|0.9376224875450134|0.01021288707852364|0|0|0|-1|-1|3
2021-04-22 20:36:52.523 +0100|137235.747400625|0.10601806640625|1.315536499023438|0.005767822265625|137235.727439625|1.682906485799445|1.83076986722502|-1.195774601006984|-3.984342336654663|0.3095793426036835|0.2748949229717255|-0.247128039598465|0.4183319211006165|-0.2866613864898682|XArbitraryZVertical|-0.7171961742873013|0.1808546834456261|0.07822573790615746|0.6684326273901591|0.3539847433567047|0.9304996728897095|0.09415753930807114|0|0|0|-1|-1|3
2021-04-22 20:36:52.542 +0100|137235.767362625|0.11639404296875|1.263153076171875|0.027252197265625|137235.747400625|1.852561453189357|1.993508148782727|-1.169757415146962|-2.979654788970947|0.2005342543125153|-0.02014745399355888|-0.2562228143215179|0.3699936866760254|-0.1671942472457886|XArbitraryZVertical|-0.739808560442363|0.1809866835777982|0.08340007211320342|0.6426287701452486|0.3560146689414978|0.9206559062004089|0.1601457744836807|0|0|0|-1|-1|3
2021-04-22 20:36:52.562 +0100|137235.787323625|0.0184478759765625|1.080215454101562|0.0801239013671875|137235.767362625|1.966953883175584|2.098717771723874|-1.148533253303757|-2.098489284515381|-0.1376880556344986|-0.06898867338895798|-0.2308474779129028|0.4040596485137939|-0.2027518451213837|XArbitraryZVertical|-0.7559626692749857|0.1781662595418876|0.08712989968644748|0.6238476223852898|0.3540310859680176|0.9121637940406799|0.2064455449581146|0|0|0|-1|-1|3
2021-04-22 20:36:52.582 +0100|137235.807285625|0.0625|1.05615234375|0.0816497802734375|137235.787323625|2.050098605388468|2.169402488238443|-1.130541365144094|-1.812827587127686|-0.2231023907661438|-0.2276167571544647|-0.3277770578861237|0.2280167937278748|-0.1540979743003845|XArbitraryZVertical|-0.7680605321372502|0.1736508608268056|0.09137474815130836|0.6095728160436058|0.3520683646202087|0.9046430587768555|0.240143209695816|0|0|0|-1|-1|3
2021-04-22 20:36:52.602 +0100|137235.827247625|0.1220550537109375|1.190811157226562|0.0228424072265625|137235.807285625|2.118951697224989|2.225894010210923|-1.114520579301224|-1.468222618103027|-0.3760507702827454|-0.2865731716156006|-0.3037436008453369|0.1353967785835266|-0.1725627183914185|XArbitraryZVertical|-0.7783140994698947|0.1686550833781582|0.09502989243814014|0.5972872673831785|0.3493972718715668|0.8976996541023254|0.2684347629547119|0|0|0|-1|-1|3
2021-04-22 20:36:52.622 +0100|137235.847208625|0.126617431640625|1.221084594726562|0.1858367919921875|137235.827247625|2.156760669213451|2.249043393133355|-1.110579000465589|0.04510033503174782|-0.7282387018203735|-0.4708159267902374|-0.2326993048191071|0.2517643570899963|-0.2297475636005402|XArbitraryZVertical|-0.7830269068610679|0.1618734019688423|0.09836217767005276|0.5924447980475567|0.345842570066452|0.8959559798240662|0.2786682844161987|0|0|0|-1|-1|3
2021-04-22 20:36:52.642 +0100|137235.867170625|0.1905975341796875|1.048065185546875|0.2949371337890625|137235.847208625|2.144491691245265|2.221528344071071|-1.131069804794555|1.54045033454895|-0.9191707968711853|-0.7960504293441772|-0.2146449983119965|0.3417904376983643|-0.1273925006389618|XArbitraryZVertical|-0.7781986997461441|0.1527825624614785|0.09963386356934664|0.6009472572566231|0.3386984169483185|0.9048681259155273|0.2578714489936829|0|0|0|-1|-1|3
2021-04-22 20:36:52.662 +0100|137235.887131625|0.29180908203125|1.12542724609375|0.259521484375|137235.867170625|2.092410689680494|2.154676064436043|-1.166308951762387|2.082006454467773|-1.033894777297974|-0.8278054594993591|-0.163203626871109|0.1621319651603699|0.06800983846187592|XArbitraryZVertical|-0.7669313819143807|0.1424459727983457|0.09932203207433242|0.6177868904263671|0.3283488750457764|0.9193042516708374|0.2169491946697235|0|0|0|-1|-1|3
2021-04-22 20:36:52.682 +0100|137235.907093625|0.3150787353515625|1.1632080078125|0.299285888671875|137235.887131625|2.021146704911029|2.064889629855827|-1.20340474371662|2.182750225067139|-1.345048904418945|-0.9509276747703552|-0.04890620708465576|0.1476501822471619|0.09264971315860748|XArbitraryZVertical|-0.7537957211662677|0.1302318875562724|0.09982378542907608|0.6362916833504446|0.3162244260311127|0.9332674145698547|0.1703366637229919|0|0|0|-1|-1|3
2021-04-22 20:36:52.702 +0100|137235.927055625|0.32965087890625|1.040985107421875|0.2400360107421875|137235.907093625|1.924205787984578|1.943610415252251|-1.236573356818733|2.162971258163452|-1.670728087425232|-0.7115054130554199|0.01300927996635437|0.238730251789093|0.1571293026208878|XArbitraryZVertical|-0.7389991528082372|0.1167126427377533|0.103182850304774|0.655447960003836|0.3055022060871124|0.9446654915809631|0.1194831803441048|0|0|0|-1|-1|3
2021-04-22 20:36:52.722 +0100|137235.947016625|0.337310791015625|1.07574462890625|0.23272705078125|137235.927055625|1.805119236741212|1.793688337366854|-1.263199365406594|2.360270500183105|-2.021679162979126|-0.6865954399108887|0.03099805116653442|0.1036991477012634|0.1791520118713379|XArbitraryZVertical|-0.7232973964503449|0.101512007014095|0.1094994240804434|0.6742004772798358|0.2952801883220673|0.9530639052391052|0.06692761927843094|0|0|0|-1|-1|3
2021-04-22 20:36:52.742 +0100|137235.966978625|0.3840789794921875|0.957427978515625|0.1660919189453125|137235.947016625|1.640110870015313|1.593795867540669|-1.28239355056799|2.766182661056519|-2.168837070465088|-0.6083203554153442|0.03993281722068787|0.1194411516189575|0.2443146705627441|XArbitraryZVertical|-0.7042685501612316|0.08530126369357467|0.117708111747744|0.6948916601808751|0.2843465209007263|0.9586994051933289|0.006540992762893438|0|0|0|-1|-1|3
2021-04-22 20:36:52.762 +0100|137235.986939625|0.370941162109375|0.842864990234375|0.1465606689453125|137235.966978625|1.412115217855396|1.329971211469088|-1.284655563143236|3.666023254394531|-2.333376884460449|-0.3002553582191467|0.104600191116333|0.03180992603302002|0.254499077796936|XArbitraryZVertical|-0.6792861744188874|0.07007923022142673|0.1275541896301793|0.7192977935845094|0.2741072773933411|0.9593402743339539|-0.0673183873295784|0|0|0|-1|-1|3
2021-04-22 20:36:52.782 +0100|137236.006901625|0.358734130859375|0.7386932373046875|0.053436279296875|137235.986939625|1.16923481908673|1.0520760130681|-1.260553583188504|3.7366042137146|-2.19193696975708|-0.1157475709915161|0.1076566278934479|-0.0705910325050354|0.3096186518669128|XArbitraryZVertical|-0.6489037791676343|0.05698406934129292|0.1387863202511553|0.7459324020507369|0.2651304602622986|0.9522594809532166|-0.1513534039258957|0|0|0|-1|-1|3
2021-04-22 20:36:52.802 +0100|137236.026865375|0.3668212890625|0.7206878662109375|0.0034637451171875|137236.026865375|0.8629172694833852|0.6881321917386645|-1.170032931051213|3.037884950637817|-1.600152254104614|0.1121606975793839|0.1179578304290771|-0.1913470029830933|0.3118574619293213|XArbitraryZVertical|-0.5898139550709117|0.03805203170822363|0.1590166122975017|0.7908131434228071|0.247764527797699|0.9207634329795837|-0.3013430833816528|0|0|0|-1|-1|3
2021-04-22 20:36:52.822 +0100|137236.046826375|0.3521575927734375|0.5959014892578125|-0.117919921875||||||||||||||||||||||||3
2021-04-22 20:36:52.841 +0100|137236.066788375|0.1941375732421875|0.5770416259765625|-0.1993560791015625|137236.046826375|0.7914420873915438|0.5944834519624164|-1.126006717087254|2.118840217590332|-1.323851466178894|0.2373292595148087|0.1158263236284256|-0.2609617710113525|0.2792572677135468|XArbitraryZVertical|-0.5663587000391477|0.03182202106992345|0.1674433796648417|0.8063423260086142|0.2409849166870117|0.902701199054718|-0.3564503490924835|0|0|0|-1|-1|3
2021-04-22 20:36:52.861 +0100|137236.086749375|0.170623779296875|0.7728271484375|-0.2718353271484375|137236.066788375|0.7691296497299821|0.5519127789020122|-1.099240830153503|0.6948660016059875|-0.7950812578201294|0.2973690927028656|-0.01229210197925568|-0.3300406336784363|0.217635452747345|XArbitraryZVertical|-0.5530541961544918|0.02681623789478979|0.1758687387119809|0.8139301978983261|0.2381829768419266|0.890862762928009|-0.3868238925933838|0|0|0|-1|-1|3
2021-04-22 20:36:52.881 +0100|137236.106711375|0.1934051513671875|0.87066650390625|-0.285614013671875|137236.086749375|0.774226554977844|0.5476190277236452|-1.092231721082148|-0.1294379085302353|-0.1218826174736023|0.3108018040657043|-0.07800677418708801|-0.1737281084060669|0.1258771419525146|XArbitraryZVertical|-0.5502568610314803|0.02520451520859974|0.1805419860861213|0.8148538018831472|0.239764928817749|0.8876568675041199|-0.3931642472743988|0|0|0|-1|-1|3
2021-04-22 20:36:52.901 +0100|137236.126673375|0.29071044921875|0.8163299560546875|-0.281829833984375|137236.106711375|0.7970797293606585|0.5713541168339066|-1.094585395423596|-0.5875651240348816|0.4940705895423889|0.4302569925785065|-0.06821069121360779|-0.008503913879394531|0.1149303317070007|XArbitraryZVertical|-0.5535450052020134|0.02802595892660066|0.1828057287177634|0.8120250996008775|0.2478979676961899|0.8887382745742798|-0.3856049478054047|0|0|0|-1|-1|3
2021-04-22 20:36:52.921 +0100|137236.146634375|0.4021759033203125|0.836395263671875|-0.3491668701171875|137236.126673375|0.8347960729401409|0.6203734204345681|-1.107812357060147|-1.792964816093445|1.001041769981384|0.2357199192047119|-0.006586223840713501|-0.06635409593582153|0.08266744017601013|XArbitraryZVertical|-0.563141410624877|0.03424864755294176|0.181541351706813|0.8054450063040975|0.259637713432312|0.8947237730026245|-0.3633975684642792|0|0|0|-1|-1|3
2021-04-22 20:36:52.941 +0100|137236.166596375|0.4467620849609375|1.060440063476562|-0.3600616455078125|137236.146634375|0.9106036530150411|0.7106852027762867|-1.142795955183543|-2.768422365188599|1.186325788497925|0.07153932005167007|0.1127988696098328|-0.1286842823028564|-0.02726680040359497|XArbitraryZVertical|-0.5840568421876805|0.0398774882009791|0.1777865825401638|0.7909991087417781|0.2707610428333282|0.9097974896430969|-0.3145747780799866|0|0|0|-1|-1|3
2021-04-22 20:36:52.961 +0100|137236.186557375|0.318023681640625|1.02496337890625|-0.38592529296875|137236.166596375|1.011318672293264|0.8266343285801209|-1.185047485146217|-2.933634281158447|1.128454685211182|-0.05351250991225243|0.1791546046733856|0.1029787659645081|-0.08860158920288086|XArbitraryZVertical|-0.6088157839742209|0.04375692513887831|0.1717448533528481|0.7732609901758023|0.2767930030822754|0.9265169501304626|-0.2548573315143585|0|0|0|-1|-1|3
2021-04-22 20:36:52.981 +0100|137236.206519375|0.2954559326171875|0.8717803955078125|-0.419708251953125|137236.186557375|1.127661296464794|0.9585151101746122|-1.219521840980374|-2.512219190597534|1.270443439483643|-0.0111262621358037|0.07354643940925598|0.1097562313079834|-0.1932264268398285|XArbitraryZVertical|-0.6315221860254304|0.04793654069153189|0.1655605437573658|0.7559573933188919|0.2815862894058228|0.9389349222183228|-0.1977636367082596|0|0|0|-1|-1|3
2021-04-22 20:36:53.001 +0100|137236.226481375|0.4048614501953125|0.8853912353515625|-0.3771820068359375|137236.206519375|1.256655441498571|1.108087194740399|-1.244572187712791|-2.454745531082153|1.496296286582947|0.09363867342472076|-0.008786290884017944|-0.03414231538772583|-0.2747202515602112|XArbitraryZVertical|-0.6523083508481293|0.05449125520154409|0.1580551385073342|0.7392856328115347|0.2867705821990967|0.9472591280937195|-0.143049031496048|0|0|0|-1|-1|3
2021-04-22 20:36:53.021 +0100|137236.246442375|0.458465576171875|1.039901733398438|-0.2942962646484375|137236.226481375|1.407673620941036|1.281042140855603|-1.260573611691687|-2.508411884307861|1.393954277038574|0.131566971540451|0.08242332935333252|-0.09160852432250977|-0.2969940304756165|XArbitraryZVertical|-0.6726920282880505|0.0622485909720072|0.1506564530252516|0.7217432852714505|0.2925457954406738|0.9522656202316284|-0.08722109347581863|0|0|0|-1|-1|3
2021-04-22 20:36:53.041 +0100|137236.266404375|0.438934326171875|1.078933715820312|-0.2294769287109375|137236.246442375|1.563949022818461|1.454645693549919|-1.267301642764242|-2.200263500213623|1.07049036026001|0.1523478031158447|0.1600038409233093|0.04970020055770874|-0.2824114561080933|XArbitraryZVertical|-0.6913678850054251|0.06850691462626626|0.1448698419821807|0.7045070365089744|0.2968439161777496|0.9542979001998901|-0.03463450074195862|0|0|0|-1|-1|3
2021-04-22 20:36:53.061 +0100|137236.286366375|0.4222412109375|1.02197265625|-0.221435546875|137236.266404375|1.696464139793143|1.600289517584684|-1.266599010786452|-1.762592554092407|0.8522846698760986|0.09805738925933838|0.1424808502197266|0.1313924193382263|-0.2395139932632446|XArbitraryZVertical|-0.706438764667325|0.07321648838624785|0.1404112140791739|0.6898322732138381|0.2993980348110199|0.9540876746177673|0.008832764811813831|0|0|0|-1|-1|3
2021-04-22 20:36:53.081 +0100|137236.306327375|0.4015045166015625|0.9755706787109375|-0.214141845703125|137236.286366375|1.79711854850627|1.711596961974|-1.262657618657291|-1.299546837806702|0.6890833377838135|0.0213488582521677|0.1265027225017548|0.08465254306793213|-0.2715189456939697|XArbitraryZVertical|-0.7178993710902855|0.07682111316565886|0.1365594978845923|0.678285193983942|0.3002851903438568|0.952899694442749|0.04256198182702065|0|0|0|-1|-1|3
2021-04-22 20:36:53.101 +0100|137236.326289375|0.360015869140625|0.9539031982421875|-0.21630859375|137236.306327375|1.866971975896314|1.789814338273034|-1.258760644527371|-0.8889402747154236|0.484995037317276|-0.01153674349188805|0.1080358028411865|0.02891093492507935|-0.2671552896499634|XArbitraryZVertical|-0.7259897319779696|0.07930778297103952|0.1331904352727231|0.6700071833251934|0.2996633350849152|0.95171058177948|0.06670162826776505|0|0|0|-1|-1|3
2021-04-22 20:36:53.121 +0100|137236.346250375|0.3503265380859375|0.95721435546875|-0.268218994140625|137236.326289375|1.915531798575087|1.844653756732274|-1.255894836679746|-0.6700323224067688|0.3877789378166199|-0.07875697314739227|0.06902045011520386|0.007425427436828613|-0.2942425012588501|XArbitraryZVertical|-0.7316706776273941|0.08087011267772297|0.1303581607758361|0.6641724769796675|0.2981818914413452|0.95082688331604|0.08376391232013702|0|0|0|-1|-1|3
2021-04-22 20:36:53.141 +0100|137236.366212375|0.3403167724609375|0.9777679443359375|-0.291839599609375|137236.346250375|1.950643178445081|1.884575716987591|-1.254264525222129|-0.4000593423843384|0.2846376299858093|-0.08670090883970261|0.05788272619247437|-0.0004761219024658203|-0.3478450775146484|XArbitraryZVertical|-0.7357686902858993|0.0817469520983668|0.1278714623278666|0.6600083040323168|0.2960749566555023|0.9503206610679626|0.09607625752687454|0|0|0|-1|-1|3
2021-04-22 20:36:53.161 +0100|137236.386174375|0.3040924072265625|0.935516357421875|-0.3314361572265625|137236.366212375|1.972970760721606|1.910684484728494|-1.254618721944098|-0.2876764833927155|0.167415976524353|-0.154288038611412|0.04967015981674194|0.03383749723434448|-0.3810031414031982|XArbitraryZVertical|-0.7383128582289933|0.08200253199570669|0.1254893448127981|0.6575882808776862|0.2931486070156097|0.9504308700561523|0.1036605834960938|0|0|0|-1|-1|3
2021-04-22 20:36:53.181 +0100|137236.406135375|0.3093109130859375|0.9311065673828125|-0.3180389404296875|137236.386174375|1.999563905631439|1.938474679694996|-1.255275141543104|-0.5142491459846497|0.1443392634391785|-0.1920146495103836|0.02278965711593628|-0.002606093883514404|-0.441954493522644|XArbitraryZVertical|-0.7410790902702179|0.08107209466838587|0.1237256436147784|0.6549207668520257|0.2895725667476654|0.950634777545929|0.1115418076515198|0|0|0|-1|-1|3
2021-04-22 20:36:53.201 +0100|137236.426097375|0.3180389404296875|1.027587890625|-0.2733612060546875|137236.406135375|2.03825099610876|1.978369500519681|-1.254230027909228|-0.6144278645515442|0.1214727237820625|-0.1713227778673172|0.01929336786270142|-0.03313440084457397|-0.4419071674346924|XArbitraryZVertical|-0.7451774241794248|0.08005475079592458|0.1218618216271959|0.6507317262195285|0.2858057022094727|0.9503099322319031|0.1233963146805763|0|0|0|-1|-1|3
2021-04-22 20:36:53.221 +0100|137236.446058375|0.310302734375|1.0616455078125|-0.23553466796875|137236.426097375|2.078409103257151|2.018794818584566|-1.252629653268216|-0.5334687232971191|0.1001174747943878|-0.1815951019525528|0.03347352147102356|0.05501151084899902|-0.4093226194381714|XArbitraryZVertical|-0.7493761250807801|0.07866273034882408|0.1202779742020516|0.6463598725745382|0.281955748796463|0.9498105049133301|0.1355047971010208|0|0|0|-1|-1|3
2021-04-22 20:36:53.241 +0100|137236.466020375|0.309539794921875|0.9850616455078125|-0.1149444580078125|137236.446058375|2.102503565210613|2.042977401691961|-1.252165895203969|-0.2029689997434616|0.04566818848252296|-0.1393302083015442|0.03871428966522217|0.114284336566925|-0.4000043869018555|XArbitraryZVertical|-0.7518147073702438|0.07756380468791647|0.119115993007146|0.6438711013935465|0.2789885103702545|0.949665367603302|0.1424829959869385|0|0|0|-1|-1|3
2021-04-22 20:36:53.261 +0100|137236.485982375|0.3724822998046875|1.09295654296875|-0.126251220703125|137236.466020375|2.117034061993007|2.058618513636084|-1.25292613412762|-0.1792919635772705|0.1194391325116158|-0.1172408014535904|0.02742442488670349|0.05334681272506714|-0.287205845117569|XArbitraryZVertical|-0.7532148066296575|0.07689387324935812|0.117673498250101|0.6425789591753739|0.276087611913681|0.9499032497406006|0.1464904248714447|0|0|0|-1|-1|3
2021-04-22 20:36:53.280 +0100|137236.505943375|0.3720855712890625|1.154876708984375|-0.1679229736328125|137236.485982375|2.132669227285514|2.074738882909176|-1.252808602452896|-0.2442811727523804|-0.01603139564394951|-0.1458437740802765|0.08319002389907837|0.08927243947982788|-0.2677505016326904|XArbitraryZVertical|-0.7547717254100241|0.07620841950048908|0.1166490578446051|0.6410188263112002|0.2737888991832733|0.9498664736747742|0.1509761661291122|0|0|0|-1|-1|3
2021-04-22 20:36:53.300 +0100|137236.525905375|0.2962493896484375|1.025436401367188|0.0034637451171875|137236.505943375|2.149132780913887|2.087552974540915|-1.251819519828458|-0.1630935221910477|-0.2156016081571579|0.01734514907002449|0.115809828042984|0.2298712730407715|-0.3164489269256592|XArbitraryZVertical|-0.7562633556458632|0.07438837848590008|0.1173724624425827|0.63934016540126|0.2726479470729828|0.9495567679405212|0.1549357920885086|0|0|0|-1|-1|3
2021-04-22 20:36:53.320 +0100|137236.545866375|0.357208251953125|0.9855499267578125|0.039459228515625|137236.525905375|2.15367457533474|2.089801569544466|-1.252464788050411|-0.03614471852779388|-0.003174932207912207|-0.1729564368724823|0.02471053600311279|0.08745735883712769|-0.1974951177835464|XArbitraryZVertical|-0.7564817837104109|0.07319633369727831|0.11778291168139|0.6391439385402471|0.2717672288417816|0.9497589468955994|0.1552447825670242|0|0|0|-1|-1|3
2021-04-22 20:36:53.340 +0100|137236.565828375|0.302276611328125|0.900146484375|-0.0316925048828125|137236.545866375|2.163283744426072|2.097567602462245|-1.254642184732526|-0.03118151798844337|-0.1979784518480301|-0.1460665911436081|0.08311742544174194|0.05661147832870483|-0.1015913486480713|XArbitraryZVertical|-0.757006269512853|0.07139175542334393|0.1172724668526556|0.6388208308277704|0.2687650620937347|0.9504382014274597|0.1563105434179306|0|0|0|-1|-1|3
2021-04-22 20:36:53.360 +0100|137236.585790375|0.2890777587890625|0.8753204345703125|-0.0943756103515625|137236.565828375|2.165999842602968|2.094102941958165|-1.258600699046999|0.1038035750389099|-0.3653087317943573|-0.2677079141139984|0.05519905686378479|-0.04171890020370483|-0.1687238365411758|XArbitraryZVertical|-0.756382086019901|0.06807745118485195|0.1182873000862705|0.6397341326585513|0.2660437226295471|0.9516614675521851|0.1534968018531799|0|0|0|-1|-1|3
2021-04-22 20:36:53.381 +0100|137236.605751375|0.25164794921875|0.7685699462890625|-0.0164031982421875|137236.585790375|2.17429566818924|2.094066532185721|-1.263972078880655|-0.09444192796945572|-0.4775867164134979|-0.2594282329082489|0.03099918365478516|-0.04559785127639771|-0.2203265428543091|XArbitraryZVertical|-0.7559462255356958|0.06332983783752733|0.1193791111639569|0.6405337068422412|0.2616181671619415|0.9532975554466248|0.1509307324886322|0|0|0|-1|-1|3
2021-04-22 20:36:53.400 +0100|137236.625713375|0.289703369140625|0.8515167236328125|0.0276336669921875|137236.605751375|2.199463419767258|2.10871708206731|-1.26675942252812|-0.4796354472637177|-0.4232020378112793|-0.4279397428035736|-0.001786082983016968|-0.1846349835395813|-0.2065302282571793|XArbitraryZVertical|-0.7572096752056465|0.05767169431524818|0.121077277471266|0.6392556886133243|0.2570956945419312|0.9541357159614563|0.1533850282430649|0|0|0|-1|-1|3
2021-04-22 20:36:53.420 +0100|137236.645674375|0.2926025390625|0.8925018310546875|0.0849761962890625|137236.625713375|2.250373008751113|2.148342795189985|-1.267825200618966|-0.7163885831832886|-0.4849032163619995|-0.4628114402294159|0.03367926180362701|-0.1351333856582642|-0.1625578254461288|XArbitraryZVertical|-0.7608416669868738|0.05066843713253116|0.1219575801786654|0.6353575834879509|0.2499659657478333|0.954454243183136|0.1628946661949158|0|0|0|-1|-1|3
2021-04-22 20:36:53.440 +0100|137236.665636375|0.2624053955078125|0.8303070068359375|0.1490478515625|137236.645674375|2.312216694160689|2.197075626721504|-1.266995406810442|-0.8356451392173767|-0.551629900932312|-0.513227641582489|0.05367507040500641|-0.05372411012649536|-0.1078207492828369|XArbitraryZVertical|-0.7654057375491773|0.04272118501958604|0.1231563116673056|0.6302076546700143|0.2423755377531052|0.9542063474655151|0.1753420829772949|0|0|0|-1|-1|3
2021-04-22 20:36:53.460 +0100|137236.685598375|0.2478485107421875|0.8172607421875|0.2136383056640625|137236.665636375|2.381227234589335|2.25164112040516|-1.263798715837998|-1.02662205696106|-0.5542535781860352|-0.4877498149871826|0.03622043132781982|-0.1101207137107849|-0.06331050395965576|XArbitraryZVertical|-0.7706757537219967|0.03418172520337038|0.1246722681424615|0.6239772061509294|0.2348210215568542|0.9532451629638672|0.1902190148830414|0|0|0|-1|-1|3
2021-04-22 20:36:53.480 +0100|137236.705559375|0.253875732421875|0.8922119140625|0.311126708984375|137236.685598375|2.45762023110061|2.314051564506326|-1.255585405590446|-1.24626886844635|-0.4689538180828094|-0.4110395908355713|0.02006435394287109|-0.1319900155067444|-0.002570003271102905|XArbitraryZVertical|-0.7773128090559926|0.02602976665220308|0.1262038993074152|0.6157759886676797|0.2282568216323853|0.9507310390472412|0.2097855061292648|0|0|0|-1|-1|3
2021-04-22 20:36:53.500 +0100|137236.725521375|0.265655517578125|0.972381591796875|0.330963134765625|137236.705559375|2.53209986064897|2.376105578104587|-1.243136782956475|-1.308677673339844|-0.4020847678184509|-0.3484758138656616|0.02780173718929291|-0.08420354127883911|0.05652248859405518|XArbitraryZVertical|-0.7846476737299717|0.01882830463183993|0.1275456735621203|0.6063875097748875|0.2229913324117661|0.9467981457710266|0.2320529520511627|0|0|0|-1|-1|3
2021-04-22 20:36:53.520 +0100|137236.745482375|0.2569580078125|0.962188720703125|0.3238983154296875|137236.725521375|2.597424333045249|2.430251902912205|-1.229298875858781|-1.13788378238678|-0.3632939457893372|-0.3044870495796204|0.04483406245708466|0.01932424306869507|0.07699230313301086|XArbitraryZVertical|-0.7916359521549801|0.01239168766274509|0.1287459191497154|0.5971463170803157|0.2186390906572342|0.9422542452812195|0.2536820769309998|0|0|0|-1|-1|3
2021-04-22 20:36:53.540 +0100|137236.765444375|0.21905517578125|0.9166107177734375|0.3406219482421875|137236.745482375|2.648990652072785|2.471464279699851|-1.216760091992625|-1.004235744476318|-0.3771747350692749|-0.2530287206172943|0.04590766131877899|0.0309213399887085|0.06112822890281677|XArbitraryZVertical|-0.7973780908109648|0.006677861791303869|0.1300841308435171|0.5892552274289018|0.2153224050998688|0.9379810690879822|0.2717128396034241|0|0|0|-1|-1|3
2021-04-22 20:36:53.560 +0100|137236.785406375|0.1918182373046875|0.9607086181640625|0.398681640625|137236.765444375|2.694237176896963|2.506320002515172|-1.203034732318415|-1.063825368881226|-0.3617493808269501|-0.1884592324495316|0.01649966835975647|-0.007582128047943115|0.04513168334960938|XArbitraryZVertical|-0.8029271784487467|0.001396749471632875|0.1318420922221826|0.5813122142446873|0.2133430987596512|0.9331344366073608|0.2893880009651184|0|0|0|-1|-1|3
2021-04-22 20:36:53.580 +0100|137236.805367375|0.1896209716796875|0.9769439697265625|0.4226531982421875|137236.785406375|2.736852838310831|2.539677881618109|-1.186734525219811|-1.201527714729309|-0.266772449016571|-0.1271488219499588|-0.01788276433944702|0.0213814377784729|0.08444231748580933|XArbitraryZVertical|-0.8089554997087004|-0.003225904951337581|0.133413444454143|0.5725219841338727|0.212157279253006|0.9271503686904907|0.308838814496994|0|0|0|-1|-1|3
2021-04-22 20:36:53.600 +0100|137236.825329375|0.2024688720703125|0.9471435546875|0.382537841796875|137236.805367375|2.773593262315341|2.569408833794556|-1.169661980992448|-1.003857612609863|-0.1506471037864685|-0.1293527632951736|-0.02195598185062408|0.04738348722457886|0.06839799880981445|XArbitraryZVertical|-0.8149165472202963|-0.006808896916558876|0.1344314266375515|0.5637313477888392|0.2114240080118179|0.9206186532974243|0.3282706737518311|0|0|0|-1|-1|3
2021-04-22 20:36:53.620 +0100|137236.845291375|0.161407470703125|0.8452301025390625|0.3635101318359375|137236.825329375|2.805522284181594|2.595617815272377|-1.154993857559425|-0.8600199222564697|-0.1854723542928696|-0.1549115628004074|-0.007208898663520813|0.05479657649993896|0.06413078308105469|XArbitraryZVertical|-0.8200595849873674|-0.01017951937442871|0.1347827977589117|0.5560866837366825|0.2097384631633759|0.9147924780845642|0.3452026844024658|0|0|0|-1|-1|3
2021-04-22 20:36:53.640 +0100|137236.865252375|0.118743896484375|0.753265380859375|0.3594512939453125|137236.845291375|2.831276064333008|2.614966045714993|-1.143534366993581|-0.7145912051200867|-0.228169322013855|-0.1619080454111099|-0.03408224880695343|-0.03896439075469971|0.01676559448242188|XArbitraryZVertical|-0.8239726196992994|-0.01367341896332125|0.1355126742864729|0.5500170061835669|0.208276242017746|0.9101037383079529|0.3582356870174408|0|0|0|-1|-1|3
2021-04-22 20:36:53.660 +0100|137236.885214375|0.1327972412109375|0.74591064453125|0.4259033203125|137236.865252375|2.854608773211104|2.632002754156919|-1.131832531942426|-0.8054003715515137|-0.1735066175460815|-0.1072921231389046|-0.08177536725997925|-0.1330217123031616|-0.01881420612335205|XArbitraryZVertical|-0.8277768802228113|-0.01694695894469906|0.1363662159099362|0.5439693800788672|0.2073243409395218|0.9051925539970398|0.3710035383701324|0|0|0|-1|-1|3
2021-04-22 20:36:53.680 +0100|137236.905175375|0.1721954345703125|0.7559814453125|0.5170135498046875|137236.885214375|2.879267197830707|2.651686365334216|-1.116607623970222|-1.099561452865601|-0.126902848482132|-0.0339956246316433|-0.08405283093452454|-0.1536681652069092|0.03360319137573242|XArbitraryZVertical|-0.8325708841579683|-0.01974992796529399|0.1367041627727174|0.536421276143323|0.2064432501792908|0.8986172676086426|0.3871286809444427|0|0|0|-1|-1|3
2021-04-22 20:36:53.700 +0100|137236.925137375|0.198028564453125|0.7824554443359375|0.5879669189453125|137236.905175375|2.904130709104096|2.671098562377669|-1.096010891818705|-1.242235898971558|-0.1862136721611023|0.03960367292165756|-0.04323627054691315|-0.1417867541313171|0.07595381140708923|XArbitraryZVertical|-0.8385957288863546|-0.02225621350957774|0.1375389899424839|0.5266355439869665|0.2072373926639557|0.8893908262252808|0.4074762761592865|0|0|0|-1|-1|3
2021-04-22 20:36:53.720 +0100|137236.945099375|0.1940155029296875|0.8069000244140625|0.6951141357421875|137236.925137375|2.924070107012142|2.684150237724418|-1.0746669451177|-1.142800331115723|-0.2867470979690552|0.1477027088403702|-0.01652899384498596|-0.105430006980896|0.1356472074985504|XArbitraryZVertical|-0.8443571255203576|-0.02454483024658677|0.1395169571305253|0.5167143085987438|0.2102389484643936|0.8794316649436951|0.4270828068256378|0|0|0|-1|-1|3
2021-04-22 20:36:53.739 +0100|137236.965060375|0.2102813720703125|0.832305908203125|0.7491607666015625|137236.945099375|2.938155429310494|2.69114091674351|-1.053919111999311|-1.084922432899475|-0.2770415544509888|0.2517593502998352|-0.02010960876941681|-0.05924725532531738|0.2449606657028198|XArbitraryZVertical|-0.8495599800206612|-0.02618082467709063|0.1422552801281402|0.5072731148365327|0.2151471227407455|0.8693665862083435|0.444875180721283|0|0|0|-1|-1|3
2021-04-22 20:36:53.760 +0100|137236.985022375|0.2280731201171875|0.8423309326171875|0.7516326904296875|137236.965060375|2.944909373250391|2.692009543281432|-1.033504458883103|-0.9147960543632507|-0.2314134389162064|0.3142511248588562|-0.01722858846187592|-0.03919750452041626|0.2732406258583069|XArbitraryZVertical|-0.8542718395475754|-0.0263796166119012|0.1455742508596102|0.4983293709119938|0.222428485751152|0.8590978980064392|0.4609525203704834|0|0|0|-1|-1|3
2021-04-22 20:36:53.780 +0100|137237.004983375|0.220428466796875|0.8576202392578125|0.722564697265625|137236.985022375|2.947937841679594|2.689879968075759|-1.015205401448099|-0.7456605434417725|-0.2124321311712265|0.323419600725174|-0.003915756940841675|0.0002031326293945312|0.2707733511924744|XArbitraryZVertical|-0.8582514079801068|-0.02600340352174898|0.1489889520122821|0.4904393166382066|0.2302337735891342|0.849588930606842|0.4745433032512665|0|0|0|-1|-1|3
2021-04-22 20:36:53.800 +0100|137237.024945|0.1761932373046875|0.8502197265625|0.70819091796875|137237.004983375|2.948885671475795|2.686042389007508|-1.000454705404331|-0.6008343100547791|-0.2379128783941269|0.2793912291526794|-0.01146756112575531|0.01326370239257812|0.2493954300880432|XArbitraryZVertical|-0.8612640717061983|-0.02556557274301433|0.1522736861947833|0.4841317985860617|0.2375414967536926|0.8417165875434875|0.4848588109016418|0|0|0|-1|-1|3
2021-04-22 20:36:53.819 +0100|137237.044907|0.140106201171875|0.831024169921875|0.6773834228515625|137237.024945|2.948431133221212|2.680922237342787|-0.9899817193431066|-0.3172953128814697|-0.2301577031612396|0.1998122483491898|-0.0568387508392334|0.01424926519393921|0.2267419099807739|XArbitraryZVertical|-0.8631983054787069|-0.02532896383531564|0.1553680349272942|0.4796958706463192|0.2439264506101608|0.8360159397125244|0.4915057420730591|0|0|0|-1|-1|3
2021-04-22 20:36:53.839 +0100|137237.064868|0.1284332275390625|0.840423583984375|0.6730804443359375|137237.044907|2.945826762760173|2.674457104600957|-0.9858446363769721|0.06588126718997955|-0.2001361548900604|0.1082241907715797|-0.1009342968463898|0.009660065174102783|0.1918590664863586|XArbitraryZVertical|-0.8636341362670624|-0.02524331868019612|0.1579319272942686|0.4780758858513085|0.2486543655395508|0.8337387442588806|0.4930022954940796|0|0|0|-1|-1|3
2021-04-22 20:36:53.859 +0100|137237.08483|0.1342926025390625|0.870147705078125|0.700286865234375|137237.064868|2.939555980404815|2.66538798357721|-0.9904844821626653|0.4783266186714172|-0.1778514087200165|-0.009920648299157619|-0.1234554946422577|0.002376735210418701|0.189536452293396|XArbitraryZVertical|-0.861975697233239|-0.02529232799247376|0.1598887785386983|0.4804101755555801|0.2513391077518463|0.8362917304039001|0.4872836172580719|0|0|0|-1|-1|3
2021-04-22 20:36:53.879 +0100|137237.104792|0.14239501953125|0.9105072021484375|0.695709228515625|137237.08483|2.9301221657813|2.653716667070814|-1.003032307489341|0.9006622433662415|-0.2023784220218658|-0.1182701140642166|-0.1224164068698883|0.01158469915390015|0.2238135039806366|XArbitraryZVertical|-0.8583974473796064|-0.02566439593904273|0.1613644058115271|0.4862682426180683|0.2520700395107269|0.8431054949760437|0.4750096797943115|0|0|0|-1|-1|3
2021-04-22 20:36:53.899 +0100|137237.124753|0.1500091552734375|0.7895660400390625|0.644256591796875|137237.104792|2.916473166709669|2.637746517740802|-1.023869760969637|1.207275390625|-0.2313966453075409|-0.2482151538133621|-0.1088133752346039|0.05753976106643677|0.240303099155426|XArbitraryZVertical|-0.852652620850035|-0.02650294135172881|0.1626493849787462|0.4958089279010863|0.2510860562324524|0.8541269302368164|0.4554378092288971|0|0|0|-1|-1|3
2021-04-22 20:36:53.920 +0100|137237.144715|0.1793670654296875|0.80181884765625|0.64324951171875|137237.124753|2.905583330562611|2.623486798998872|-1.046909578625922|1.121634244918823|-0.2516107857227325|-0.3929725289344788|-0.1005861312150955|-0.03760397434234619|0.2219292521476746|XArbitraryZVertical|-0.8464517947072084|-0.02859589919447165|0.163434084945424|0.5059557423777011|0.247741624712944|0.8658813834190369|0.4345967471599579|0|0|0|-1|-1|3
2021-04-22 20:36:53.939 +0100|137237.164676|0.1732635498046875|0.8372802734375|0.5956878662109375|137237.144715|2.899884770227223|2.613247742705289|-1.070648207204128|1.083100557327271|-0.301541656255722|-0.5334541797637939|-0.07173323631286621|-0.09516316652297974|0.2386988401412964|XArbitraryZVertical|-0.8402679278287475|-0.03212931944461063|0.1635775103077648|0.5159070357619692|0.2417463809251785|0.8775115609169006|0.4141649603843689|0|0|0|-1|-1|3
2021-04-22 20:36:53.959 +0100|137237.184638|0.1414794921875|0.851318359375|0.60791015625|137237.164676|2.894410905978578|2.600899390051711|-1.097456297440036|1.432614684104919|-0.4478905498981476|-0.6237342357635498|-0.05332614481449127|-0.05454075336456299|0.2112331092357635|XArbitraryZVertical|-0.8331007401683863|-0.03688161912303525|0.1641535078004312|0.5269123695446322|0.2346460521221161|0.8900506496429443|0.3908341825008392|0|0|0|-1|-1|3
2021-04-22 20:36:53.979 +0100|137237.2046|0.144012451171875|0.82257080078125|0.5831451416015625|137237.184638|2.884165972246027|2.581788119811028|-1.130506976901313|1.542267560958862|-0.5398247241973877|-0.7065901160240173|-0.07823571562767029|-0.044871985912323|0.255783349275589|XArbitraryZVertical|-0.8238691286969803|-0.04257581914683615|0.1652835360801929|0.5404706796919657|0.2263220399618149|0.9046283960342407|0.361146092414856|0|0|0|-1|-1|3
2021-04-22 20:36:53.999 +0100|137237.224561|0.1863555908203125|0.812744140625|0.5308685302734375|137237.2046|2.871991785088615|2.559646012148057|-1.164807450852059|1.494239211082458|-0.5636684894561768|-0.7342862486839294|-0.07806555926799774|-0.1052205562591553|0.2499295771121979|XArbitraryZVertical|-0.8139868619754205|-0.04884539264177719|0.1666033965544368|0.5543312415029978|0.2170729041099548|0.918712317943573|0.3299209773540497|0|0|0|-1|-1|3
2021-04-22 20:36:54.019 +0100|137237.244523|0.20361328125|0.8328704833984375|0.502410888671875|137237.224561|2.863311160125289|2.539562770955512|-1.195757045516725|1.281408071517944|-0.6649548411369324|-0.6934449672698975|-0.03316178917884827|-0.1117828488349915|0.2511935830116272|XArbitraryZVertical|-0.8048854617518348|-0.05579903707038313|0.1681317340065543|0.5663725456289518|0.2074474841356277|0.9304932355880737|0.3019082844257355|0|0|0|-1|-1|3
2021-04-22 20:36:54.039 +0100|137237.264484|0.1975555419921875|0.923797607421875|0.47735595703125|137237.244523|2.852782091459118|2.515011183435529|-1.223219974458553|1.19756007194519|-0.8063775300979614|-0.5777350068092346|0.002873003482818604|-0.1180117726325989|0.225916862487793|XArbitraryZVertical|-0.7962313886463598|-0.06303421294104782|0.1710916558009994|0.5768623128314253|0.1997329741716385|0.9402010440826416|0.2759154736995697|0|0|0|-1|-1|3
2021-04-22 20:36:54.059 +0100|137237.284446|0.2110443115234375|1.064193725585938|0.5148162841796875|137237.264484|2.826961904782717|2.473406669766629|-1.250953210664666|1.606493949890137|-0.8925759196281433|-0.4297190606594086|0.004294499754905701|-0.06372576951980591|0.231196403503418|XArbitraryZVertical|-0.7864809607271578|-0.06963137367820503|0.1758965016130437|0.5879283624996908|0.1948019862174988|0.9492847323417664|0.2468016594648361|0|0|0|-1|-1|3
2021-04-22 20:36:54.079 +0100|137237.304408|0.2161712646484375|0.858856201171875|0.2854461669921875|137237.284446|2.773315543467624|2.404594634167597|-1.282091168247733|1.673882007598877|-0.8644729852676392|-0.3616633415222168|0.01155036687850952|0.09103858470916748|0.2998412549495697|XArbitraryZVertical|-0.7744712459552167|-0.07488153770860595|0.1816727393800747|0.6013170092476456|0.1913455426692963|0.9586133360862732|0.2108259052038193|0|0|0|-1|-1|3
2021-04-22 20:36:54.099 +0100|137237.324369|0.169403076171875|0.905792236328125|0.1973419189453125|137237.304408|2.725610623431647|2.340391456524274|-1.304947308382064|1.273758172988892|-0.9661535620689392|-0.2645437717437744|0.02883875370025635|-0.01928257942199707|0.2133157402276993|XArbitraryZVertical|-0.7647979634374457|-0.08058265480796133|0.187739493162647|0.6110193400219208|0.1886904388666153|0.9648697972297668|0.1828189790248871|0|0|0|-1|-1|3
2021-04-22 20:36:54.119 +0100|137237.344331|0.164581298828125|0.951629638671875|0.0574493408203125|137237.324369|2.672020857400788|2.269277578703727|-1.32368232208201|0.9445975422859192|-0.9180851578712463|-0.1885264366865158|-0.01053696870803833|-0.08174401521682739|0.0699237585067749|XArbitraryZVertical|-0.7557926122905826|-0.08617179435500359|0.1945336936513661|0.6192808332937588|0.1873251795768738|0.9696223735809326|0.1572961062192917|0|0|0|-1|-1|3
2021-04-22 20:36:54.139 +0100|137237.364293|0.181915283203125|0.9493408203125|0.0314483642578125|137237.344331|2.616033928457967|2.197279581820756|-1.336813898455846|0.9277230501174927|-0.8230778574943542|-0.0306553989648819|-0.02592763304710388|-0.03255009651184082|-0.06412652134895325|XArbitraryZVertical|-0.7481678450751649|-0.09062382998304294|0.2013122115282791|0.6257041191493229|0.1878232359886169|0.9727507829666138|0.1359356045722961|0|0|0|-1|-1|3
2021-04-22 20:36:54.159 +0100|137237.384254|0.1627197265625|0.838836669921875|-0.0439605712890625|137237.364293|2.552778362082419|2.120210756703316|-1.345849043685081|0.6442710757255554|-0.7466952204704285|0.06394132226705551|-0.01028215885162354|-0.007551193237304688|-0.05649363994598389|XArbitraryZVertical|-0.7412708195481279|-0.09357430423193529|0.2080006343485143|0.6312664772644063|0.1902289539575577|0.9748058915138245|0.1164771541953087|0|0|0|-1|-1|3
2021-04-22 20:36:54.179 +0100|137237.404216|0.117706298828125|0.9173583984375|-0.1199188232421875|137237.384254|2.506533927405009|2.060719883257429|-1.34953767188166|0.3585482835769653|-0.6806748509407043|0.08938410133123398|-0.02002906799316406|-0.1402490735054016|-0.1522170305252075|XArbitraryZVertical|-0.7364508998561331|-0.09630229892505815|0.2144207279839657|0.6343420740609116|0.1936434805393219|0.9756219983100891|0.1032681241631508|0|0|0|-1|-1|3
2021-04-22 20:36:54.199 +0100|137237.424177|0.074249267578125|0.9164886474609375|-0.1693878173828125|137237.404216|2.482799377685703|2.025114886047154|-1.350334249369365|0.1842156797647476|-0.5552178621292114|0.08113513886928558|-0.06675250828266144|-0.08289802074432373|-0.1905102878808975|XArbitraryZVertical|-0.7335956659258263|-0.09910321304996075|0.219764217707842|0.6353894040623264|0.1964978873729706|0.9757965207099915|0.095968097448349|0|0|0|-1|-1|3
2021-04-22 20:36:54.219 +0100|137237.444139|0.0966949462890625|0.88616943359375|-0.1539459228515625|137237.424177|2.471807915035182|2.005969970864585|-1.349969354532583|0.06801723688840866|-0.2802906334400177|0.0565112829208374|-0.1200698614120483|-0.04329788684844971|-0.2428351640701294|XArbitraryZVertical|-0.7320910292051108|-0.1010553985061684|0.2233838039801816|0.6355550949412012|0.1986220180988312|0.9757166504859924|0.0923389345407486|0|0|0|-1|-1|3
2021-04-22 20:36:54.239 +0100|137237.464101|0.13970947265625|0.9545745849609375|-0.1414337158203125|137237.444139|2.471812516228722|2.003099994949482|-1.348617621214346|-0.1740894764661789|-0.03039733693003654|0.07720156013965607|-0.1141927540302277|-0.08714437484741211|-0.2564741373062134|XArbitraryZVertical|-0.7320119834183091|-0.101583262389237|0.2247969613995467|0.6350636868439714|0.200084462761879|0.9754197001457214|0.09232140332460403|0|0|0|-1|-1|3
2021-04-22 20:36:54.259 +0100|137237.484062|0.149017333984375|1.055984497070312|-0.1346588134765625|137237.464101|2.495361481221416|2.026627658617321|-1.343267949277562|-0.4645263850688934|0.07868888229131699|0.1781540960073471|-0.07177144289016724|-0.04489028453826904|-0.2336506843566895|XArbitraryZVertical|-0.7344369440965306|-0.1012500437587175|0.2250460829867518|0.6322224465601171|0.2025392204523087|0.9742268919944763|0.099298395216465|0|0|0|-1|-1|3
2021-04-22 20:36:54.279 +0100|137237.504024|0.14569091796875|1.030227661132812|-0.113128662109375|137237.484062|2.524474407845838|2.057603301926542|-1.335066482885481|-0.4705885052680969|0.1919734179973602|0.2325248420238495|-0.05503939092159271|0.07216572761535645|-0.2500340938568115|XArbitraryZVertical|-0.7379986433761149|-0.09993432389537713|0.224933785272711|0.6283120843893771|0.2064217627048492|0.9723441600799561|0.109257735311985|0|0|0|-1|-1|3
2021-04-22 20:36:54.299 +0100|137237.523985|0.144134521484375|0.9735260009765625|-0.1352081298828125|137237.504024|2.546160453743303|2.084214815328703|-1.327273939057744|-0.4079836905002594|0.348145604133606|0.2025996893644333|-0.06678590178489685|0.06884253025054932|-0.2354021072387695|XArbitraryZVertical|-0.7414224389808765|-0.09750668474215478|0.2238448027568201|0.625043087460597|0.2100353538990021|0.9704946875572205|0.118429571390152|0|0|0|-1|-1|3
2021-04-22 20:36:54.319 +0100|137237.543947|0.1076507568359375|0.899993896484375|-0.1394500732421875|137237.523985|2.548116373467395|2.092391548651376|-1.324805466636264|-0.3872262537479401|0.376043826341629|0.235929861664772|-0.06100574135780334|0.01986497640609741|-0.2472050040960312|XArbitraryZVertical|-0.7427246093943856|-0.09501811962973182|0.222033540057139|0.6245262905626505|0.2111369222402573|0.9698964953422546|0.1213365793228149|0|0|0|-1|-1|3
2021-04-22 20:36:54.339 +0100|137237.563909|0.070404052734375|0.7968902587890625|-0.1208038330078125|137237.543947|2.549629470390044|2.100912470164999|-1.320298749702425|-0.4691302478313446|0.4424076974391937|0.3055406510829926|-0.0968744307756424|-0.05336874723434448|-0.2724940776824951|XArbitraryZVertical|-0.7444841416443704|-0.09172332079989062|0.2204476915005403|0.6234846107838059|0.2138634622097015|0.9687892198562622|0.125339612364769|0|0|0|-1|-1|3
2021-04-22 20:36:54.358 +0100|137237.58387|0.04205322265625|0.694122314453125|-0.0233154296875|137237.563909|2.562834377330596|2.121986593308034|-1.311306818697902|-0.8227869868278503|0.4994247853755951|0.4419177174568176|-0.1389975845813751|-0.1364582777023315|-0.2589467763900757|XArbitraryZVertical|-0.7479915331542992|-0.08772859536202308|0.2188808465108809|0.6204060007212996|0.218587338924408|0.9665210843086243|0.134375274181366|0|0|0|-1|-1|3
2021-04-22 20:36:54.378 +0100|137237.603832|0.0268402099609375|0.5603790283203125|0.035064697265625|137237.58387|2.599703245122885|2.168565419779219|-1.293044352425861|-1.327917814254761|0.6443642973899841|0.6409626603126526|-0.1804443746805191|-0.2506299614906311|-0.192096471786499|XArbitraryZVertical|-0.7552121363214754|-0.08254169101591599|0.2170508209072512|0.6129686851214576|0.2266478836536407|0.9616742730140686|0.1543170064687729|0|0|0|-1|-1|3
2021-04-22 20:36:54.398 +0100|137237.623794|-0.017608642578125|0.40093994140625|0.13824462890625|137237.603832|2.653306802496241|2.233446854714202|-1.261686918255366|-1.785335540771484|0.6909968256950378|0.9905458688735962|-0.2037114948034286|-0.3589770197868347|-0.1828336715698242|XArbitraryZVertical|-0.766718821434928|-0.07562268201329704|0.2155744691800399|0.5999593397260198|0.2398289442062378|0.9526048898696899|0.187153086066246|0|0|0|-1|-1|3
2021-04-22 20:36:54.418 +0100|137237.643755|0.021148681640625|0.2197723388671875|0.3849639892578125|137237.623794|2.706622351377506|2.298928860499613|-1.217004478895123|-2.31408953666687|0.8452932238578796|1.360111594200134|-0.2709777653217316|-0.4803783297538757|-0.09322962164878845|XArbitraryZVertical|-0.7815552371487932|-0.0667186099227549|0.215104365539131|0.581764905856921|0.2586027979850769|0.938065767288208|0.2305599302053452|0|0|0|-1|-1|3
2021-04-22 20:36:54.438 +0100|137237.663717|0.1934967041015625|0.0288543701171875|0.67449951171875|137237.643755|2.747330791816948|2.357443002403631|-1.158803785069025|-3.083979606628418|1.216710686683655|1.856220364570618|-0.2837438583374023|-0.6538126468658447|0.03175830841064453|XArbitraryZVertical|-0.7992922112181818|-0.05370579448417342|0.2144518215842818|0.5588007324396354|0.2827976644039154|0.9163247346878052|0.2835046947002411|0|0|0|-1|-1|3
2021-04-22 20:36:54.458 +0100|137237.683678|0.52838134765625|0.1400299072265625|0.8975677490234375|137237.663717|2.778228568967923|2.415122373787712|-1.083141052925117|-3.554743051528931|1.771177768707275|2.236891508102417|-0.1663647592067719|-0.8771933317184448|0.1661171615123749|XArbitraryZVertical|-0.8208985788829375|-0.03541037806860116|0.2123834558283187|0.5289281687196773|0.3112314641475677|0.8834339380264282|0.3502567410469055|0|0|0|-1|-1|3
2021-04-22 20:36:54.478 +0100|137237.70364|0.686798095703125|0.077545166015625|1.071136474609375|137237.683678|2.808843822204323|2.478281275176285|-0.988136399675362|-4.495697975158691|1.812807440757751|2.68111515045166|0.1164117455482483|-0.6992143392562866|0.4302906692028046|XArbitraryZVertical|-0.846509233872957|-0.01441793237197396|0.2084578489236245|0.4896526188495557|0.3388034403324127|0.8350020051002502|0.4335715174674988|0|0|0|-1|-1|3
2021-04-22 20:36:54.498 +0100|137237.723602|0.6975860595703125|0.035186767578125|1.261672973632812|137237.70364|2.829519577124361|2.528936879166334|-0.873743624584744|-5.306455612182617|1.619665384292603|3.219207048416138|0.2898262739181519|-0.6328268051147461|0.5663350820541382|XArbitraryZVertical|-0.873232139445661|0.008211679040901696|0.2072258319924215|0.4409714629318996|0.3691547513008118|0.7667375802993774|0.5252035856246948|0|0|0|-1|-1|3
2021-04-22 20:36:54.518 +0100|137237.743563|0.79351806640625|0.176727294921875|1.286712646484375|137237.723602|2.83730338019564|2.567867080794648|-0.7456684130095735|-5.667232036590576|1.722055315971375|3.533164024353027|0.2829978466033936|-0.6583982110023499|0.6282623410224915|XArbitraryZVertical|-0.8985441918104285|0.033504528725305|0.2075118688132647|0.3852721893563695|0.3987338840961456|0.6784629821777344|0.6170084476470947|0|0|0|-1|-1|3
2021-04-22 20:36:54.538 +0100|137237.763525|0.9018402099609375|0.53790283203125|1.226593017578125|137237.743563|2.834004384668733|2.602238564988059|-0.6126035421897648|-5.258605003356934|1.857718586921692|3.667652130126953|0.3334115743637085|-0.4418976902961731|0.6100339293479919|XArbitraryZVertical|-0.9204539992520206|0.06139276864135999|0.2064993812350434|0.3261187643683222|0.4201890230178833|0.5749995112419128|0.7020092606544495|0|0|0|-1|-1|3
2021-04-22 20:36:54.558 +0100|137237.783487|0.8629608154296875|0.7846832275390625|1.132049560546875|137237.763525|2.813377601900208|2.624396669099708|-0.4965006455441562|-3.992030143737793|1.365163803100586|3.75524640083313|0.4587348103523254|-0.03827229142189026|0.4857597351074219|XArbitraryZVertical|-0.9347874392459663|0.09110825863745146|0.2057483536791722|0.2748445068352128|0.4347431659698486|0.4763516485691071|0.7642565369606018|0|0|0|-1|-1|3
2021-04-22 20:36:54.578 +0100|137237.803448|0.8271484375|1.0399169921875|1.051803588867188|137237.783487|2.774909897847543|2.63201616913365|-0.4053432461611455|-2.270027637481689|1.072533965110779|3.684442281723022|0.4177480340003967|0.3183116912841797|0.3562192916870117|XArbitraryZVertical|-0.9412721866544548|0.1229369158121951|0.2072310083024766|0.2365346091592624|0.4482792317867279|0.3943342268466949|0.8022136092185974|0|0|0|-1|-1|3
2021-04-22 20:36:54.598 +0100|137237.82341|0.6802520751953125|1.085540771484375|1.010345458984375|137237.803448|2.722594164557516|2.630891718510213|-0.3450687527535025|-0.665899395942688|0.7335725426673889|3.514994859695435|0.3941494226455688|0.6509195566177368|0.2280206680297852|XArbitraryZVertical|-0.9413857020308045|0.1558235398804383|0.208847144660944|0.2142309894110888|0.4599758982658386|0.3382613658905029|0.8209760189056396|0|0|0|-1|-1|3
2021-04-22 20:36:54.618 +0100|137237.843371|0.5691680908203125|1.0994873046875|1.00982666015625|137237.82341|2.65815674633295|2.623425850599907|-0.3143379692911349|1.033219575881958|0.6339997053146362|3.336342334747314|0.2469510734081268|0.7794356346130371|0.1907758712768555|XArbitraryZVertical|-0.9365546783880748|0.189595674108909|0.2094641757543257|0.2074699743401167|0.4710201323032379|0.3091869354248047|0.8261623978614807|0|0|0|-1|-1|3
2021-04-22 20:36:54.638 +0100|137237.863333|0.625946044921875|1.219619750976562|1.047317504882812|137237.843371|2.579796012636552|2.613575726701932|-0.3125957644293199|2.598135948181152|0.8354378938674927|3.231029272079468|0.1092930734157562|0.7853502035140991|0.1818231344223022|XArbitraryZVertical|-0.9274712048884601|0.2253233040994582|0.206011127278005|0.215838428827141|0.4794056415557861|0.307529628276825|0.8219468593597412|0|0|0|-1|-1|3
2021-04-22 20:36:54.658 +0100|137237.883295|0.7216033935546875|1.330978393554688|1.146820068359375|137237.863333|2.486561383072921|2.60374553873296|-0.3387635749224527|4.104684829711914|1.13184118270874|3.075575590133667|0.1120714247226715|0.8577877283096313|0.238458514213562|XArbitraryZVertical|-0.9141576372492589|0.2632831579053271|0.1956912063626675|0.2381239142188237|0.4831732511520386|0.3323211967945099|0.8100044131278992|0|0|0|-1|-1|3
2021-04-22 20:36:54.678 +0100|137237.903256|0.8735198974609375|1.734634399414062|1.212875366210938|137237.883295|2.3779204670443|2.591053888700761|-0.389831308912269|5.533260345458984|1.516206026077271|2.956430435180664|0.2143296003341675|0.9063900113105774|0.3224472403526306|XArbitraryZVertical|-0.8957513062125243|0.3029528922423806|0.1780007008470082|0.2723323073608115|0.4838964343070984|0.3800323903560638|0.7883017063140869|0|0|0|-1|-1|3
2021-04-22 20:36:54.698 +0100|137237.923218|1.006942749023438|2.078750610351562|1.119049072265625|137237.903256|2.25070704847003|2.573611459923031|-0.4677072540609209|7.249871730804443|1.960767149925232|2.712614059448242|0.3545254468917847|1.144694328308105|0.4481678605079651|XArbitraryZVertical|-0.8706686829001689|0.3437498413405636|0.1501229733000015|0.3181752511872022|0.480160117149353|0.450840950012207|0.7524558305740356|0|0|0|-1|-1|3
2021-04-22 20:36:54.718 +0100|137237.943179|1.078689575195312|2.05706787109375|1.018707275390625|137237.923218|2.099752951821601|2.540715980208327|-0.5716132460445806|8.894754409790039|2.183856010437012|2.509447336196899|0.5046733617782593|1.512172102928162|0.4622001051902771|XArbitraryZVertical|-0.8364245733314012|0.3837335644908695|0.1122474044210423|0.3748907866604149|0.4754893183708191|0.5409895181655884|0.6937150359153748|0|0|0|-1|-1|3
2021-04-22 20:36:54.738 +0100|137237.963141|1.2156982421875|2.05108642578125|0.86114501953125|137237.943179|1.90440539359325|2.469200585338985|-0.7061042506942775|11.2662467956543|2.365270137786865|2.153265714645386|0.5906433463096619|1.404226303100586|0.4127064943313599|XArbitraryZVertical|-0.787795662002304|0.4207319290972505|0.06290990263276956|0.4454269600554853|0.4739309847354889|0.6488744616508484|0.5952747464179993|0|0|0|-1|-1|3
2021-04-22 20:36:54.758 +0100|137237.983103|1.400772094726562|1.504684448242188|0.6601715087890625|137237.963141|1.631132324672067|2.325455061421288|-0.8588962805619934|13.2275447845459|2.563918352127075|1.776144027709961|0.6991650462150574|1.313068747520447|0.4994729161262512|XArbitraryZVertical|-0.7208990627885783|0.4517342903517231|0.0007374951093436259|0.5255855752216255|0.4759133756160736|0.7571219801902771|0.4475186467170715|0|0|0|-1|-1|3
2021-04-22 20:36:54.778 +0100|137238.003064|1.709609985351562|0.6915740966796875|-0.3067626953125|137237.983103|1.260729854052548|2.082661901776163|-0.9863536374563426|11.957839012146|2.651857137680054|1.53259015083313|0.8395963907241821|1.006282329559326|0.6801518201828003|XArbitraryZVertical|-0.6412676222634767|0.4731775617367833|-0.06784264824106258|0.6002302615330031|0.4810203909873962|0.8340197205543518|0.2702423334121704|0|0|0|-1|-1|3
2021-04-22 20:36:54.798 +0100|137238.023026625|2.379562377929688|0.4540863037109375|-1.771209716796875|137238.003064|0.8575308075160367|1.79689322976734|-1.038898856150927|9.447654724121094|3.014055728912354|1.39182436466217|1.087356567382812|-0.07302725315093994|-0.1141524314880371|XArbitraryZVertical|-0.5635459797429131|0.4891456423347325|-0.1284275104820412|0.653191394704616|0.4942618310451508|0.8618462681770325|0.1136950626969337|0|0|0|-1|-1|3
2021-04-22 20:36:54.818 +0100|137238.042988625|2.858383178710938|0.176422119140625|-3.681106567382812|137238.023026625|0.5460322887611988|1.581728030557646|-1.024920197460551|6.412950038909912|1.648830056190491|1.637642979621887|1.695858955383301|-0.3315396308898926|-1.317625761032104|XArbitraryZVertical|-0.4991148898339497|0.5037082125965938|-0.1704296568422121|0.6841902932684291|0.5191366076469421|0.8546727895736694|0.005675273481756449|0|0|0|-1|-1|3
2021-04-22 20:36:54.837 +0100|137238.062949625|3.746963500976562|0.1240386962890625|-3.717361450195312|137238.042988625|0.3569379396992793|1.424972310018673|-0.9903309522896828|3.523167848587036|-1.4225754737854|1.302252411842346|2.227059602737427|-0.6170142889022827|-3.20087456703186|XArbitraryZVertical|-0.4559848258193622|0.5022285092000797|-0.1874943216946031|0.7104156749927751|0.5425928831100464|0.8362075090408325|-0.07968872785568237|0|0|0|-1|-1|3
2021-04-22 20:36:54.857 +0100|137238.082911625|5.275421142578125|1.820663452148438|-1.457717895507812|137238.062949625|0.3152764563844675|1.327867410680595|-0.956862515785605|-0.3074777126312256|-4.472304344177246|0.7216235995292664|2.835297107696533|-0.8425949215888977|-3.915272235870361|XArbitraryZVertical|-0.4439692831697365|0.4833252768402649|-0.1704259392329138|0.7350123371047174|0.5591723322868347|0.817388117313385|-0.1385759115219116|0|0|0|-1|-1|3
2021-04-22 20:36:54.878 +0100|137238.102872625|3.65997314453125|0.705657958984375|1.612686157226562|137238.082911625|0.3647997506159827|1.222977944649769|-0.9740723888607863|-2.707482814788818|-10.68767738342285|-1.692190408706665|4.619311332702637|0.6819139719009399|-2.097893953323364|XArbitraryZVertical|-0.4688714159094468|0.4294093028217064|-0.1329690362700946|0.7603200791150085|0.5282862782478333|0.8271809816360474|-0.1915344893932343|0|0|0|-1|-1|3
2021-04-22 20:36:54.898 +0100|137238.122834625|2.115447998046875|-0.362457275390625|3.72406005859375|137238.122834625|0.3753550429601026|0.6517185263935966|-1.168128867580255|-1.040382146835327|-14.76456451416016|-4.705503463745117|2.175606250762939|-0.9791614413261414|3.747241497039795|XArbitraryZVertical|-0.5630545272938414|0.1648977819967753|-0.02596458732309115|0.8093851580603196|0.2376926839351654|0.9200189709663391|-0.3115566372871399|0|0|0|-1|-1|3
2021-04-22 20:36:54.917 +0100|137238.142796625|1.037460327148438|-1.852081298828125|5.756332397460938||||||||||||||||||||||||3
2021-04-22 20:36:54.937 +0100|137238.162757625|-1.920700073242188|-0.2814178466796875|1.042129516601562|137238.142796625|0.1474557758190727|0.124139459202914|-1.221961368434147|-1.174665927886963|-16.30005645751953|-4.436789512634277|1.220067143440247|-2.304669618606567|5.767946243286133|XArbitraryZVertical|-0.5747531727696024|0.008493925827175943|0.02473052777955497|0.8179090856269866|0.04232241585850716|0.9397715926170349|-0.339173287153244|0|0|0|-1|-1|3
2021-04-22 20:36:54.957 +0100|137238.182719625|2.147445678710938|1.257354736328125|-0.7984619140625|137238.162757625|-0.3488067774960456|-0.6828050515656731|-1.277681127552454|-5.809283256530762|-9.711736679077148|-5.504639148712158|-1.1980299949646|-2.073680877685547|2.798393964767456|XArbitraryZVertical|-0.5999677881340387|-0.1672102817626497|0.06534566994774697|0.7796214329448727|-0.1823108494281769|0.9573484063148499|-0.2241587489843369|0|0|0|-1|-1|3
2021-04-22 20:36:54.977 +0100|137238.202681625|8.694366455078125|-0.4338836669921875|3.48150634765625|137238.182719625|-1.255556481181243|-1.697738180260719|-1.31543088393865|-11.97563457489014|-4.285595417022705|-3.193285703659058|0.6191427707672119|1.037952661514282|-0.2755846977233887|XArbitraryZVertical|-0.6758142643897054|-0.2434435638250406|0.06416049192837871|0.6927436882491456|-0.250566840171814|0.9675710201263428|0.03197937831282616|0|0|0|-1|-1|3
2021-04-22 20:36:54.997 +0100|137238.222642625|1.433197021484375|-0.731658935546875|2.2816162109375|137238.202681625|-1.568378559078357|-2.092561624865027|-1.119432018663753|-5.180670738220215|-5.727673530578613|-7.345548629760742|8.803752899169922|-1.244838953018188|1.782780408859253|XArbitraryZVertical|-0.7062685313639516|-0.3314917210944237|0.02564087312348713|0.6250125299191989|-0.3781542778015137|0.8998528122901917|0.2174039930105209|0|0|0|-1|-1|3
2021-04-22 20:36:55.017 +0100|137238.242604625|-0.644012451171875|-2.0570068359375|1.750762939453125|137238.222642625|-1.563156965429271|-2.23143740957479|-1.010466350449997|-1.104300379753113|-6.399815559387207|-4.077655792236328|3.109968185424805|-1.168643593788147|1.9382244348526|XArbitraryZVertical|-0.7046640880460389|-0.408054588302556|0.03766313438747671|0.5792423441645949|-0.4196452796459198|0.8470798134803772|0.3261200487613678|0|0|0|-1|-1|3
2021-04-22 20:36:55.037 +0100|137238.262565625|0.15472412109375|0.4180755615234375|0.9496917724609375|137238.242604625|-1.485799769909143|-2.223788630760994|-0.973842002618458|1.575980067253113|0.7224326133728027|-0.3705397248268127|0.04599782824516296|-3.05877161026001|1.608225226402283|XArbitraryZVertical|-0.6886143170408611|-0.4433674651325038|0.04415513383002394|0.5720891820020558|-0.4464797377586365|0.8270515203475952|0.3415287733078003|0|0|0|-1|-1|3
2021-04-22 20:36:55.057 +0100|137238.282527625|0.5337982177734375|0.5642547607421875|1.057388305664062|137238.262565625|-1.41578314508388|-2.118219821929546|-1.031371120339782|5.686473369598389|2.810095310211182|2.045952558517456|0.381119430065155|-0.9050317406654358|0.816136360168457|XArbitraryZVertical|-0.6766684172309789|-0.4192764125290801|0.04968259308141941|0.6032072445944305|-0.4385838508605957|0.8580040335655212|0.2673457264900208|0|0|0|-1|-1|3
2021-04-22 20:36:55.077 +0100|137238.302489625|0.18035888671875|0.191619873046875|1.009689331054688|137238.282527625|-1.209292465769085|-1.88538342572539|-1.118522359605428|6.333186149597168|2.246778726577759|1.741703987121582|0.9266284704208374|-0.1064562797546387|0.9288202524185181|XArbitraryZVertical|-0.6463847813796645|-0.3870371682291261|0.0700368290834843|0.653822607004623|-0.4155658185482025|0.8994556665420532|0.1352221071720123|0|0|0|-1|-1|3
2021-04-22 20:36:55.097 +0100|137238.322450625|-0.258026123046875|0.5603485107421875|0.7443695068359375|137238.302489625|-0.9660579720603283|-1.626782807554913|-1.166354460485206|4.047707080841064|1.600345849990845|1.009740233421326|0.7019562721252441|-0.7648573517799377|0.9453278779983521|XArbitraryZVertical|-0.6167606568543651|-0.3614084181995951|0.08799446384588193|0.6937199054893689|-0.3928893804550171|0.9193221926689148|0.02201950550079346|0|0|0|-1|-1|3
2021-04-22 20:36:55.117 +0100|137238.342412625|-0.5500335693359375|0.507476806640625|0.416015625|137238.322450625|-0.8043487686025634|-1.446477851079962|-1.180724365080337|2.136565923690796|1.580206394195557|0.7065183520317078|0.2135483622550964|-0.4532628059387207|0.8598202466964722|XArbitraryZVertical|-0.5992156299685069|-0.3425858585850215|0.09524576036442943|0.7172893648613857|-0.3773208856582642|0.9248816967010498|-0.0471511147916317|0|0|0|-1|-1|3
2021-04-22 20:36:55.137 +0100|137238.362374625|-0.5837249755859375|0.465087890625|0.1310577392578125|137238.342412625|-0.711160929363689|-1.325497648104755|-1.187952248839248|1.375558137893677|1.905965089797974|0.7202843427658081|-0.1375300586223602|-0.3817681670188904|0.6094263792037964|XArbitraryZVertical|-0.5910982517886351|-0.3244132321247922|0.09537898420177082|0.7322991928043979|-0.3623783886432648|0.927605926990509|-0.09071782231330872|0|0|0|-1|-1|3
2021-04-22 20:36:55.157 +0100|137238.382335625|-0.4428253173828125|0.849029541015625|-0.162017822265625|137238.362374625|-0.6428031702638998|-1.222789277774285|-1.197426224088832|0.631471574306488|1.985254526138306|0.8914940357208252|-0.2573297023773193|-0.4977383017539978|0.3606743812561035|XArbitraryZVertical|-0.5876433074300529|-0.3041051803859738|0.09325660461602925|0.7439748977668597|-0.3428899943828583|0.9311033487319946|-0.1243907660245895|0|0|0|-1|-1|3
2021-04-22 20:36:55.177 +0100|137238.402297625|-0.5022735595703125|1.083206176757812|-0.129486083984375|137238.382335625|-0.6153149424047165|-1.16126923671695|-1.212189928559993|-0.2527991831302643|1.505244374275208|0.7872216105461121|-0.151837557554245|-0.2010502815246582|-0.01192349195480347|XArbitraryZVertical|-0.5904666049741388|-0.2854389097716777|0.0897198892057389|0.7495493754613507|-0.3219479024410248|0.9363868236541748|-0.1397476345300674|0|0|0|-1|-1|3
2021-04-22 20:36:55.197 +0100|137238.422258625|-0.61358642578125|1.006546020507812|-0.151641845703125|137238.402297625|-0.6151043250776752|-1.138797998150384|-1.224764270253221|-0.1486300826072693|0.782701849937439|0.3639480173587799|-0.1562090516090393|0.1121155619621277|0.008598744869232178|XArbitraryZVertical|-0.5949597065198541|-0.2738984950553141|0.08672589515160881|0.7506539680498511|-0.308009147644043|0.9407259225845337|-0.142005130648613|0|0|0|-1|-1|3
2021-04-22 20:36:55.217 +0100|137238.442220625|-0.5055084228515625|0.8808746337890625|-0.2232666015625|137238.422258625|-0.6103682678543146|-1.12012264519933|-1.2312897821585|0.02201583795249462|0.7596145272254944|0.3780162632465363|-0.3040344715118408|0.1051157712936401|-0.01502357423305511|XArbitraryZVertical|-0.5969648870696859|-0.2666558847040015|0.08477983064327062|0.7518909819407716|-0.2997711598873138|0.942919135093689|-0.1450551301240921|0|0|0|-1|-1|3
2021-04-22 20:36:55.237 +0100|137238.462182625|-0.33978271484375|0.757171630859375|-0.2321014404296875|137238.442220625|-0.6014142736278253|-1.095174299810718|-1.239275845147519|-0.1815969794988632|0.7914813756942749|0.4182541370391846|-0.2586789727210999|-0.03005135059356689|-0.06347264349460602|XArbitraryZVertical|-0.5991161868561601|-0.2579576422806082|0.08291026617259491|0.7534213687763731|-0.2893558442592621|0.9455485343933105|-0.1490353047847748|0|0|0|-1|-1|3
2021-04-22 20:36:55.257 +0100|137238.482143625|-0.350341796875|0.724945068359375|-0.155792236328125|137238.462182625|-0.6048343740984197|-1.086162934544641|-1.24938850109342|-0.469787061214447|0.3907245397567749|0.4279337525367737|-0.09324711561203003|-0.1825866103172302|-0.07569460570812225|XArbitraryZVertical|-0.602822715747483|-0.251033382543279|0.08169805780446404|0.7529359124590101|-0.2795252203941345|0.9487916231155396|-0.1471740305423737|0|0|0|-1|-1|3
2021-04-22 20:36:55.277 +0100|137238.502105625|-0.4757080078125|0.8042144775390625|-0.0840606689453125|137238.482143625|-0.6393161859620137|-1.118209175443626|-1.263482683926229|-0.9503795504570007|-0.2826856970787048|0.3508791625499725|-0.05153462290763855|-0.2113281488418579|-0.04642866551876068|XArbitraryZVertical|-0.6097804620245335|-0.2490527333186897|0.08239742572687753|0.7478978728355336|-0.2720433473587036|0.9531496167182922|-0.1322810500860214|0|0|0|-1|-1|3
2021-04-22 20:36:55.297 +0100|137238.522067625|-0.624603271484375|0.9577484130859375|-0.1119384765625|137238.502105625|-0.6808696164824881|-1.165344561116953|-1.278602596185033|-0.817422091960907|-0.4108040928840637|0.541856586933136|-0.178461104631424|-0.1973753571510315|0.02633935213088989|XArbitraryZVertical|-0.6170410048915633|-0.2499024149897175|0.08571854899084343|0.7412568338725078|-0.2647000253200531|0.9576142430305481|-0.1136183589696884|0|0|0|-1|-1|3
2021-04-22 20:36:55.317 +0100|137238.542028625|-0.678192138671875|0.9830780029296875|-0.0114288330078125|137238.522067625|-0.7267096862268876|-1.218264953513011|-1.296015954698448|-0.8207857012748718|-0.4476282000541687|0.5995815992355347|-0.3325395286083221|-0.01845383644104004|-0.00308459997177124|XArbitraryZVertical|-0.6248469362461838|-0.2504467815245498|0.09040391995575001|0.7339414014175919|-0.2546493113040924|0.9624848365783691|-0.09368543326854706|0|0|0|-1|-1|3
2021-04-22 20:36:55.337 +0100|137238.561990625|-0.5633392333984375|0.9872894287109375|-0.0673980712890625|137238.542028625|-0.7765857145718958|-1.272806420341207|-1.314393675704323|-1.131877064704895|-0.153685450553894|0.6823936104774475|-0.4343165755271912|0.0177685022354126|0.06893510371446609|XArbitraryZVertical|-0.6328765931100971|-0.2494763152237363|0.09496570287992441|0.7267808245422283|-0.2424260675907135|0.967308521270752|-0.0744575709104538|0|0|0|-1|-1|3
2021-04-22 20:36:55.356 +0100|137238.581951625|-0.460357666015625|1.061264038085938|-0.2369232177734375|137238.561990625|-0.847586222230291|-1.343052024970893|-1.333609903417914|-1.116732478141785|-0.02362060546875|0.7302961945533752|-0.3788865208625793|0.001248538494110107|-0.03526514396071434|XArbitraryZVertical|-0.6424071319645751|-0.2465509205530548|0.09778797788613024|0.719001584794842|-0.2289016097784042|0.9720029234886169|-0.05305144190788269|0|0|0|-1|-1|3
2021-04-22 20:36:55.376 +0100|137238.601913625|-0.56048583984375|1.174972534179688|-0.1805572509765625|137238.581951625|-0.9217009072436356|-1.417989460312017|-1.353119332806833|-0.797396183013916|-0.3104219138622284|0.8649592399597168|-0.2501619458198547|0.056892991065979|-0.1776977777481079|XArbitraryZVertical|-0.6514141687730052|-0.2433586949842343|0.1019246723850392|0.7113701991513465|-0.2134459018707275|0.9764017462730408|-0.03287225216627121|0|0|0|-1|-1|3
2021-04-22 20:36:55.396 +0100|137238.621875625|-0.55352783203125|1.18499755859375|-0.2158660888671875|137238.601913625|-0.9654116916210917|-1.467168409237964|-1.371643357940506|-0.3823729455471039|-0.229765459895134|0.8175700902938843|-0.3403915762901306|0.1718347668647766|-0.1913866996765137|XArbitraryZVertical|-0.6571760835850313|-0.2405972732624699|0.1087489326859677|0.7059790634353619|-0.196778878569603|0.9802345037460327|-0.02046509459614754|0|0|0|-1|-1|3
2021-04-22 20:36:55.416 +0100|137238.641836625|-0.39691162109375|1.038665771484375|-0.3011627197265625|137238.621875625|-0.9959358027593322|-1.499379708969692|-1.387475733103528|-0.3906809687614441|0.000392744317650795|0.694805920124054|-0.393180787563324|0.2189199924468994|-0.1784886717796326|XArbitraryZVertical|-0.6613950341862179|-0.2367544159141413|0.1140078850429924|0.7025000164933327|-0.1818314641714096|0.9832437634468079|-0.01300791092216969|0|0|0|-1|-1|3
2021-04-22 20:36:55.436 +0100|137238.661798625|-0.3336639404296875|0.987518310546875|-0.3081207275390625|137238.641836625|-1.03606722012338|-1.53802151686949|-1.401861789658523|-0.4864883124828339|0.01024036854505539|0.6680616736412048|-0.2660236954689026|0.07240217924118042|-0.295896053314209|XArbitraryZVertical|-0.6658097387671972|-0.232255494768067|0.117713022038275|0.6992128669805322|-0.1680431067943573|0.9857644438743591|-0.00550955394282937|0|0|0|-1|-1|3
2021-04-22 20:36:55.456 +0100|137238.681760625|-0.4125518798828125|0.9543914794921875|-0.1793060302734375|137238.661798625|-1.117748616192128|-1.620669899778342|-1.41418731268491|-0.7571937441825867|-0.2105148583650589|0.6430350542068481|-0.1752785295248032|0.01756352186203003|-0.3325729370117188|XArbitraryZVertical|-0.671694615090848|-0.2295955688348466|0.1212092572196676|0.6938448027711218|-0.155776172876358|0.9877618551254272|0.007775562349706888|0|0|0|-1|-1|3
2021-04-22 20:36:55.476 +0100|137238.701721625|-0.4224700927734375|1.038986206054688|-0.1426544189453125|137238.681760625|-1.226576663767172|-1.732167731541757|-1.425843404672118|-0.7043356895446777|-0.1142291203141212|0.6918975710868835|-0.2507253289222717|-0.03271025419235229|-0.2292618751525879|XArbitraryZVertical|-0.6781606874785081|-0.2273814962840097|0.1254011420191513|0.6875102949595547|-0.1425699889659882|0.9895126819610596|0.02320852503180504|0|0|0|-1|-1|3
2021-04-22 20:36:55.496 +0100|137238.721683625|-0.300872802734375|1.014999389648438|-0.1605987548828125|137238.701721625|-1.34180740056458|-1.845426735195036|-1.437189225840326|-0.6637253165245056|0.2161691337823868|0.7388420104980469|-0.3042457103729248|0.02273672819137573|-0.1807320117950439|XArbitraryZVertical|-0.6843564356304864|-0.2229777679948843|0.1285974542940227|0.6822023183617437|-0.1282189041376114|0.9910878539085388|0.03612563386559486|0|0|0|-1|-1|3
2021-04-22 20:36:55.516 +0100|137238.741644625|-0.190185546875|0.9822540283203125|-0.13836669921875|137238.721683625|-1.462889437102949|-1.959004619893854|-1.447575044683264|-0.417578786611557|0.387022078037262|0.743665874004364|-0.2258191555738449|0.02853256464004517|-0.2128299474716187|XArbitraryZVertical|-0.6902444275823036|-0.2163919086783555|0.1301691743776795|0.6780806255870415|-0.113765224814415|0.9924178719520569|0.04652565717697144|0|0|0|-1|-1|3
2021-04-22 20:36:55.536 +0100|137238.761606625|-0.213043212890625|0.872161865234375|-0.091156005859375|137238.741644625|-1.58130570980706|-2.069972066761336|-1.457511867472566|-0.4389322400093079|0.2227904498577118|0.7895047664642334|-0.1105122715234756|0.01361209154129028|-0.2015894651412964|XArbitraryZVertical|-0.6950961391656536|-0.2095200016845013|0.132043019183146|0.6749130191777332|-0.09925036877393723|0.9935901761054993|0.05411454662680626|0|0|0|-1|-1|3
2021-04-22 20:36:55.556 +0100|137238.781568625|-0.2657470703125|0.771881103515625|-0.0351715087890625|137238.761606625|-1.739170315695259|-2.22425321808849|-1.4665369163597|-0.601987898349762|0.09643474966287613|0.8988129496574402|-0.1124518513679504|-0.09858900308609009|-0.172520637512207|XArbitraryZVertical|-0.7001954941338088|-0.2033734570577979|0.1358176524196118|0.6707601705354914|-0.08263181149959564|0.9945698976516724|0.0632689893245697|0|0|0|-1|-1|3
2021-04-22 20:36:55.576 +0100|137238.801529625|-0.1731109619140625|0.8511810302734375|-0.060638427734375|137238.781568625|-1.930905945227092|-2.410685490549716|-1.469983483954407|-0.7597920298576355|0.3542353510856628|1.020227193832397|-0.191987007856369|-0.2178384065628052|-0.1288129091262817|XArbitraryZVertical|-0.7061027304005008|-0.1971970068520139|0.1383871694744367|0.6658688431605118|-0.06718356907367706|0.9949226975440979|0.07493545114994049|0|0|0|-1|-1|3
2021-04-22 20:36:55.596 +0100|137238.821491625|-0.085418701171875|0.932830810546875|-0.0761566162109375|137238.801529625|-2.158957600709162|-2.626971644347256|-1.468170887014303|-0.8717808723449707|0.59953373670578|1.085197925567627|-0.1547752916812897|-0.1723966598510742|-0.1404464244842529|XArbitraryZVertical|-0.7135001916100376|-0.188431717801869|0.1390609023623497|0.6603583792736876|-0.0504249669611454|0.9947386384010315|0.08917807042598724|0|0|0|-1|-1|3
2021-04-22 20:36:55.616 +0100|137238.841453625|-0.0782318115234375|0.839385986328125|-0.060150146484375|137238.821491625|-2.418384053469115|-2.87418025482188|-1.460426295650641|-0.9050629734992981|0.4625369012355804|1.183996081352234|-0.07044316828250885|-0.0632055401802063|-0.1801152229309082|XArbitraryZVertical|-0.7220901342492356|-0.178052252567855|0.140975889076282|0.6534594606289796|-0.02910526096820831|0.9939153790473938|0.1062335297465324|0|0|0|-1|-1|3
2021-04-22 20:36:55.636 +0100|137238.861414625|-0.050872802734375|0.826446533203125|-0.002288818359375|137238.841453625|-2.648769319466494|-3.094721618361665|-1.446991775539144|-0.8912765979766846|0.3827608227729797|1.249532222747803|-0.07180511951446533|-0.1303924322128296|-0.1996760666370392|XArbitraryZVertical|-0.7304411210266682|-0.1677265303684589|0.1444038568951745|0.6461200345410953|-0.005785912740975618|0.9923459887504578|0.1233528405427933|0|0|0|-1|-1|3
2021-04-22 20:36:55.656 +0100|137238.881376625|0.0125579833984375|0.9394683837890625|0.1339874267578125|137238.861414625|-2.837428170969489|3.009462352307685|-1.426383566496446|-0.9590522050857544|0.4429802894592285|1.359447956085205|-0.08141420781612396|-0.1711549758911133|-0.1509726196527481|XArbitraryZVertical|-0.7393744522418424|-0.157016950064885|0.148251688945904|0.6377245846155297|0.0189598836004734|0.989590585231781|0.1426578015089035|0|0|0|-1|-1|3
2021-04-22 20:36:55.676 +0100|137238.901337625|0.081634521484375|0.975555419921875|0.1589813232421875|137238.881376625|-2.989629184909504|2.869288499669036|-1.404324187282712|-0.7860701084136963|0.552426815032959|1.402267336845398|-0.05346274375915527|-0.0773773193359375|-0.052085280418396|XArbitraryZVertical|-0.7475458265080797|-0.1448282511304431|0.1518987288549759|0.6301801149169631|0.04456675425171852|0.9861754775047302|0.1595999747514725|0|0|0|-1|-1|3
2021-04-22 20:36:55.696 +0100|137238.921299625|0.1210174560546875|0.9299163818359375|0.1868438720703125|137238.901337625|-3.120497078026756|2.751331298162902|-1.382777405197901|-0.4930158257484436|0.5293458700180054|1.445893406867981|-0.000566631555557251|-0.01030004024505615|-0.02155280113220215|XArbitraryZVertical|-0.7543960250279125|-0.1315932119551486|0.1559585402516236|0.6238966341367005|0.07110787928104401|0.9823764562606812|0.1728602647781372|0|0|0|-1|-1|3
2021-04-22 20:36:55.716 +0100|137238.941261625|0.13397216796875|0.860321044921875|0.1976776123046875|137238.921299625|3.050930848291188|2.651695346514531|-1.361477721029343|-0.5512124300003052|0.4535494744777679|1.463548183441162|0.01883292198181152|-0.02280473709106445|-0.00689995288848877|XArbitraryZVertical|-0.7600531784976282|-0.1183051463031556|0.1605916613447886|0.6184929671076261|0.09777460247278214|0.9781727194786072|0.1833538860082626|0|0|0|-1|-1|3
2021-04-22 20:36:55.736 +0100|137238.961222625|0.168487548828125|0.808319091796875|0.2225799560546875|137238.941261625|2.964573934723981|2.576744668383209|-1.335593804462687|-0.8024436235427856|0.4903609752655029|1.492555260658264|0.005260735750198364|-0.1056763529777527|-0.001666396856307983|XArbitraryZVertical|-0.7663842171174829|-0.1052457962298252|0.16539340765271|0.6117383570685111|0.1247440129518509|0.9724671840667725|0.1968428939580917|0|0|0|-1|-1|3
2021-04-22 20:36:55.756 +0100|137238.981184625|0.2263336181640625|0.825714111328125|0.3094635009765625|137238.961222625|2.907784136415385|2.532377805386322|-1.302088701142622|-1.097750902175903|0.5878568887710571|1.533880829811096|0.009138673543930054|-0.1376835703849792|-0.01179099082946777|XArbitraryZVertical|-0.7748530379297458|-0.09200651809944274|0.1695118029141998|0.6019995928796472|0.1519176959991455|0.964114785194397|0.2177248597145081|0|0|0|-1|-1|3
2021-04-22 20:36:55.776 +0100|137239.001146625|0.238372802734375|0.78271484375|0.3205718994140625|137238.981184625|2.870180600868909|2.509049055878164|-1.265450210613532|-1.329936385154724|0.6321724057197571|1.485925316810608|0.02951672673225403|-0.1338427066802979|0.06189234554767609|XArbitraryZVertical|-0.784258429883981|-0.07854308508910425|0.1724759252235458|0.5907806287174768|0.1777279227972031|0.9537429809570312|0.2424606084823608|0|0|0|-1|-1|3
2021-04-22 20:36:55.796 +0100|137239.0211077917|0.2237548828125|0.76531982421875|0.33721923828125|137239.001146625|2.846923173960341|2.497984686888236|-1.225110083631577|-1.491694092750549|0.4890111684799194|1.502273559570312|0.04385758936405182|-0.1492478847503662|0.03053876757621765|XArbitraryZVertical|-0.7944678712632008|-0.06593202073122506|0.1758971462653234|0.5775240701865159|0.2033345997333527|0.9408431649208069|0.2710524499416351|0|0|0|-1|-1|3
2021-04-22 20:36:55.816 +0100|137239.0410697917|0.2903289794921875|0.8074951171875|0.3829345703125|137239.0211077917|2.83436703269759|2.496280725163421|-1.180699204534889|-1.794438481330872|0.5507490038871765|1.526608824729919|-0.007618024945259094|-0.1570196151733398|0.02102121710777283|XArbitraryZVertical|-0.8056065970067181|-0.05387573265803309|0.1795390100799873|0.5620153451350084|0.228717640042305|0.9248721599578857|0.3038091659545898|0|0|0|-1|-1|3
2021-04-22 20:36:55.836 +0100|137239.0610307917|0.3548736572265625|0.899444580078125|0.4900970458984375|137239.0410697917|2.83259039716849|2.506308192982607|-1.130767350879962|-2.158164024353027|0.5871280431747437|1.535057067871094|0.01552405953407288|-0.1126558780670166|0.03632089495658875|XArbitraryZVertical|-0.8183370617532562|-0.04189375717003596|0.1822636481879314|0.5434606010099129|0.2527709901332855|0.9047393202781677|0.3428612649440765|0|0|0|-1|-1|3
2021-04-22 20:36:55.856 +0100|137239.0809927917|0.39117431640625|0.9286956787109375|0.5818023681640625|137239.0610307917|2.833632165823643|2.518463499015251|-1.079116522975412|-2.035130739212036|0.5255128741264343|1.4674072265625|0.0643618106842041|-0.01015764474868774|0.0580751895904541|XArbitraryZVertical|-0.8311234259748677|-0.03037928218809523|0.1848845487051896|0.5235730987758328|0.2755122184753418|0.8815410733222961|0.3833780884742737|0|0|0|-1|-1|3
2021-04-22 20:36:55.875 +0100|137239.1009547917|0.3818206787109375|0.91741943359375|0.6458587646484375|137239.0809927917|2.831513832668517|2.526072517419064|-1.030808677229848|-1.745926022529602|0.4190735220909119|1.427079558372498|0.08993205428123474|0.0813409686088562|0.1442420780658722|XArbitraryZVertical|-0.8423216132718264|-0.01947061139373973|0.187876405983981|0.5047946536812682|0.296847403049469|0.8577150106430054|0.4197696149349213|0|0|0|-1|-1|3
2021-04-22 20:36:55.895 +0100|137239.1209157917|0.398040771484375|0.840545654296875|0.67572021484375|137239.1009547917|2.824404916317706|2.526813390972785|-0.9890577051951583|-1.491414904594421|0.3112579584121704|1.317210078239441|0.06658723950386047|0.09282070398330688|0.1843872666358948|XArbitraryZVertical|-0.8510862490155326|-0.009310521974292557|0.1915364107078139|0.4887530335209034|0.3169269263744354|0.8355085849761963|0.448868989944458|0|0|0|-1|-1|3
2021-04-22 20:36:55.915 +0100|137239.1408777917|0.4841766357421875|0.7709197998046875|0.6837005615234375|137239.1209157917|2.814558004264647|2.525698907654848|-0.9518420964603587|-1.307522654533386|0.3980610072612762|1.288630485534668|0.05020999908447266|0.04324120283126831|0.1893395781517029|XArbitraryZVertical|-0.8583642269067826|0.0008757572707521573|0.1947508784712875|0.474639275442874|0.3351657092571259|0.8144856691360474|0.4735798239707947|0|0|0|-1|-1|3
2021-04-22 20:36:55.935 +0100|137239.1608397917|0.5528717041015625|0.845062255859375|0.705230712890625|137239.1408777917|2.804321086688712|2.526060824337503|-0.9157313289327204|-1.287055611610413|0.4488669037818909|1.289084196090698|0.1073366403579712|-0.02247017621994019|0.1881473660469055|XArbitraryZVertical|-0.8651986944278535|0.01146997577779935|0.1971693779055193|0.460894932858597|0.3517542779445648|0.7930083274841309|0.4974006712436676|0|0|0|-1|-1|3
2021-04-22 20:36:55.955 +0100|137239.1808007917|0.524932861328125|0.8204193115234375|0.7357025146484375|137239.1608397917|2.793150033485121|2.52484948901183|-0.8812099393888956|-1.132231950759888|0.2843005061149597|1.262872695922852|0.1789436042308807|0.05284637212753296|0.1705860495567322|XArbitraryZVertical|-0.8712191386508781|0.02190800585521942|0.1999243584720794|0.447803016617846|0.3679767847061157|0.7715092301368713|0.5190054774284363|0|0|0|-1|-1|3
2021-04-22 20:36:55.975 +0100|137239.2007627917|0.46844482421875|0.802703857421875|0.718536376953125|137239.1808007917|2.780027258184278|2.519167280191124|-0.8509179109470207|-0.7675080895423889|0.1522207856178284|1.18489670753479|0.1527513265609741|0.08344078063964844|0.2031624317169189|XArbitraryZVertical|-0.8756882390602458|0.03157684732869299|0.2037233975212495|0.4366575599852894|0.384372889995575|0.7518858909606934|0.5356540083885193|0|0|0|-1|-1|3
2021-04-22 20:36:55.995 +0100|137239.2207237917|0.461578369140625|0.7735595703125|0.6825408935546875|137239.2007627917|2.761740625878922|2.507927896265231|-0.8282785047609322|-0.3436378240585327|0.1188490763306618|1.179720163345337|0.07771056890487671|0.07539546489715576|0.191311240196228|XArbitraryZVertical|-0.8779238929414938|0.0411074798752609|0.2079043981529502|0.429343215634386|0.4003469049930573|0.7367684841156006|0.5448803901672363|0|0|0|-1|-1|3
2021-04-22 20:36:56.015 +0100|137239.2406857917|0.52044677734375|0.72430419921875|0.680145263671875|137239.2207237917|2.737499511752745|2.493698654291249|-0.8106455241315292|-0.1446719616651535|0.2198148965835571|1.210457801818848|0.03750211000442505|0.05520528554916382|0.1442621946334839|XArbitraryZVertical|-0.8786422160989937|0.05186143292224062|0.2115559710674725|0.4249029293353017|0.4158361554145813|0.7247321009635925|0.5494034886360168|0|0|0|-1|-1|3
2021-04-22 20:36:56.035 +0100|137239.2606477917|0.5504913330078125|0.5804443359375|0.6686248779296875|137239.2406857917|2.710641132500302|2.480090853973916|-0.7934523569826086|-0.1387194395065308|0.3212984204292297|1.306801438331604|0.07220157980918884|0.01567524671554565|0.1232677102088928|XArbitraryZVertical|-0.8789966783789456|0.06393375789747936|0.2144641208841106|0.4210493464813384|0.4308650195598602|0.7127789855003357|0.5534453988075256|0|0|0|-1|-1|3
2021-04-22 20:36:56.055 +0100|137239.2806087917|0.504180908203125|0.4411773681640625|0.7407379150390625|137239.2606477917|2.684990598191372|2.467544046779928|-0.772403517172131|-0.2929345667362213|0.2582765817642212|1.429770708084106|0.1099342405796051|-0.05999588966369629|0.1102356314659119|XArbitraryZVertical|-0.879738997654578|0.076532821015123|0.2179224349089055|0.415586427452347|0.4470417201519012|0.6978587508201599|0.5595959424972534|0|0|0|-1|-1|3
2021-04-22 20:36:56.075 +0100|137239.3005707917|0.4705963134765625|0.388916015625|0.792144775390625|137239.2806087917|2.660319898194753|2.456313267308391|-0.7476741138453604|-0.431153416633606|0.351615846157074|1.55323600769043|0.04780575633049011|-0.2094612121582031|0.1691021323204041|XArbitraryZVertical|-0.8807953265814217|0.08980480773519614|0.2217845404538015|0.4085907969245949|0.464080423116684|0.679935097694397|0.5677306056022644|0|0|0|-1|-1|3
2021-04-22 20:36:56.095 +0100|137239.3205327917|0.4700775146484375|0.28173828125|0.787322998046875|137239.3005707917|2.634772848171489|2.447981208460307|-0.719685218192101|-0.5085065960884094|0.5239542722702026|1.733941435813904|-0.006212830543518066|-0.2505789995193481|0.2110223174095154|XArbitraryZVertical|-0.8821231278144537|0.1048150619631975|0.2249414681222215|0.4003423502390964|0.4807759523391724|0.6591479778289795|0.5782548189163208|0|0|0|-1|-1|3
2021-04-22 20:36:56.115 +0100|137239.3404937917|0.5093994140625|0.218048095703125|0.80126953125|137239.3205327917|2.607301999448565|2.443121224883603|-0.6870974840469244|-0.6561203598976135|0.7667735815048218|1.966667413711548|-0.03424409031867981|-0.3219336271286011|0.2029768824577332|XArbitraryZVertical|-0.8837699217315271|0.1223812766675508|0.227207479389129|0.3903209512154084|0.4971342384815216|0.6342959403991699|0.5920528769493103|0|0|0|-1|-1|3
2021-04-22 20:36:56.135 +0100|137239.3604557917|0.5633392333984375|0.239776611328125|0.8448638916015625|137239.3404937917|2.57992496961518|2.443716275935704|-0.6484724183891182|-0.9972566962242126|0.9918720722198486|2.16388726234436|-0.01569133996963501|-0.3820460438728333|0.1798085570335388|XArbitraryZVertical|-0.8860636472153819|0.1422262617642006|0.2284123679261235|0.377479706846556|0.5121508240699768|0.6039696335792542|0.6106742024421692|0|0|0|-1|-1|3
2021-04-22 20:36:56.155 +0100|137239.3804167917|0.610198974609375|0.267974853515625|0.91290283203125|137239.3604557917|2.555935813609589|2.450883863472519|-0.6016835328706102|-1.352814078330994|1.12858259677887|2.318187952041626|0.02701342105865479|-0.3462896943092346|0.1932750344276428|XArbitraryZVertical|-0.8893954701648334|0.1633740811139416|0.2290754846197489|0.3602903136496609|0.5252016186714172|0.5660311579704285|0.6354308128356934|0|0|0|-1|-1|3
2021-04-22 20:36:56.175 +0100|137239.4003787917|0.653564453125|0.27667236328125|0.9466094970703125|137239.3804167917|2.534291716743718|2.463018650227206|-0.5478226557314647|-1.630748867988586|1.260345458984375|2.483909368515015|0.06275761127471924|-0.2498492002487183|0.2371099591255188|XArbitraryZVertical|-0.8932236983586492|0.1855411611539149|0.2294795285780206|0.3392126460209081|0.5358289480209351|0.5208297371864319|0.6645482182502747|0|0|0|-1|-1|3
2021-04-22 20:36:56.195 +0100|137239.4203407917|0.7274932861328125|0.2819976806640625|0.8974761962890625|137239.4003787917|2.512992580054567|2.478096614417258|-0.4903743601602359|-1.714173555374146|1.294351577758789|2.572152614593506|0.09810429811477661|-0.1954285502433777|0.2452304363250732|XArbitraryZVertical|-0.8967075424337158|0.208366373014279|0.2295267365021753|0.315937719843103|0.5432983040809631|0.4709561765193939|0.6950019001960754|0|0|0|-1|-1|3
2021-04-22 20:36:56.215 +0100|137239.4403017917|0.7758941650390625|0.389434814453125|1.014495849609375|137239.4203407917|2.489229239193653|2.493857529878932|-0.4311810748043173|-1.696659684181213|1.228982329368591|2.721171379089355|0.1545562148094177|-0.151098757982254|0.2233214378356934|XArbitraryZVertical|-0.899050811869026|0.2322489935761824|0.229493370380792|0.2917205955725727|0.5481560230255127|0.417944073677063|0.724463939666748|0|0|0|-1|-1|3
2021-04-22 20:36:56.235 +0100|137239.4602637917|0.776092529296875|0.609771728515625|0.91986083984375|137239.4403017917|2.46351148192429|2.510835998863089|-0.3730461846781193|-1.409681797027588|1.336540341377258|2.520777225494385|0.1964722275733948|-0.07839757204055786|0.266792893409729|XArbitraryZVertical|-0.9001402439161161|0.2564493456596769|0.228812074584942|0.2676311874510496|0.5491936206817627|0.3644537925720215|0.7520374655723572|0|0|0|-1|-1|3
2021-04-22 20:36:56.255 +0100|137239.4802257917|0.869873046875|0.74609375|0.9035186767578125|137239.4802257917|2.395774670385529|2.535408628605602|-0.2846260882770746|-0.08087951689958572|1.090994000434875|2.499481439590454|0.2644041180610657|0.3548822999000549|0.1428322792053223|XArbitraryZVertical|-0.8952601344561276|0.3047804437896605|0.2258310616209301|0.2337065893848967|0.5468134880065918|0.280798614025116|0.7887636423110962|0|0|0|-1|-1|3
2021-04-22 20:36:56.275 +0100|137239.5001867917|0.80621337890625|0.8087005615234375|0.809722900390625||||||||||||||||||||||||3
2021-04-22 20:36:56.295 +0100|137239.5201487917|0.8123779296875|0.8316650390625|0.8028106689453125|137239.5001867917|2.348380357116763|2.541551250842602|-0.2631860130791152|0.9665201306343079|0.9064660668373108|2.438719749450684|0.2794124484062195|0.5777475833892822|0.05344897508621216|XArbitraryZVertical|-0.8885364992705065|0.3300755044958146|0.221820264200163|0.228799292197602|0.545232892036438|0.2601581811904907|0.7968938946723938|0|0|0|-1|-1|3
2021-04-22 20:36:56.315 +0100|137239.5401097917|0.8900909423828125|1.085678100585938|0.88055419921875|137239.5201487917|2.291292627452708|2.545526534233175|-0.2600315011107221|1.891725063323975|0.9841355085372925|2.289780378341675|0.2528449892997742|0.5415032505989075|0.006804704666137695|XArbitraryZVertical|-0.8791698953303551|0.3562656352811105|0.2141244064191765|0.2329932653873431|0.5425184369087219|0.257110983133316|0.7997298240661621|0|0|0|-1|-1|3
2021-04-22 20:36:56.335 +0100|137239.5600717917|0.9644775390625|1.331985473632812|1.084747314453125|137239.5401097917|2.224522343337238|2.548214227649681|-0.2765951055780801|3.249956369400024|1.071053862571716|2.11323881149292|0.3384301066398621|0.7333725690841675|0.05830633640289307|XArbitraryZVertical|-0.867176768603346|0.3831145622797901|0.2012984649814458|0.2463871973506231|0.5379117727279663|0.2730817496776581|0.7975446581840515|0|0|0|-1|-1|3
2021-04-22 20:36:56.355 +0100|137239.5800337917|1.060836791992188|1.424240112304688|1.219635009765625|137239.5600717917|2.147328930408137|2.54994846694668|-0.3146148149655579|4.11961841583252|1.352730989456177|1.93405020236969|0.4092079997062683|1.01508891582489|0.2797631621360779|XArbitraryZVertical|-0.8521739163638193|0.4104162685702968|0.1816077967279562|0.2690294759469707|0.5303509831428528|0.3094502091407776|0.789283812046051|0|0|0|-1|-1|3
2021-04-22 20:36:56.375 +0100|137239.5999947917|1.172286987304688|1.63226318359375|1.098556518554688|137239.5800337917|2.05809014259554|2.550446629412948|-0.3730939095392165|5.300124645233154|1.702248334884644|1.788203120231628|0.5174496173858643|1.027698516845703|0.3994574546813965|XArbitraryZVertical|-0.8332883133394023|0.4384304980001497|0.1537611461205389|0.2996114170998101|0.5189722776412964|0.3644982278347015|0.7731814384460449|0|0|0|-1|-1|3
2021-04-22 20:36:56.394 +0100|137239.6199567917|1.1494140625|1.93658447265625|1.074905395507812|137239.5999947917|1.948593223101418|2.540103679056471|-0.4603166029135864|7.706838607788086|1.607722520828247|1.655202269554138|0.6502246260643005|1.098477721214294|0.3891037106513977|XArbitraryZVertical|-0.8073005817012068|0.4664792184788968|0.116210780928043|0.3422836664565517|0.5069705247879028|0.444231778383255|0.7386741638183594|0|0|0|-1|-1|3
2021-04-22 20:36:56.414 +0100|137239.6399187917|1.287246704101562|1.735183715820312|1.144668579101562|137239.6199567917|1.794201746749104|2.494637477744271|-0.5917773785953168|10.63489055633545|1.734920859336853|1.502742886543274|0.6513494849205017|1.32273280620575|0.4007522463798523|XArbitraryZVertical|-0.7666127183073531|0.4933795392343875|0.06514178690470006|0.4057565666983129|0.5002610087394714|0.5578370690345764|0.6622368693351746|0|0|0|-1|-1|3
2021-04-22 20:36:56.434 +0100|137239.6598797917|1.561248779296875|1.240676879882812|0.9485626220703125|137239.6399187917|1.578964264348628|2.401810232047674|-0.7515606981942666|12.17355060577393|2.351640224456787|1.310126185417175|0.7236059904098511|1.185537338256836|0.6471177339553833|XArbitraryZVertical|-0.7092100905530283|0.5165716300216181|-0.002204866974094341|0.4797604690815051|0.4925338625907898|0.682779848575592|0.5396503806114197|0|0|0|-1|-1|3
2021-04-22 20:36:56.455 +0100|137239.6798417917|1.815353393554688|0.972564697265625|0.522430419921875|137239.6598797917|1.28785510026263|2.236795251414499|-0.903487706279232|12.29414844512939|2.690960884094238|1.088887810707092|1.001537084579468|0.5541101694107056|0.644472062587738|XArbitraryZVertical|-0.6383910289418508|0.5325797686612161|-0.0778963817957842|0.5502255108180734|0.4866212606430054|0.7854901552200317|0.3823686242103577|0|0|0|-1|-1|3
2021-04-22 20:36:56.474 +0100|137239.6998027917|2.337005615234375|0.336822509765625|-0.416351318359375|137239.6798417917|0.922462436434099|1.995192931009061|-1.008840802710947|10.73168563842773|3.218767404556274|0.9111385941505432|1.265799880027771|0.2191545963287354|0.4054234027862549|XArbitraryZVertical|-0.5620649604025824|0.5420216721283109|-0.1523225063919697|0.6058824095412679|0.4855725169181824|0.846214771270752|0.2194090187549591|0|0|0|-1|-1|3
2021-04-22 20:36:56.494 +0100|137239.7197647917|2.9853515625|-0.04296875|-2.160079956054688|137239.6998027917|0.5590148117971534|1.7468252789228|-1.049065435662573|8.261882781982422|2.969099044799805|0.7818965315818787|1.695155739784241|-0.4163193702697754|-0.2262847423553467|XArbitraryZVertical|-0.492184722259913|0.548992551829008|-0.215628640993563|0.6402075993645043|0.4906801581382751|0.8669578433036804|0.08727724850177765|0|0|0|-1|-1|3
2021-04-22 20:36:56.514 +0100|137239.7397267917|3.362350463867188|-0.377777099609375|-3.983413696289062|137239.7197647917|0.295667347846915|1.560539791862385|-1.045809132299429|4.977006912231445|0.9079535603523254|0.656658947467804|2.322965860366821|-0.7919808030128479|-1.645021319389343|XArbitraryZVertical|-0.4408350770693114|0.5505398999300892|-0.2567830352416757|0.6607819761747351|0.5011757612228394|0.8653303384780884|-0.005140506662428379|0|0|0|-1|-1|3
2021-04-22 20:36:56.534 +0100|137239.7596877917|4.407135009765625|0.193511962890625|-3.613845825195312|137239.7397267917|0.1717334422988044|1.433167073090745|-1.026183803037394|1.473210215568542|-2.722320079803467|1.093200206756592|2.789072513580322|-1.167644381523132|-3.57529878616333|XArbitraryZVertical|-0.4178569305069614|0.5383828326560124|-0.2648824348662623|0.6821853946228101|0.5131878852844238|0.8553280830383301|-0.07107902318239212|0|0|0|-1|-1|3
2021-04-22 20:36:56.554 +0100|137239.7796497917|6.200347900390625|2.191375732421875|-0.52093505859375|137239.7596877917|0.1934442889712726|1.364982132962938|-1.004840806970725|-2.099194526672363|-6.261331558227539|0.5924587249755859|3.430934429168701|-0.9022271633148193|-3.781406402587891|XArbitraryZVertical|-0.4253196990631395|0.5141116227921437|-0.2366275691834249|0.7062577264294752|0.5249058604240417|0.8440766334533691|-0.1095847859978676|0|0|0|-1|-1|3
2021-04-22 20:36:56.574 +0100|137239.7996117917|4.43402099609375|1.598419189453125|3.383026123046875|137239.7796497917|0.2817576450931563|1.264219123577855|-1.0335070383301|-2.977563381195068|-12.07376766204834|-2.507074356079102|5.440765380859375|0.7999743819236755|-1.494264602661133|XArbitraryZVertical|-0.4667805473347792|0.4526417842282309|-0.190530927670991|0.7354791117968204|0.4879449009895325|0.8590992093086243|-0.1544626653194427|0|0|0|-1|-1|3
2021-04-22 20:36:56.594 +0100|137239.8195727917|2.560409545898438|-1.138763427734375|4.912368774414062|137239.7996117917|0.3253804988405868|1.004704940806459|-1.12446234503892|-1.536870241165161|-16.29756164550781|-5.013559818267822|4.831674098968506|0.945773720741272|2.911173582077026|XArbitraryZVertical|-0.5270289676780103|0.3263163338529563|-0.1331708419778332|0.7733199194315821|0.3643240630626678|0.902035653591156|-0.2315162420272827|0|0|0|-1|-1|3
2021-04-22 20:36:56.614 +0100|137239.8395347917|0.9355010986328125|-4.925674438476562|0.4088134765625|137239.8195727917|0.1743304937862631|0.5180456032635564|-1.205822737979894|-1.511019468307495|-19.23521423339844|-4.099995136260986|2.396284818649292|-0.9433491230010986|5.266178131103516|XArbitraryZVertical|-0.5644123778007183|0.1624581744536931|-0.0753747149364344|0.8058316462336846|0.1767430305480957|0.9341331720352173|-0.310092031955719|0|0|0|-1|-1|3
2021-04-22 20:36:56.634 +0100|137239.8594967917|1.786331176757812|-0.7649078369140625|0.59869384765625|137239.8395347917|0.03230141253600826|-0.04758593406795032|-1.348403417597954|-13.23224067687988|-17.88177490234375|-3.213567733764648|2.104973793029785|-5.627777099609375|0.8603767156600952|XArbitraryZVertical|-0.6237153931297181|-0.02866217305838766|0.02746286867223835|0.7806430399939566|-0.01049182377755642|0.9753724336624146|-0.2203151732683182|0|0|0|-1|-1|3
2021-04-22 20:36:56.654 +0100|137239.8794577917|7.108154296875|1.80780029296875|4.612960815429688|137239.8594967917|-2.015128178020812|-2.303082331615491|-1.392086710323578|-14.71721076965332|-5.867847442626953|-8.382309913635254|0.8634684085845947|-3.105503559112549|-0.2830135822296143|XArbitraryZVertical|-0.7320160706123409|-0.1535423437563799|0.04855980175680755|0.6619813128446465|-0.1321912109851837|0.9840738773345947|0.11884555965662|0|0|0|-1|-1|3
2021-04-22 20:36:56.674 +0100|137239.8994197917|3.7857666015625|-2.77520751953125|5.662689208984375|137239.8794577917|-1.969588774143576|-2.379451848134379|-1.173891783728135|-2.16332483291626|-6.929129600524902|-5.760434627532959|6.027929306030273|0.306878924369812|3.427849054336548|XArbitraryZVertical|-0.7578659087728526|-0.2558363193559003|0.02630782191867514|0.5995790309824354|-0.266912579536438|0.9222620129585266|0.2796259224414825|0|0|0|-1|-1|3
2021-04-22 20:36:56.694 +0100|137239.9193807917|-0.0243377685546875|-2.520721435546875|3.003280639648438|137239.8994197917|-1.817689067313508|-2.456745780327246|-1.139611168149548|1.827903151512146|-12.17181777954102|-2.87082314491272|5.813554286956787|-2.575707674026489|5.602624416351318|XArbitraryZVertical|-0.7369477383769761|-0.3446183146880235|0.08932882557906836|0.5746013663092072|-0.2643749713897705|0.9084710478782654|0.3237074911594391|0|0|0|-1|-1|3
2021-04-22 20:36:56.714 +0100|137239.9393427917|0.13897705078125|0.0037078857421875|2.07611083984375|137239.9193807917|-1.697417387197689|-2.523096946663244|-1.134785586419258|1.427752733230591|-3.950628280639648|-1.286827564239502|0.7416502237319946|-3.99232029914856|3.078059196472168|XArbitraryZVertical|-0.7109274194569521|-0.4082009498339715|0.1457688569271008|0.5538101706154842|-0.2448695152997971|0.9064436554908752|0.3440916240215302|0|0|0|-1|-1|3
2021-04-22 20:36:56.734 +0100|137239.9593047917|0.7111968994140625|0.3058624267578125|1.808395385742188|137239.9393427917|-1.589299352189686|-2.422809999895144|-1.1732182790114|4.158165454864502|2.221252918243408|0.3360047936439514|0.127814918756485|-1.381657123565674|2.010007858276367|XArbitraryZVertical|-0.6927289594052034|-0.407218256553754|0.1539754888271637|0.5749710426102431|-0.2549508512020111|0.9220014214515686|0.2914002537727356|0|0|0|-1|-1|3
2021-04-22 20:36:56.754 +0100|137239.9792657917|0.1002044677734375|-0.6756591796875|1.552001953125|137239.9593047917|-1.43374380398548|-2.240708235789935|-1.245422673787646|4.547773838043213|1.060567378997803|0.8961004614830017|0.9545410871505737|-0.3917604684829712|1.578265428543091|XArbitraryZVertical|-0.6718930640197479|-0.3844501658980904|0.1634713745484888|0.6115840447357097|-0.2505766153335571|0.9475313425064087|0.1984844356775284|0|0|0|-1|-1|3
2021-04-22 20:36:56.774 +0100|137239.9992277917|-0.4940185546875|0.1229095458984375|1.17999267578125|137239.9792657917|-1.219292600095319|-2.023323401007871|-1.300862266745825|3.49401593208313|0.5318856835365295|0.2863544225692749|0.532155454158783|-1.559033632278442|1.584880113601685|XArbitraryZVertical|-0.6496182251418936|-0.3691818866102242|0.1791307187887128|0.6400104068218661|-0.2398273348808289|0.9637885093688965|0.1165982112288475|0|0|0|-1|-1|3
