loggingTime(txt)|accelerometerTimestamp_sinceReboot(s)|accelerometerAccelerationX(G)|accelerometerAccelerationY(G)|accelerometerAccelerationZ(G)|motionTimestamp_sinceReboot(s)|motionYaw(rad)|motionRoll(rad)|motionPitch(rad)|motionRotationRateX(rad/s)|motionRotationRateY(rad/s)|motionRotationRateZ(rad/s)|motionUserAccelerationX(G)|motionUserAccelerationY(G)|motionUserAccelerationZ(G)|motionAttitudeReferenceFrame(txt)|motionQuaternionX(R)|motionQuaternionY(R)|motionQuaternionZ(R)|motionQuaternionW(R)|motionGravityX(G)|motionGravityY(G)|motionGravityZ(G)|motionMagneticFieldX(µT)|motionMagneticFieldY(µT)|motionMagneticFieldZ(µT)|motionHeading(°)|motionMagneticFieldCalibrationAccuracy(Z)|label
2021-04-22 21:21:24.589 +0100|139170.310925125|0.0303955078125|0.003173828125|-1.0079345703125|139170.305935125|0.2774105665618197|-0.0097793236891536|0.006630116069644135|-0.08019958436489105|-0.03046602569520473|0.001449153292924166|-0.06111365929245949|-0.005697960499674082|0.009054958820343018|XArbitraryZVertical|0.003959217302645135|-0.004384318078972952|0.1382424830048258|0.9903807912521346|-0.009778953157365322|-0.006630067713558674|-0.999930202960968|0|0|0|-1|-1|3
2021-04-22 21:21:24.591 +0100|139170.330885125|-0.012481689453125|0.006195068359375|-0.9727630615234375|139170.325895125|0.2778675517671219|-0.009720348262560356|0.005826160149901597|-0.02119933255016804|-0.03288593515753746|0.02032910101115704|0.03076162189245224|-0.001451240852475166|0.001522719860076904|XArbitraryZVertical|0.003558037945800983|-0.004409883521577856|0.1384709767413927|0.9903504478787044|-0.00972003024071455|-0.005826127249747515|-0.9999358057975769|0|0|0|-1|-1|3
2021-04-22 21:21:24.592 +0100|139170.350846125|0.020477294921875|0.005767822265625|-0.9919891357421875|139170.345856125|0.2780517459406411|-0.009032005334528649|0.005374596488364301|-0.03211710974574089|-0.006686980836093426|0.002222446724772453|0.002424420788884163|0.01678922027349472|0.02947056293487549|XArbitraryZVertical|0.003287155359857852|-0.004100000869240996|0.1385645109021225|0.9903395383806947|-0.009031752124428749|-0.005374570842832327|-0.9999447464942932|0|0|0|-1|-1|3
2021-04-22 21:21:24.593 +0100|139170.370806125|0.0157623291015625|-0.00909423828125|-0.977996826171875|139170.365816125|0.2779335496217072|-0.009000086981591609|0.005036233576109429|-0.01074119936674833|0.0007618269883096218|-0.02786719053983688|0.02238153293728828|0.02542302757501602|0.006263971328735352|XArbitraryZVertical|0.003117154914780266|-0.00410782682316531|0.1385068584259035|0.9903480628740395|-0.008999851532280445|-0.005036212503910065|-0.9999468326568604|0|0|0|-1|-1|3
2021-04-22 21:21:24.600 +0100|139170.390766125|0.020538330078125|0.00079345703125|-0.9938812255859375|139170.385776125|0.2771745907744402|-0.01017793773160198|0.004777176710083572|-0.01190228760242462|-0.03110918030142784|-0.04757405072450638|0.0361020490527153|0.001787509769201279|0.01182341575622559|XArbitraryZVertical|0.003068659607552263|-0.004710175306949743|0.1381298602639475|0.9903982570690233|-0.01017764583230019|-0.004777158610522747|-0.9999368190765381|0|0|0|-1|-1|3
2021-04-22 21:21:24.619 +0100|139170.410727125|0.0185699462890625|-0.0113983154296875|-0.996429443359375|139170.405737125|0.2760380282554283|-0.01006297068469401|0.004408501337891919|-0.01276746485382318|-0.01203737780451775|-0.06164290755987167|0.02555009536445141|0.001846084371209145|0.006119489669799805|XArbitraryZVertical|0.002875492824204342|-0.00468034533489126|0.1375681624067628|0.9904771843756353|-0.01006270293146372|-0.004408487118780613|-0.9999396800994873|0|0|0|-1|-1|3
2021-04-22 21:21:24.639 +0100|139170.430687125|0.01824951171875|6.103515625e-05|-0.99664306640625|139170.425697125|0.2748287476239538|-0.01046686422205711|0.003963788575994633|-0.01490436866879463|-0.03430518507957458|-0.05761274695396423|0.0321032702922821|-0.00696044135838747|0.003095924854278564|XArbitraryZVertical|0.002680066593954383|-0.004912584493810219|0.1369698972866817|0.9905594501734845|-0.01046659052371979|-0.003963778261095285|-0.9999373555183411|0|0|0|-1|-1|3
2021-04-22 21:21:24.659 +0100|139170.450647125|0.0082550048828125|0.01324462890625|-0.9949188232421875|139170.445657125|0.2737419317981585|-0.01065130266127821|0.003537921281624653|-0.001982910791411996|-0.02863398380577564|-0.05666501447558403|0.02520763874053955|0.006789109669625759|0.005842208862304688|XArbitraryZVertical|0.002479039342480329|-0.005034450354835034|0.1364325181047598|0.9906336085927855|-0.01065103430300951|-0.003537914017215371|-0.9999369978904724|0|0|0|-1|-1|3
2021-04-22 21:21:24.679 +0100|139170.470608125|0.005096435546875|0.0169219970703125|-0.99749755859375|139170.465618125|0.2726418670652204|-0.01073950934143094|0.003591135049217228|0.004061965271830559|-0.03415652737021446|-0.05528691783547401|0.01945171877741814|0.02075833827257156|0.004711925983428955|XArbitraryZVertical|0.002508622558428635|-0.005075890664073765|0.1358873605514378|0.9907082441323122|-0.01073923334479332|-0.003591127227991819|-0.9999358654022217|0|0|0|-1|-1|3
2021-04-22 21:21:24.699 +0100|139170.490568125|0.002105712890625|0.01806640625|-0.999725341796875|139170.485578125|0.2715431420143388|-0.01072852288985757|0.003515339961639319|0.001212932402268052|-0.03440441563725471|-0.05221540480852127|0.01370343007147312|0.02001115679740906|0.002927005290985107|XArbitraryZVertical|0.002467542053985261|-0.005076955308463169|0.1353433056438354|0.9907828200233877|-0.01072825118899345|-0.003515332704409957|-0.9999362826347351|0|0|0|-1|-1|3
2021-04-22 21:21:24.719 +0100|139170.510529125|-0.007293701171875|0.0167999267578125|-0.9937744140625|139170.505538125|0.2706629190551445|-0.01074422187686488|0.003774326660761361|0.009351302869617939|-0.0271750520914793|-0.03754431754350662|0.009095704182982445|0.02168920822441578|0.001216888427734375|XArbitraryZVertical|0.002594673343174902|-0.005068346263673452|0.1349064941491148|0.9908421351388031|-0.01074393838644028|-0.003774317679926753|-0.9999351501464844|0|0|0|-1|-1|3
2021-04-22 21:21:24.739 +0100|139170.530489125|-0.0175323486328125|0.0193023681640625|-0.995025634765625|139170.525499125|0.2701051586591188|-0.01071948397468345|0.004022036342744814|0.01475660502910614|-0.0226653628051281|-0.02093489095568657|0.003226841799914837|0.02454616874456406|0.006556808948516846|XArbitraryZVertical|0.002714319645549984|-0.005040136664288|0.1346295120872533|0.9908795722667356|-0.01071919221431017|-0.004022025503218174|-0.9999344348907471|0|0|0|-1|-1|3
2021-04-22 21:21:24.759 +0100|139170.550449125|-0.0153350830078125|0.019866943359375|-1.001327514648438|139170.545459125|0.2697123111330552|-0.01065168329260234|0.004068917013532613|0.02776183560490608|-0.0129455691203475|-0.01642491854727268|-0.007979872636497021|0.01984756626188755|0.002437472343444824|XArbitraryZVertical|0.002731999450717921|-0.005003926133954742|0.1344348438028586|0.9909061001094236|-0.01065139379352331|-0.004068905953317881|-0.99993497133255|0|0|0|-1|-1|3
2021-04-22 21:21:24.779 +0100|139170.570410125|-0.003143310546875|-0.002044677734375|-1.0018310546875|139170.565419125|0.2694100754436553|-0.01049751975466358|0.00399149064885698|-0.002580174710601568|-0.006098954938352108|-0.01938138157129288|-0.006089347414672375|0.02225732244551182|-0.001787304878234863|XArbitraryZVertical|0.002682530449680995|-0.004933155958068745|0.1342855196083007|0.9909268454039662|-0.01049724314361811|-0.003991479985415936|-0.9999369382858276|0|0|0|-1|-1|3
2021-04-22 21:21:24.803 +0100|139170.590370125|-0.0068511962890625|-0.0003204345703125|-0.99169921875|139170.585380125|0.2691207519458864|-0.01078612338547843|0.002975706321313607|-0.05189592763781548|-0.03355742245912552|-0.009568255394697189|0.01243352890014648|0.00167977693490684|-0.00221407413482666|XArbitraryZVertical|0.002197881475660628|-0.005144678996421856|0.1341446145537863|0.9909460405277014|-0.01078586652874947|-0.002975701820105314|-0.9999374151229858|0|0|0|-1|-1|3
2021-04-22 21:21:24.818 +0100|139170.610330125|0.0003204345703125|-0.01031494140625|-0.99749755859375|139170.605340125|0.2689208062476608|-0.01129558245639027|0.001241184199813772|-0.08543649315834045|-0.02873167023062706|-0.006278629880398512|0.005389894358813763|-0.001214408897794783|0.008999168872833252|XArbitraryZVertical|0.001372094140046021|-0.005513589079301659|0.1340499476544574|0.9909584396220031|-0.01129533350467682|-0.001241183839738369|-0.9999354481697083|0|0|0|-1|-1|3
2021-04-22 21:21:24.838 +0100|139170.630291125|-0.004150390625|0.006805419921875|-0.9935760498046875|139170.625300125|0.2688848148429573|-0.01232189412737418|-0.001174018638534727|-0.107018381357193|-0.06544984132051468|0.005805108696222305|0.01470165699720383|-0.01339523587375879|0.001220405101776123|XArbitraryZVertical|0.0002440930224753461|-0.006183992247838232|0.1340387866567564|0.9909567701790408|-0.01232157368212938|0.001174018369056284|-0.9999234080314636|0|0|0|-1|-1|3
2021-04-22 21:21:24.858 +0100|139170.650251125|-0.01898193359375|0.0352935791015625|-0.9845428466796875|139170.645261125|0.2690321313111694|-0.01358936821333884|-0.003201742410713517|-0.0552072674036026|-0.04770956933498383|0.007051734253764153|0.001106902956962585|0.01504884753376245|0.009820759296417236|XArbitraryZVertical|-0.0006751401529260413|-0.006947931525138814|0.1341182692563797|0.9909407939455284|-0.01358888018876314|0.003201736835762858|-0.9999025464057922|0|0|0|-1|-1|3
2021-04-22 21:21:24.878 +0100|139170.670211125|-0.0095977783203125|0.015838623046875|-0.99237060546875|139170.665221125|0.2690840635501574|-0.01426507503203996|-0.003975216579593617|-0.02578532882034779|-0.04684638231992722|0.005122185219079256|-0.003451263532042503|0.02558214217424393|0.01583582162857056|XArbitraryZVertical|-0.001012871149899256|-0.0073346087496409|0.1341468496439171|0.9909339385894613|-0.01426447834819555|0.003975206054747105|-0.9998903274536133|0|0|0|-1|-1|3
2021-04-22 21:21:24.898 +0100|139170.690172125|-0.0245513916015625|0.0085601806640625|-0.9957427978515625|139170.685182125|0.2692216735673219|-0.01495611762564731|-0.003890359330283846|0.01377750933170319|-0.02798316068947315|0.00442603463307023|0.001924153417348862|0.01733569800853729|0.006899654865264893|XArbitraryZVertical|-0.0009239485587321838|-0.007671370937019722|0.1342150820244158|0.9909221355009462|-0.01495544705539942|0.00389034952968359|-0.9998806118965149|0|0|0|-1|-1|3
2021-04-22 21:21:24.918 +0100|139170.710132125|-0.0203857421875|-0.012542724609375|-1.012832641601562|139170.705142125|0.2690851791124316|-0.01515570326975533|-0.003540519436450329|-0.01340186316519976|-0.03312348946928978|-0.01736954040825367|-0.007107831537723541|-0.005172129720449448|-0.0002583861351013184|XArbitraryZVertical|-0.0007377510139049302|-0.007746735131028838|0.1341462687178707|0.9909310775938089|-0.01515502855181694|0.003540511941537261|-0.9998788833618164|0|0|0|-1|-1|3
2021-04-22 21:21:24.938 +0100|139170.730092125|-0.036407470703125|-0.0130462646484375|-1.003692626953125|139170.725102125|0.2686074932706346|-0.0157229254989313|-0.004162423743614966|-0.04359903186559677|-0.03534935787320137|-0.04109466448426247|-0.007990302518010139|-0.01368282362818718|-0.01288855075836182|XArbitraryZVertical|-0.001009765516156181|-0.008069236574443037|0.1339121273912911|0.9909599901446596|-0.01572214066982269|0.004162411671131849|-0.9998677372932434|0|0|0|-1|-1|3
2021-04-22 21:21:24.958 +0100|139170.750053125|-0.039459228515625|-0.0088348388671875|-0.9998016357421875|139170.745063125|0.2676157969370418|-0.01621909753340338|-0.005853019266360456|-0.06823697686195374|-0.0174225028604269|-0.06102381274104118|-0.02121198922395706|-0.02098863199353218|-0.005229771137237549|XArbitraryZVertical|-0.001818380316074398|-0.008427344115168005|0.13342751291715|0.9910211533754182|-0.01621810905635357|0.005852985661476851|-0.9998513460159302|0|0|0|-1|-1|3
2021-04-22 21:21:24.978 +0100|139170.770013125|-0.042022705078125|0|-0.9915008544921875|139170.765023125|0.266160252515452|-0.01630191014967081|-0.007593399153341046|-0.08288927376270294|0.005692402832210064|-0.08203571289777756|-0.02566123940050602|-0.01210885588079691|0.002203464508056641|XArbitraryZVertical|-0.002681483335399575|-0.008582492476731717|0.1327129591029119|0.9911137923272884|-0.01630071736872196|0.007593326270580292|-0.9998382925987244|0|0|0|-1|-1|3
2021-04-22 21:21:24.998 +0100|139170.789973125|-0.036376953125|0.0151824951171875|-0.9832305908203125|139170.784983125|0.2643875811710802|-0.01620529471401029|-0.008741159741678809|-0.04527505859732628|0.01800968497991562|-0.09361468255519867|-0.02356072887778282|-0.002605943940579891|0.008299171924591064|XArbitraryZVertical|-0.003264310185801337|-0.008607849185025853|0.1318386205676361|0.9912284882522365|-0.01620396599173546|0.008741048164665699|-0.9998304843902588|0|0|0|-1|-1|3
2021-04-22 21:21:25.018 +0100|139170.809934125|-0.01922607421875|-0.0073089599609375|-0.990509033203125|139170.804944125|0.2621173827672539|-0.0158228544695047|-0.009306757769765483|-0.06693235039710999|0.02306175231933594|-0.1309934854507446|-0.01901460252702236|-0.0006385594606399536|0.01727235317230225|XArbitraryZVertical|-0.003579437149689123|-0.008451511918293693|0.1307148074265012|0.991377640655946|-0.01582150906324387|0.009306623600423336|-0.99983149766922|0|0|0|-1|-1|3
2021-04-22 21:21:25.038 +0100|139170.829894125|-0.0240936279296875|-0.0172882080078125|-0.9962310791015625|139170.824904125|0.2592420602475448|-0.01600121240777527|-0.01041820183332557|-0.103761188685894|0.008934269659221172|-0.1547301560640335|-0.002128077670931816|-0.02152534015476704|0.007691264152526855|XArbitraryZVertical|-0.004131092569443353|-0.008606591305540284|0.1292937913356021|0.9915604156143738|-0.01599966175854206|0.01041801366955042|-0.9998177289962769|0|0|0|-1|-1|3
2021-04-22 21:21:25.058 +0100|139170.849854125|-0.026611328125|-0.0263824462890625|-0.9952850341796875|139170.844864125|0.2557178797710991|-0.01645927162417365|-0.01270320603398158|-0.1647031307220459|-0.004617119207978249|-0.1897493898868561|-0.007972422987222672|-0.03476600348949432|0.001706480979919434|XArbitraryZVertical|-0.005250165215555156|-0.008972066653164161|0.1275557983149818|0.9917769921927443|-0.016457200050354|0.01270286459475756|-0.9997838735580444|0|0|0|-1|-1|3
2021-04-22 21:21:25.078 +0100|139170.869815125|-0.043304443359375|-0.00811767578125|-0.9824981689453125|139170.864825125|0.2517135126707746|-0.01710960972456765|-0.01598496314847448|-0.1918686032295227|-0.0004796320572495461|-0.2073288261890411|-0.01258732005953789|-0.0330120213329792|0.005463242530822754|XArbitraryZVertical|-0.006855097505472725|-0.009489971754449289|0.1255839765875438|0.9920140174010037|-0.01710658892989159|0.01598428189754486|-0.999725878238678|0|0|0|-1|-1|3
2021-04-22 21:21:25.098 +0100|139170.889775125|-0.052581787109375|-0.008270263671875|-0.9680938720703125|139170.884785125|0.247345291689745|-0.0175146955599156|-0.0201297460950315|-0.2351388931274414|0.001551348250359297|-0.2244458496570587|-0.02895307168364525|-0.0309915766119957|0.02018243074417114|XArbitraryZVertical|-0.008907230938088253|-0.009931419325717972|0.1234341009449855|0.9922632051996577|-0.01751025207340717|0.02012838609516621|-0.9996440410614014|0|0|0|-1|-1|3
2021-04-22 21:21:25.118 +0100|139170.909735125|-0.072418212890625|-0.0187225341796875|-0.9449462890625|139170.904745125|0.2426799190870567|-0.01765322328760481|-0.02469800824348613|-0.2995186746120453|0.0008566891774535179|-0.2373522371053696|-0.03989428281784058|-0.03287314251065254|0.03460401296615601|XArbitraryZVertical|-0.01118911737162902|-0.01025558714763878|0.1211366665663992|0.9925198463487486|-0.01764692366123199|0.0246954970061779|-0.9995392560958862|0|0|0|-1|-1|3
2021-04-22 21:21:25.138 +0100|139170.929696125|-0.0919647216796875|-0.0289306640625|-0.923187255859375|139170.924706125|0.2374817715957044|-0.01798638100707176|-0.03109179146222209|-0.4495155811309814|-0.009407240897417068|-0.2731050848960876|-0.05795133858919144|-0.05342458188533783|0.05694174766540527|XArbitraryZVertical|-0.01436997414407284|-0.01077011429480307|0.1185817475008813|0.9927820352133212|-0.01797671802341938|0.03108678199350834|-0.9993550181388855|0|0|0|-1|-1|3
2021-04-22 21:21:25.158 +0100|139170.949656125|-0.107513427734375|-0.058319091796875|-0.9055023193359375|139170.944666125|0.2314583170420517|-0.01858352209755373|-0.04095791547832614|-0.6902528405189514|-0.007162515074014664|-0.3128685653209686|-0.07913548499345779|-0.0739654153585434|0.07876181602478027|XArbitraryZVertical|-0.0192669824174443|-0.01159199723703875|0.1156307997871891|0.9930377339026909|-0.01856686733663082|0.04094646498560905|-0.9989888072013855|0|0|0|-1|-1|3
2021-04-22 21:21:25.178 +0100|139170.969616125|-0.1125946044921875|-0.0146636962890625|-0.9008941650390625|139170.964626125|0.2241888731033697|-0.01968174250705105|-0.05657695053551411|-0.9886944890022278|-0.02269263193011284|-0.3810251355171204|-0.08841409534215927|-0.1170010268688202|0.09116321802139282|XArbitraryZVertical|-0.02700548486992399|-0.01293880728469768|0.1120862553887108|0.9932472489318546|-0.01964898221194744|0.05654677376151085|-0.9982065558433533|0|0|0|-1|-1|3
2021-04-22 21:21:25.198 +0100|139170.989577125|-0.125335693359375|0.0200958251953125|-0.902587890625|139170.984587125|0.2150606193188116|-0.02146992475459808|-0.07769207282544716|-1.302971720695496|-0.03311347588896751|-0.4879240989685059|-0.09694399684667587|-0.07814693450927734|0.09323513507843018|XArbitraryZVertical|-0.0374585081727896|-0.01483249246351233|0.1076505374020245|0.9933722603065651|-0.02140351571142673|0.07761393487453461|-0.9967536926269531|0|0|0|-1|-1|3
2021-04-22 21:21:25.218 +0100|139171.009537125|-0.1273651123046875|0.0653839111328125|-0.905609130859375|139171.004547125|0.2037689440407285|-0.02325185324690911|-0.1074263672666679|-1.70434296131134|-0.04017655178904533|-0.5700843930244446|-0.1022203117609024|-0.08571916818618774|0.09549868106842041|XArbitraryZVertical|-0.05222461487572474|-0.01700877520137874|0.1021756512012158|0.9932490362192453|-0.02311573177576065|0.107219859957695|-0.9939665794372559|0|0|0|-1|-1|3
2021-04-22 21:21:25.238 +0100|139171.029497125|-0.1379852294921875|0.0789642333984375|-0.8994903564453125|139171.024507125|0.1902918811552876|-0.02580775840443236|-0.1454231714350009|-2.14571475982666|-0.03591953963041306|-0.6709597706794739|-0.1063343062996864|-0.07150006294250488|0.07845556735992432|XArbitraryZVertical|-0.07109029631314101|-0.01971233398783741|0.09567669538420012|0.9926750398149247|-0.02553251385688782|0.144911140203476|-0.9891151785850525|0|0|0|-1|-1|3
2021-04-22 21:21:25.258 +0100|139171.049458125|-0.1410675048828125|0.1210174560546875|-0.8830718994140625|139171.044468125|0.1742970416374852|-0.02887662087768532|-0.1923395465591576|-2.585157632827759|-0.006276161875575781|-0.7663935422897339|-0.1112018227577209|-0.1029589772224426|0.08117210865020752|XArbitraryZVertical|-0.09439638435469734|-0.02267323431752833|0.08800810991754966|0.9913778209631963|-0.02834018878638744|0.1911558210849762|-0.9811505079269409|0|0|0|-1|-1|3
2021-04-22 21:21:25.278 +0100|139171.069418125|-0.1442108154296875|0.2272186279296875|-0.8391571044921875|139171.064428125|0.1562635885217802|-0.03261080946931159|-0.2469669650694562|-2.923307180404663|0.03662704303860664|-0.8124845027923584|-0.1109475269913673|-0.1011067181825638|0.0968896746635437|XArbitraryZVertical|-0.1215148797613144|-0.02574358286451743|0.07944981514553211|0.9890699609888262|-0.0316157378256321|0.2444640845060349|-0.9691427946090698|0|0|0|-1|-1|3
2021-04-22 21:21:25.312 +0100|139171.089379125|-0.134307861328125|0.321502685546875|-0.8183746337890625|139171.084388125|0.1366971134794298|-0.03633608843874701|-0.3077709382023455|-3.231580972671509|0.1145109236240387|-0.8670071959495544|-0.1096816956996918|-0.04678478837013245|0.118215024471283|XArbitraryZVertical|-0.1516696361969677|-0.02837694816431466|0.07025528283605856|0.9855229313026527|-0.03462107852101326|0.3029350638389587|-0.9523821473121643|0|0|0|-1|-1|3
2021-04-22 21:21:25.317 +0100|139171.10933875|-0.1244354248046875|0.42529296875|-0.8108673095703125|139171.10434875|0.1151734755697681|-0.04065292370357865|-0.3741297338567716|-3.460101366043091|0.1548338383436203|-0.9199802279472351|-0.0893062949180603|-0.02201679348945618|0.1159247159957886|XArbitraryZVertical|-0.1844797114907509|-0.03063897551531046|0.0603128430825817|0.9805055277893068|-0.03783037886023521|0.365462601184845|-0.9300569891929626|0|0|0|-1|-1|3
2021-04-22 21:21:25.337 +0100|139171.12929875|-0.111297607421875|0.5038909912109375|-0.7813262939453125|139171.12430875|0.09152114483011276|-0.04621624594563953|-0.4434241000551535|-3.548252582550049|0.2410180419683456|-0.9528027176856995|-0.08355864882469177|0.01485943794250488|0.1008865237236023|XArbitraryZVertical|-0.2185801136460695|-0.03257344051830659|0.0496886721753282|0.9740086899070521|-0.04173171520233154|0.4290349185466766|-0.9023234248161316|0|0|0|-1|-1|3
2021-04-22 21:21:25.358 +0100|139171.14925975|-0.0847015380859375|0.583221435546875|-0.750213623046875|139171.14426875|0.06618867071241875|-0.05256157516716294|-0.5122998583105932|-3.437296628952026|0.2928164005279541|-0.9444074630737305|-0.05764720588922501|0.03594085574150085|0.09766542911529541|XArbitraryZVertical|-0.2522906848043259|-0.033786754246145|0.03865168916647416|0.966288772978772|-0.0457926020026207|0.4901831448078156|-0.8704157471656799|0|0|0|-1|-1|3
2021-04-22 21:21:25.377 +0100|139171.16921975|-0.0712890625|0.65435791015625|-0.730743408203125|139171.16422975|0.04015332272864825|-0.0597420715066812|-0.5772440916132561|-3.175824165344238|0.3449464738368988|-0.9065117835998535|-0.02951228246092796|0.05525165796279907|0.09041225910186768|XArbitraryZVertical|-0.2838723989945968|-0.03433696217909675|0.027735606105546|0.9578457313216022|-0.05003228038549423|0.5457166433334351|-0.8364748954772949|0|0|0|-1|-1|3
2021-04-22 21:21:25.397 +0100|139171.18917975|-0.0601959228515625|0.7068023681640625|-0.7242431640625|139171.18418975|0.01394891762175655|-0.0672915213399351|-0.6370805144317327|-2.935754060745239|0.3900906145572662|-0.8693633675575256|-0.0169186182320118|0.07349985837936401|0.06976324319839478|XArbitraryZVertical|-0.3127728722008801|-0.03412936422965851|0.0171547464003731|0.9490596599391093|-0.05405052751302719|0.5948511958122253|-0.8020166158676147|0|0|0|-1|-1|3
2021-04-22 21:21:25.417 +0100|139171.20914075|-0.0556640625|0.7634735107421875|-0.710723876953125|139171.20414975|-0.01289075931015765|-0.07567132712213201|-0.6925301369686903|-2.751111268997192|0.4350443780422211|-0.8469445705413818|-0.0008531995117664337|0.08108824491500854|0.04707908630371094|XArbitraryZVertical|-0.3393662979700068|-0.03339486866804992|0.006779151622514706|0.9400369553928681|-0.05818359181284904|0.6384865045547485|-0.7674306035041809|0|0|0|-1|-1|3
2021-04-22 21:21:25.437 +0100|139171.22910075|-0.0494384765625|0.817718505859375|-0.7020111083984375|139171.22411075|-0.04126854875505458|-0.08493643986641726|-0.7441573387266944|-2.583105802536011|0.5170702934265137|-0.8736953139305115|0.006286777555942535|0.1088576912879944|0.02229911088943481|XArbitraryZVertical|-0.3639635459352145|-0.03204761374749062|-0.003772146048805978|0.9308540976718277|-0.06240915134549141|0.6773521304130554|-0.7330069541931152|0|0|0|-1|-1|3
2021-04-22 21:21:25.457 +0100|139171.24906075|-0.0339813232421875|0.8537139892578125|-0.6790771484375|139171.24407075|-0.071886690097223|-0.09570297065304187|-0.7922586253611914|-2.426279544830322|0.5288684964179993|-0.8910394906997681|0.02253233641386032|0.1140177845954895|-0.00618898868560791|XArbitraryZVertical|-0.3867454236351804|-0.03025069255098069|-0.01467031549645093|0.9215736152224686|-0.06710383296012878|0.7119411826133728|-0.6990257501602173|0|0|0|-1|-1|3
2021-04-22 21:21:25.477 +0100|139171.26902175|-0.030029296875|0.873260498046875|-0.6621551513671875|139171.26403175|-0.1043981754641789|-0.108493550679894|-0.8370857316013509|-2.270691156387329|0.5626762509346008|-0.8717347979545593|0.03910602629184723|0.118817150592804|-0.007630884647369385|XArbitraryZVertical|-0.4078636491462349|-0.02829810407178315|-0.02559492991651846|0.9122452715904902|-0.07250810414552689|0.7426947951316833|-0.665692925453186|0|0|0|-1|-1|3
2021-04-22 21:21:25.497 +0100|139171.28898175|-0.023590087890625|0.8755950927734375|-0.657958984375|139171.28399175|-0.1382157654437383|-0.1227278631465715|-0.8791746311642389|-2.180745840072632|0.5675556063652039|-0.8452222943305969|0.0507945790886879|0.104864239692688|-0.02275568246841431|XArbitraryZVertical|-0.4275831980532363|-0.0260313403443306|-0.03633451167352261|0.9028703739161574|-0.07807790488004684|0.770212709903717|-0.6329899430274963|0|0|0|-1|-1|3
2021-04-22 21:21:25.517 +0100|139171.30894175|-0.0147705078125|0.8720703125|-0.627471923828125|139171.30395175|-0.1731604651444786|-0.1389870488736893|-0.9198447021415919|-2.162108182907104|0.5401283502578735|-0.785014808177948|0.0658651739358902|0.08196502923965454|-0.05024337768554688|XArbitraryZVertical|-0.4465288712849554|-0.02369861256790053|-0.04659308863398452|0.8932411343146897|-0.08394747227430344|0.795507550239563|-0.6001006960868835|0|0|0|-1|-1|3
2021-04-22 21:21:25.537 +0100|139171.32890275|-0.0179290771484375|0.92193603515625|-0.626861572265625|139171.32391275|-0.2089590927093274|-0.157370925374111|-0.9591944839075057|-2.03809118270874|0.5118730068206787|-0.725446343421936|0.07753487676382065|0.06080305576324463|-0.05950158834457397|XArbitraryZVertical|-0.4647585732240998|-0.02138335710465092|-0.05616546731108165|0.883395576542767|-0.08998668938875198|0.8187293410301208|-0.5670844316482544|0|0|0|-1|-1|3
2021-04-22 21:21:25.557 +0100|139171.34886275|-0.0204010009765625|0.90985107421875|-0.6030426025390625|139171.34387275|-0.2456137098548336|-0.1775355049429222|-0.9964906648281077|-2.00591254234314|0.5024005174636841|-0.676970899105072|0.07605782151222229|0.08110034465789795|-0.08860749006271362|XArbitraryZVertical|-0.4819577723171889|-0.0189770893932558|-0.06513565597972318|0.8735639551612082|-0.09594067186117172|0.8395696878433228|-0.5347131490707397|0|0|0|-1|-1|3
2021-04-22 21:21:25.577 +0100|139171.36882275|-0.0216217041015625|0.9381561279296875|-0.5708465576171875|139171.36383275|-0.2835911644299029|-0.2004378058122981|-1.03309813143222|-1.953907251358032|0.4243265092372894|-0.5949459075927734|0.082514688372612|0.05566138029098511|-0.09599274396896362|XArbitraryZVertical|-0.4987669463947087|-0.01667860872842238|-0.07334837884514619|0.8634659461478026|-0.1019703149795532|0.8588898777961731|-0.50190669298172|0|0|0|-1|-1|3
2021-04-22 21:21:25.597 +0100|139171.38878375|-0.0320587158203125|0.9705047607421875|-0.529632568359375|139171.38379375|-0.3211646247915255|-0.224811565107585|-1.067724802663086|-1.830527663230896|0.4054642021656036|-0.5071713328361511|0.08171772956848145|0.07253354787826538|-0.09116929769515991|XArbitraryZVertical|-0.5145844468198041|-0.01446833822123225|-0.08043067361742491|0.8535365373301943|-0.107475258409977|0.8761058449745178|-0.4699870347976685|0|0|0|-1|-1|3
2021-04-22 21:21:25.617 +0100|139171.40874375|-0.035125732421875|0.964263916015625|-0.4933929443359375|139171.40375375|-0.3571359135028814|-0.2487512007865614|-1.099647464101049|-1.67365837097168|0.3744325637817383|-0.3696264624595642|0.07930909097194672|0.08054119348526001|-0.07968235015869141|XArbitraryZVertical|-0.5290429072699172|-0.01199338438950441|-0.08647968983965944|0.8440919931250439|-0.1117499694228172|0.8910474181175232|-0.4399395287036896|0|0|0|-1|-1|3
2021-04-22 21:21:25.637 +0100|139171.42870375|-0.023193359375|0.9941253662109375|-0.450927734375|139171.42371375|-0.3894941639596738|-0.2701420628091429|-1.129150442227089|-1.565088272094727|0.3689592778682709|-0.2661067545413971|0.07889486849308014|0.06706613302230835|-0.06838852167129517|XArbitraryZVertical|-0.5421765455662647|-0.009012756925099516|-0.09130922808278122|0.8352401944063491|-0.1140670776367188|0.9040493965148926|-0.4119267165660858|0|0|0|-1|-1|3
2021-04-22 21:21:25.657 +0100|139171.44866475|-0.0300140380859375|0.981353759765625|-0.4562530517578125|139171.44367475|-0.4186832656590522|-0.2897326553376296|-1.157488752289081|-1.497896194458008|0.3128344416618347|-0.05359287932515144|0.09472700208425522|0.07745867967605591|-0.06135690212249756|XArbitraryZVertical|-0.5545419457938057|-0.005733671802677493|-0.09491357912447573|0.826705528842214|-0.1147472411394119|0.9157973527908325|-0.3849007189273834|0|0|0|-1|-1|3
2021-04-22 21:21:25.677 +0100|139171.46862475|-0.008697509765625|1.01239013671875|-0.3948516845703125|139171.46363475|-0.4413993333937693|-0.3041323991321904|-1.182852146786733|-1.270710468292236|0.2753275036811829|-0.05539166927337646|0.07495301216840744|0.08377224206924438|-0.07944169640541077|XArbitraryZVertical|-0.565272279809455|-0.00205607699327935|-0.09722335758858117|0.8191525873740731|-0.1132838204503059|0.9256886839866638|-0.3609260320663452|0|0|0|-1|-1|3
2021-04-22 21:21:25.697 +0100|139171.48858475|-0.027740478515625|0.98175048828125|-0.394622802734375|139171.48359475|-0.4631341037922299|-0.3193274643771752|-1.20573652647081|-1.155809998512268|0.2412226349115372|-0.01840116083621979|0.1002934649586678|0.07831853628158569|-0.05140718817710876|XArbitraryZVertical|-0.5749089168231539|0.001011359616421926|-0.0988998837405828|0.8122176746488441|-0.1120739653706551|0.9341024160385132|-0.3389574289321899|0|0|0|-1|-1|3
2021-04-22 21:21:25.717 +0100|139171.50854575|-0.0219573974609375|0.962677001953125|-0.3673553466796875|139171.50355575|-0.4821365605822545|-0.3323656470324909|-1.227267891096809|-1.098840117454529|0.2296709567308426|0.07067722827196121|0.08395425230264664|0.02075415849685669|-0.06644681096076965|XArbitraryZVertical|-0.5837743330230012|0.004253281051050418|-0.09999483869569915|0.8057235871073065|-0.1098949015140533|0.9415721297264099|-0.3183788657188416|0|0|0|-1|-1|3
2021-04-22 21:21:25.736 +0100|139171.52850575|-0.021392822265625|1.0228271484375|-0.3477935791015625|139171.52351575|-0.497717435432991|-0.3428715362999865|-1.247368948577934|-0.9247732758522034|0.191845715045929|0.1154863387346268|0.08646190166473389|0.02749568223953247|-0.06029877066612244|XArbitraryZVertical|-0.5918476640097965|0.007523327933859984|-0.100432679721752|0.7997332657705649|-0.106848381459713|0.948151707649231|-0.2993194758892059|0|0|0|-1|-1|3
2021-04-22 21:21:25.757 +0100|139171.54846675|-0.02734375|1.039535522460938|-0.3213348388671875|139171.54347575|-0.5070415898765459|-0.3477940838356232|-1.263202776348049|-0.6611759066581726|0.198111429810524|0.1469886004924774|0.07721906900405884|0.08007746934890747|-0.05454796552658081|XArbitraryZVertical|-0.5979687624525611|0.01067699601413169|-0.1004812900368379|0.7951245139876976|-0.1031902655959129|0.9530649185180664|-0.2846387326717377|0|0|0|-1|-1|3
2021-04-22 21:21:25.777 +0100|139171.56842675|-0.0269775390625|1.056610107421875|-0.305908203125|139171.56343675|-0.5100769477212435|-0.3469123870526183|-1.274894346428369|-0.4937777519226074|0.1739072948694229|0.160087525844574|0.07340145111083984|0.08934390544891357|-0.0398547351360321|XArbitraryZVertical|-0.6022434259520913|0.01368363102450806|-0.1003041285232542|0.7918678901560311|-0.09914375096559525|0.956539511680603|-0.2742312252521515|0|0|0|-1|-1|3
2021-04-22 21:21:25.815 +0100|139171.58838675|-0.0269317626953125|1.062515258789062|-0.2906951904296875|139171.58339675|-0.5096165357814451|-0.3433209346676888|-1.284293926396778|-0.3932977914810181|0.1290836930274963|0.1763468384742737|0.06816444545984268|0.1000120043754578|-0.03790783882141113|XArbitraryZVertical|-0.6055397925369069|0.01636713169192904|-0.09988305751094044|0.7893523862033097|-0.09512746334075928|0.9592381715774536|-0.2661073505878448|0|0|0|-1|-1|3
2021-04-22 21:21:25.816 +0100|139171.60834775|-0.038299560546875|1.060989379882812|-0.2867279052734375|139171.60335775|-0.5055872419336498|-0.3376199384085453|-1.291669920566681|-0.2697041034698486|0.06468237936496735|0.1792115271091461|0.06147676706314087|0.09935742616653442|-0.03015217185020447|XArbitraryZVertical|-0.6080108626980871|0.01848507283806258|-0.09899266823876096|0.7875161280143789|-0.09126264601945877|0.9612964987754822|-0.2599621713161469|0|0|0|-1|-1|3
2021-04-22 21:21:25.836 +0100|139171.62830775|-0.0389862060546875|1.01318359375|-0.302398681640625|139171.62331775|-0.4995178754614008|-0.330893708401682|-1.297159632569943|-0.2273048311471939|0.02243697457015514|0.160998061299324|0.04862619191408157|0.09467035531997681|-0.03499668836593628|XArbitraryZVertical|-0.6097612434338766|0.02008720919123756|-0.09789386712301469|0.7862599384501107|-0.08779623359441757|0.9627944827079773|-0.2555754482746124|0|0|0|-1|-1|3
2021-04-22 21:21:25.856 +0100|139171.64826775|-0.0400543212890625|0.968902587890625|-0.28192138671875|139171.64327775|-0.4910668753129891|-0.3225338126996665|-1.303189534964288|-0.300761878490448|-0.006829566787928343|0.2414178997278214|0.04667428135871887|0.03101617097854614|-0.04677098989486694|XArbitraryZVertical|-0.6116665957660871|0.02165855886974337|-0.09630732255561011|0.7849331078850583|-0.08381490409374237|0.9644064903259277|-0.2507897615432739|0|0|0|-1|-1|3
2021-04-22 21:21:25.876 +0100|139171.66822875|-0.0311737060546875|0.990142822265625|-0.2579345703125|139171.66323875|-0.4816532953313739|-0.3141671793266544|-1.311317367325786|-0.31645867228508|-0.04572109133005142|0.2633797526359558|0.04126303642988205|-0.004136443138122559|-0.03498715162277222|XArbitraryZVertical|-0.6143714841906662|0.02320014527336366|-0.09409783854003204|0.7830422261180988|-0.07928866893053055|0.9665238261222839|-0.2440188676118851|0|0|0|-1|-1|3
2021-04-22 21:21:25.896 +0100|139171.68818875|-0.0426483154296875|0.938018798828125|-0.226898193359375|139171.68319875|-0.4749556000562044|-0.3094737249168104|-1.320547378033477|-0.4615682065486908|-0.09887570887804031|0.1889744848012924|0.0395633727312088|0.01729446649551392|-0.0049477219581604|XArbitraryZVertical|-0.6176337260918654|0.02425234833384468|-0.09171375088141316|0.7807234388034725|-0.0754222571849823|0.9688507914543152|-0.2358808070421219|0|0|0|-1|-1|3
2021-04-22 21:21:25.916 +0100|139171.70814875|-0.039031982421875|0.9395751953125|-0.22503662109375|139171.70315875|-0.4721508817029171|-0.3097853945792221|-1.332020501980603|-0.6075078248977661|-0.1775481551885605|0.2049896717071533|0.02405156940221786|-0.04883748292922974|-0.01134632527828217|XArbitraryZVertical|-0.6218965419645105|0.02483887113468394|-0.0890283991567701|0.7776257315140397|-0.07210221886634827|0.9716282486915588|-0.2252554446458817|0|0|0|-1|-1|3
2021-04-22 21:21:25.936 +0100|139171.72810975|-0.0264739990234375|1.000259399414062|-0.216552734375|139171.72311975|-0.4653941226816658|-0.3069078784464133|-1.343573522088038|-0.5577922463417053|-0.2154495120048523|0.227530837059021|0.03540339320898056|-0.01459395885467529|-0.01332521438598633|XArbitraryZVertical|-0.6260832428290775|0.02542237256684933|-0.0858052480987883|0.7746038906039987|-0.06805791705846786|0.9742957949638367|-0.2147469520568848|0|0|0|-1|-1|3
2021-04-22 21:21:25.956 +0100|139171.74806975|-0.018951416015625|0.995635986328125|-0.223419189453125|139171.74307975|-0.4506352489371707|-0.2959948699129374|-1.353863601165783|-0.5193669199943542|-0.2121943235397339|0.3090458810329437|0.03762005269527435|0.01918083429336548|-0.01383453607559204|XArbitraryZVertical|-0.62957615317976|0.02638105769333316|-0.08221524226775716|0.772126114290917|-0.06278250366449356|0.9765622019767761|-0.2058758139610291|0|0|0|-1|-1|3
2021-04-22 21:21:25.976 +0100|139171.76803075|-0.026611328125|1.06036376953125|-0.2070159912109375|139171.76303975|-0.4355700765018523|-0.2878862466911799|-1.363939322389401|-0.3846783041954041|-0.3016650676727295|0.2916690707206726|0.03840101137757301|0.01733648777008057|-0.02637785673141479|XArbitraryZVertical|-0.6331307297748135|0.0260520134097212|-0.07772367742180758|0.7696921892176289|-0.05831443518400192|0.9786812663078308|-0.1969335377216339|0|0|0|-1|-1|3
2021-04-22 21:21:25.996 +0100|139171.78799075|-0.0171356201171875|1.049774169921875|-0.2539520263671875|139171.78300075|-0.4165650740714473|-0.2752364161363368|-1.368710269094693|-0.0928514152765274|-0.3366302251815796|0.1864692568778992|0.02689911052584648|0.1017557382583618|-0.0379500687122345|XArbitraryZVertical|-0.6346424722897893|0.02548812822058029|-0.07385389930464499|0.7688464429250301|-0.054548729211092|0.9796500205993652|-0.1931585818529129|0|0|0|-1|-1|3
2021-04-22 21:21:26.016 +0100|139171.80795075|-0.049652099609375|1.062545776367188|-0.2894134521484375|139171.80296075|-0.395104994477594|-0.2615489974623745|-1.367393232794835|0.2116755396127701|-0.472021222114563|0.1184348985552788|0.03619598969817162|0.07428061962127686|-0.07415199279785156|XArbitraryZVertical|-0.6339297482894628|0.02379078190316428|-0.07008970396488559|0.7698406949326455|-0.05223367363214493|0.9793848395347595|-0.1951341480016708|0|0|0|-1|-1|3
2021-04-22 21:21:26.036 +0100|139171.82791175|-0.089691162109375|1.094619750976562|-0.3165283203125|139171.82292175|-0.3717996522585811|-0.2476127400843056|-1.360028932996004|0.5994575619697571|-0.4273948669433594|0.09217994660139084|-0.01127096265554428|0.08081483840942383|-0.08848999440670013|XArbitraryZVertical|-0.6309877299400949|0.02096566499402194|-0.06630443907306872|0.772669876406023|-0.05127549916505814|0.9778706431388855|-0.2028298527002335|0|0|0|-1|-1|3
2021-04-22 21:21:26.056 +0100|139171.84787175|-0.1102752685546875|1.065567016601562|-0.3225860595703125|139171.84288175|-0.3473964395466348|-0.2324271893927475|-1.344517357949449|1.013880848884583|-0.4387288391590118|-0.01068580616265535|-0.04555212333798409|0.1277109384536743|-0.1003431677818298|XArbitraryZVertical|-0.6249255765038395|0.01754445647592225|-0.0631868100463138|0.777925279324699|-0.05167755484580994|0.9745079874992371|-0.2183204293251038|0|0|0|-1|-1|3
2021-04-22 21:21:26.076 +0100|139171.86783175|-0.0815887451171875|0.9887237548828125|-0.311798095703125|139171.86284175|-0.3273704976746087|-0.2207429945774164|-1.322364861274984|1.248724460601807|-0.3683021366596222|-0.02794877253472805|-0.04909888654947281|0.07484465837478638|-0.06897974014282227|XArbitraryZVertical|-0.6163227669361405|0.01368007113770739|-0.06110053638316128|0.7850006715850077|-0.05383757501840591|0.96929931640625|-0.2399182021617889|0|0|0|-1|-1|3
2021-04-22 21:21:26.096 +0100|139171.88779275|-0.077301025390625|0.936492919921875|-0.304107666015625|139171.88280275|-0.3075271826585777|-0.2093894692249665|-1.296752938354212|1.347856521606445|-0.4313015341758728|-0.01172328554093838|-0.02313901484012604|0.008903920650482178|-0.04775315523147583|XArbitraryZVertical|-0.6062580317996024|0.009671424838060673|-0.05904440409690062|0.7930141826576536|-0.05625313520431519|0.9626845121383667|-0.264715313911438|0|0|0|-1|-1|3
2021-04-22 21:21:26.116 +0100|139171.90775275|-0.080047607421875|0.87603759765625|-0.3131866455078125|139171.90276275|-0.2889087740499541|-0.2002799545100167|-1.271405186298223|1.256590008735657|-0.4570020735263824|-0.001907140016555786|-0.01763366162776947|-0.03756242990493774|-0.00775456428527832|XArbitraryZVertical|-0.59619531890301|0.00543693117991725|-0.05651194124598214|0.8008296182286442|-0.05867619812488556|0.9555162191390991|-0.2890431582927704|0|0|0|-1|-1|3
2021-04-22 21:21:26.136 +0100|139171.92771275|-0.078155517578125|0.8364105224609375|-0.3354644775390625|139171.92272275|-0.2762326196776356|-0.1975818231128746|-1.248579979369822|1.027224779129028|-0.4807290136814117|-0.06300245225429535|-0.01639102399349213|-0.08319443464279175|-0.003272145986557007|XArbitraryZVertical|-0.5871499302640139|0.0008187062759761966|-0.05406145368803907|0.807670518774532|-0.06216186657547951|0.9485359191894531|-0.3105085790157318|0|0|0|-1|-1|3
2021-04-22 21:21:26.156 +0100|139171.94767375|-0.094451904296875|0.7971038818359375|-0.342498779296875|139171.94268375|-0.2711069801838339|-0.2030548065417426|-1.230581782710722|0.7434549331665039|-0.5322709083557129|-0.1205010712146759|-0.01629562675952911|-0.1092628836631775|-0.02567338943481445|XArbitraryZVertical|-0.5801409218987196|-0.004406414947897189|-0.05182285193054351|0.8128540553914367|-0.06729266047477722|0.9426831007003784|-0.3268342018127441|0|0|0|-1|-1|3
2021-04-22 21:21:26.176 +0100|139171.96763375|-0.102691650390625|0.8488616943359375|-0.35272216796875|139171.96264375|-0.2705290554742441|-0.213376376837511|-1.217296277219472|0.6177976131439209|-0.5266456604003906|-0.1438546925783157|-0.02091545611619949|-0.1315258145332336|-0.006438523530960083|XArbitraryZVertical|-0.5750961191903389|-0.00990069187308433|-0.04967868998317913|0.8165161245427567|-0.07330819219350815|0.9381667971611023|-0.338332861661911|0|0|0|-1|-1|3
2021-04-22 21:21:26.195 +0100|139171.98759475|-0.099822998046875|0.8266754150390625|-0.3100128173828125|139171.98260475|-0.2706998819591068|-0.2231726946608312|-1.202968364664005|0.7171140909194946|-0.3930644094944|-0.1612136214971542|-0.0275006964802742|-0.07896900177001953|-0.007008284330368042|XArbitraryZVertical|-0.5695930817416434|-0.01509057332585256|-0.0481274861508796|0.8203778810115727|-0.07958611100912094|0.9331105947494507|-0.3506719768047333|0|0|0|-1|-1|3
2021-04-22 21:21:26.215 +0100|139172.00755475|-0.0667724609375|0.833038330078125|-0.34271240234375|139172.00256475|-0.2714747229180586|-0.2306068634905606|-1.188615762141522|0.6970089077949524|-0.3122453689575195|-0.1718629002571106|-0.003517575562000275|-0.1151547431945801|0.04392048716545105|XArbitraryZVertical|-0.5640000622608913|-0.0191769283626756|-0.04754687114053222|0.8241818400462937|-0.08524342626333237|0.9278535842895508|-0.3630723357200623|0|0|0|-1|-1|3
2021-04-22 21:21:26.235 +0100|139172.02751475|-0.063018798828125|0.871917724609375|-0.3469085693359375|139172.02252475|-0.27237565910348|-0.2373640750210265|-1.174487301892724|0.6774956583976746|-0.281389981508255|-0.209919735789299|0.02237788587808609|-0.07665121555328369|0.03533470630645752|XArbitraryZVertical|-0.5584590237591008|-0.02295973943895376|-0.0472309702566834|0.8278681446704532|-0.09076839685440063|0.9224920272827148|-0.3751927316188812|0|0|0|-1|-1|3
2021-04-22 21:21:26.255 +0100|139172.04747575|-0.05450439453125|0.8664398193359375|-0.3433837890625|139172.04248575|-0.2763531881801364|-0.2466674514364589|-1.161237713540519|0.5763548016548157|-0.302922785282135|-0.2567479312419891|0.0386214405298233|-0.03427016735076904|0.04604938626289368|XArbitraryZVertical|-0.5533539898902443|-0.02689986691659977|-0.04745150772648896|0.8311583268924203|-0.09723106026649475|0.9172966480255127|-0.386151522397995|0|0|0|-1|-1|3
2021-04-22 21:21:26.275 +0100|139172.06743575|-0.045379638671875|0.88470458984375|-0.3431549072265625|139172.06244575|-0.2824552824051211|-0.2587054278837237|-1.149080464296087|0.5152949094772339|-0.3496516346931458|-0.2868049144744873|0.05054843425750732|-0.03464102745056152|0.04519641399383545|XArbitraryZVertical|-0.5487848513936746|-0.03134746932374136|-0.04776881428260291|0.8340088070863447|-0.1047177314758301|0.9123879075050354|-0.3957050442695618|0|0|0|-1|-1|3
2021-04-22 21:21:26.295 +0100|139172.08739575|-0.050262451171875|0.87628173828125|-0.3834381103515625|139172.08240575|-0.2905331994192775|-0.273977574113649|-1.138904005420913|0.3843444883823395|-0.445387214422226|-0.2903175354003906|0.06792044639587402|-0.03029102087020874|0.05318617820739746|XArbitraryZVertical|-0.5451423728358563|-0.03648248553754344|-0.04791705415896724|0.8361774658021692|-0.1132548972964287|0.9081752896308899|-0.4029776453971863|0|0|0|-1|-1|3
2021-04-22 21:21:26.315 +0100|139172.107356875|-0.0661468505859375|0.8857879638671875|-0.420928955078125|139172.10236675|-0.2977161350995173|-0.2900556769648612|-1.130453125045648|0.3689168095588684|-0.5034616589546204|-0.2346424758434296|0.06839677691459656|-0.03364855051040649|0.01795816421508789|XArbitraryZVertical|-0.5422230682946644|-0.04209136474006013|-0.04737735061512062|0.8378413189954059|-0.1219099536538124|0.9046054482460022|-0.4084449112415314|0|0|0|-1|-1|3
2021-04-22 21:21:26.335 +0100|139172.127316875|-0.0799102783203125|0.88031005859375|-0.44696044921875|139172.122326875|-0.3007223620264955|-0.3030171925051475|-1.121139754935982|0.5046031475067139|-0.513994038105011|-0.1615705639123917|0.06028926372528076|-0.01731044054031372|-0.01281845569610596|XArbitraryZVertical|-0.5387965293561574|-0.04765876394813364|-0.04607691411626152|0.8398238638266383|-0.129702091217041|0.9005964398384094|-0.4148538708686829|0|0|0|-1|-1|3
2021-04-22 21:21:26.355 +0100|139172.147277875|-0.088531494140625|0.8565673828125|-0.4530792236328125|139172.142287875|-0.2964156910795854|-0.3088612329914538|-1.110154971006133|0.6394737958908081|-0.480432003736496|-0.05777528509497643|0.05298471450805664|-0.01800531148910522|-0.02786579728126526|XArbitraryZVertical|-0.5343319920895342|-0.05239509388018287|-0.04382721168456437|0.8425101431671589|-0.1351233571767807|0.8957675695419312|-0.4234881401062012|0|0|0|-1|-1|3
2021-04-22 21:21:26.375 +0100|139172.167237875|-0.08245849609375|0.845703125|-0.4444122314453125|139172.162247875|-0.2860990996832616|-0.3086242956710081|-1.099612870207853|0.6249265074729919|-0.4747306704521179|0.01122046913951635|0.04883298277854919|-0.03545570373535156|-0.02197319269180298|XArbitraryZVertical|-0.5297221588519168|-0.05610366880143156|-0.04061626278750666|0.84533856141022|-0.1378838568925858|0.8910316824913025|-0.4324936270713806|0|0|0|-1|-1|3
2021-04-22 21:21:26.395 +0100|139172.187197875|-0.0787200927734375|0.841949462890625|-0.4360504150390625|139172.182207875|-0.2741940844619091|-0.3071024349000363|-1.090060289214865|0.5402280688285828|-0.5086183547973633|0.04295798018574715|0.05872175097465515|-0.0506862998008728|-0.0009444355964660645|XArbitraryZVertical|-0.5254110097952244|-0.0595398783089759|-0.03694018206872892|0.8479586523655301|-0.139792263507843|0.886654794216156|-0.4407965540885925|0|0|0|-1|-1|3
2021-04-22 21:21:26.415 +0100|139172.207158875|-0.0648345947265625|0.81573486328125|-0.4339599609375|139172.202168875|-0.2647092086083869|-0.3088171498020074|-1.082742535628193|0.3454777300357819|-0.5828406810760498|0.02416671626269817|0.06716763973236084|-0.04511183500289917|0.02170836925506592|XArbitraryZVertical|-0.5221212960501462|-0.0634547959463152|-0.03319227305192304|0.8498595516166612|-0.1425161212682724|0.8832471370697021|-0.4467256963253021|0|0|0|-1|-1|3
2021-04-22 21:21:26.435 +0100|139172.227118875|-0.083282470703125|0.844390869140625|-0.4258270263671875|139172.222128875|-0.2581385532601886|-0.3150411370070904|-1.077771479722687|0.2229388207197189|-0.6689707636833191|-0.004939591977745295|0.07911647856235504|-0.05409204959869385|0.01848149299621582|XArbitraryZVertical|-0.5199400915919823|-0.06828436800057763|-0.02926980653083303|0.8509659167416838|-0.1466524302959442|0.8809052705764771|-0.4499990940093994|0|0|0|-1|-1|3
2021-04-22 21:21:26.455 +0100|139172.247079875|-0.0979461669921875|0.8872833251953125|-0.4046478271484375|139172.242088875|-0.2545314572432004|-0.3256922697270032|-1.073404479105053|0.2098089456558228|-0.7644198536872864|-0.07577772438526154|0.06897144019603729|-0.01667743921279907|0.02309784293174744|XArbitraryZVertical|-0.518143972241589|-0.0741678693596399|-0.02540795554965139|0.8516927201512369|-0.1526664197444916|0.8788300156593323|-0.4520519077777863|0|0|0|-1|-1|3
2021-04-22 21:21:26.475 +0100|139172.267039875|-0.1123199462890625|0.879547119140625|-0.3572998046875|139172.262049875|-0.254935208934512|-0.3416731472410177|-1.069222272875808|0.1341620832681656|-0.8595954179763794|-0.2042200267314911|0.05644041299819946|0.006886482238769531|0.05575215816497803|XArbitraryZVertical|-0.5166121161109738|-0.08127143833952333|-0.02187575797748909|0.8520731072313842|-0.1611009836196899|0.8768268227577209|-0.4530137479305267|0|0|0|-1|-1|3
2021-04-22 21:21:26.495 +0100|139172.286999875|-0.111419677734375|0.8808441162109375|-0.322998046875|139172.282009875|-0.2625249963621085|-0.3663471528694227|-1.066817102209646|0.02384848706424236|-1.025985360145569|-0.3630871772766113|0.06163950264453888|-0.007610142230987549|0.1075319051742554|XArbitraryZVertical|-0.5161927476409384|-0.09005874840517795|-0.01899587643677089|0.851512706110133|-0.1729834079742432|0.8756678700447083|-0.4508689343929291|0|0|0|-1|-1|3
2021-04-22 21:21:26.515 +0100|139172.306960875|-0.1065826416015625|0.8299560546875|-0.2189178466796875|139172.301970875|-0.2768125707019242|-0.4004201170378603|-1.065335392120685|-0.1191780939698219|-1.281634330749512|-0.516872763633728|0.07572562992572784|-0.0004239082336425781|0.1589680910110474|XArbitraryZVertical|-0.5165661977751804|-0.1010201905130707|-0.01644687204183016|0.8501081893431898|-0.1887479722499847|0.8749513626098633|-0.4459085762500763|0|0|0|-1|-1|3
2021-04-22 21:21:26.535 +0100|139172.326920875|-0.1011962890625|0.7829132080078125|-0.1222686767578125|139172.321930875|-0.299248487793414|-0.4487117378062031|-1.064789455879209|-0.2286470234394073|-1.629033803939819|-0.5667405128479004|0.1050200462341309|-0.05922621488571167|0.2554342150688171|XArbitraryZVertical|-0.5179212031983247|-0.1157748536482938|-0.0135481432598165|0.8474493440626998|-0.2102603912353516|0.8746868968009949|-0.436707615852356|0|0|0|-1|-1|3
2021-04-22 21:21:26.555 +0100|139172.346880875|-0.1163787841796875|0.7588348388671875|-0.2210540771484375|139172.341890875|-0.3247782195222134|-0.5055066121109132|-1.064716624550797|-0.2716734111309052|-1.787298679351807|-0.5342953205108643|0.1328276842832565|-0.09890961647033691|0.3021155893802643|XArbitraryZVertical|-0.5198100362334294|-0.1331751457078888|-0.009618690534869249|0.8437828017054962|-0.2347415834665298|0.8746516108512878|-0.4241238236427307|0|0|0|-1|-1|3
2021-04-22 21:21:26.575 +0100|139172.366841875|-0.11785888671875|0.756317138671875|-0.3396759033203125|139172.361851875|-0.3460589471094324|-0.5594324749155031|-1.062108457251838|-0.01909413561224937|-1.735408425331116|-0.515087902545929|0.1387951970100403|-0.1185469031333923|0.1561808288097382|XArbitraryZVertical|-0.5204767335073698|-0.1507002186194078|-0.004953157180815228|0.8404575419196434|-0.2584702670574188|0.8733842968940735|-0.4127868413925171|0|0|0|-1|-1|3
2021-04-22 21:21:26.595 +0100|139172.386801875|-0.114776611328125|0.7676544189453125|-0.335906982421875|139172.381811875|-0.3587096091918231|-0.6033653741888836|-1.052759202185682|0.4560313522815704|-1.567028760910034|-0.5263652205467224|0.1650954782962799|-0.1079128384590149|0.05128353834152222|XArbitraryZVertical|-0.5178520229749678|-0.167205735786483|-0.0003956606493315316|0.8389704934561307|-0.2809711396694183|0.8687928318977356|-0.4077430367469788|0|0|0|-1|-1|3
2021-04-22 21:21:26.615 +0100|139172.406762875|-0.14080810546875|0.8424530029296875|-0.2171478271484375|139172.401771875|-0.3619809115047354|-0.6344569171253266|-1.03728104343399|0.7089519500732422|-1.234871983528137|-0.5026441216468811|0.1824575066566467|-0.07205325365066528|0.1051972210407257|XArbitraryZVertical|-0.5120388607143005|-0.1817123056910921|0.003568309663012855|0.8395142485264359|-0.3014459013938904|0.8610246777534485|-0.4095936715602875|0|0|0|-1|-1|3
2021-04-22 21:21:26.635 +0100|139172.426722875|-0.192108154296875|1.033905029296875|-0.1234893798828125|139172.421732875|-0.3583112647450224|-0.6531496900411303|-1.017768930903032|1.110550999641418|-0.9134042859077454|-0.5096770524978638|0.1708529889583588|0.03477400541305542|0.2351008653640747|XArbitraryZVertical|-0.5039898630075959|-0.1934373229287782|0.006399601661157362|0.8417454945156846|-0.3191993236541748|0.8509382605552673|-0.4171524345874786|0|0|0|-1|-1|3
2021-04-22 21:21:26.655 +0100|139172.446682875|-0.2431793212890625|1.166824340820312|0.025848388671875|139172.441692875|-0.3436736355218672|-0.6548967246034793|-0.9907696278846445|1.399305582046509|-0.5413130521774292|-0.5496442914009094|0.1339121758937836|0.2473538517951965|0.3542488217353821|XArbitraryZVertical|-0.4918674297638496|-0.2018306610481981|0.008197167538048925|0.8469143188534557|-0.3338027000427246|0.8364480137825012|-0.4346616268157959|0|0|0|-1|-1|3
2021-04-22 21:21:26.675 +0100|139172.466643875|-0.319580078125|1.235885620117188|0.05133056640625|139172.461653875|-0.3276450870446817|-0.6512730379309533|-0.9591610775412868|1.694731950759888|-0.38969486951828|-0.6366516947746277|0.08247387409210205|0.3590704798698425|0.4812571704387665|XArbitraryZVertical|-0.4775945495104751|-0.2087255425699558|0.008544998705083601|0.8533839248630265|-0.3480839431285858|0.8187101483345032|-0.456674188375473|0|0|0|-1|-1|3
2021-04-22 21:21:26.694 +0100|139172.486603875|-0.41412353515625|1.134552001953125|0.026275634765625|139172.481613875|-0.3109360457297203|-0.6456540600475743|-0.9236231731034624|1.758216738700867|-0.4166721105575562|-0.7022749185562134|0.03061366081237793|0.4321743845939636|0.5398260951042175|XArbitraryZVertical|-0.4614348633311542|-0.2151612685431133|0.008190508112112129|0.8606489098897832|-0.3627978563308716|0.7977913618087769|-0.481566995382309|0|0|0|-1|-1|3
2021-04-22 21:21:26.714 +0100|139172.506563875|-0.4986572265625|0.9117584228515625|-0.0261383056640625|139172.501573875|-0.2971671714117604|-0.6407050392838383|-0.8895196168670721|1.438910126686096|-0.1230481043457985|-0.6344339847564697|-0.07135426998138428|0.319544792175293|0.5506755709648132|XArbitraryZVertical|-0.4459348986203205|-0.2206821356686295|0.007153847693294458|0.8674044670810355|-0.3764610290527344|0.7767692804336548|-0.5048829317092896|0|0|0|-1|-1|3
2021-04-22 21:21:26.734 +0100|139172.526524875|-0.50189208984375|0.7441558837890625|-0.2250213623046875|139172.521534875|-0.2897780854936402|-0.6350611741591825|-0.8639917220907127|0.8487520217895508|0.07518859952688217|-0.5121609568595886|-0.1159752905368805|0.1046109795570374|0.4536440372467041|XArbitraryZVertical|-0.434524139031942|-0.2231386727500707|0.004788704160206671|0.8725680682284912|-0.3852457404136658|0.7604408860206604|-0.5227957963943481|0|0|0|-1|-1|3
2021-04-22 21:21:26.754 +0100|139172.546484875|-0.5208892822265625|0.5933380126953125|-0.39813232421875|139172.541494875|-0.2962503946047203|-0.6389858282891301|-0.851773048562514|-0.1515512466430664|-0.004788733553141356|-0.5685203075408936|-0.115784227848053|-0.04929327964782715|0.2519209384918213|XArbitraryZVertical|-0.4301401210535711|-0.2250109663387956|0.0007370819684473714|0.8742705759472371|-0.3928068280220032|0.7524493932723999|-0.5286991000175476|0|0|0|-1|-1|3
2021-04-22 21:21:26.774 +0100|139172.566445875|-0.5044097900390625|0.615325927734375|-0.5257415771484375|139172.561454875|-0.3232099401499597|-0.6604576677271301|-0.8550031232097597|-1.155200600624084|-0.131744921207428|-0.6360232830047607|-0.1172165274620056|-0.1681771278381348|0.08581900596618652|XArbitraryZVertical|-0.4345654346215747|-0.2281273489661891|-0.005824727580423715|0.8712502935502811|-0.4025744795799255|0.7545729875564575|-0.5182216167449951|0|0|0|-1|-1|3
2021-04-22 21:21:26.794 +0100|139172.586405875|-0.5244598388671875|0.7944793701171875|-0.6177520751953125|139172.581415875|-0.366904298302983|-0.698316990044428|-0.8705877658335101|-1.754417181015015|-0.3258331418037415|-0.5763524174690247|-0.08978527784347534|-0.1234414577484131|-0.05940207839012146|XArbitraryZVertical|-0.4461734054784101|-0.2327162832039964|-0.01359418632600119|0.8640530560018894|-0.4142891466617584|0.7647078037261963|-0.4935448467731476|0|0|0|-1|-1|3
2021-04-22 21:21:26.814 +0100|139172.606365875|-0.5643463134765625|1.037857055664062|-0.662139892578125|139172.601375875|-0.4156980768020772|-0.7433816653511677|-0.8906213954739302|-1.722078919410706|-0.4139692783355713|-0.4340393841266632|-0.108502060174942|0.08206528425216675|-0.1682168841362|XArbitraryZVertical|-0.460325022420801|-0.2379014163566859|-0.02044103044600287|0.8550356521029321|-0.4256474077701569|0.7774627208709717|-0.4630075693130493|0|0|0|-1|-1|3
2021-04-22 21:21:26.834 +0100|139172.626326875|-0.6328125|1.175689697265625|-0.6981353759765625|139172.621336875|-0.4587876105573693|-0.7856312360887755|-0.9079365351573403|-1.359722375869751|-0.4402214884757996|-0.3194807469844818|-0.1444760262966156|0.3001590371131897|-0.2347042560577393|XArbitraryZVertical|-0.4727471854170756|-0.2428855434168548|-0.02532128601329921|0.8466850679654502|-0.4352362453937531|0.788235604763031|-0.4350334107875824|0|0|0|-1|-1|3
2021-04-22 21:21:26.854 +0100|139172.646286875|-0.6721343994140625|1.1728515625|-0.7422027587890625|139172.641296875|-0.4915378068039006|-0.820389253521455|-0.9192117857353739|-0.8469667434692383|-0.4408740997314453|-0.2584667801856995|-0.2043109536170959|0.3922849893569946|-0.2951501309871674|XArbitraryZVertical|-0.4815290291475608|-0.2476904581374931|-0.02838054494499819|0.8402224873564728|-0.4435622990131378|0.7951238751411438|-0.4135584533214569|0|0|0|-1|-1|3
2021-04-22 21:21:26.874 +0100|139172.666246875|-0.7111358642578125|1.066299438476562|-0.769317626953125|139172.661256875|-0.5098829474852927|-0.8436576862442317|-0.9230102326908575|-0.2233662307262421|-0.4080909788608551|-0.2056684345006943|-0.2307752370834351|0.3524048328399658|-0.3483946323394775|XArbitraryZVertical|-0.485582590811104|-0.2522925810090613|-0.02958729188587702|0.8364704543523892|-0.450804740190506|0.7974216938018799|-0.4011160135269165|0|0|0|-1|-1|3
2021-04-22 21:21:26.894 +0100|139172.686207875|-0.721466064453125|0.871337890625|-0.7363433837890625|139172.681217875|-0.5133864283739971|-0.8532020945670455|-0.9203188264456192|0.1752817630767822|-0.2437326014041901|-0.1351674646139145|-0.2645063102245331|0.2282382845878601|-0.3642604351043701|XArbitraryZVertical|-0.4851680292127938|-0.2559483343997845|-0.02935344036323785|0.8356080889533143|-0.4562276899814606|0.7957947254180908|-0.3982048630714417|0|0|0|-1|-1|3
2021-04-22 21:21:26.914 +0100|139172.706167875|-0.6645050048828125|0.6881561279296875|-0.7008209228515625|139172.701177875|-0.5113722285853388|-0.853799342521217|-0.9156680037564289|0.2199560552835464|0.0250963531434536|-0.1222881376743317|-0.2556242942810059|0.02088868618011475|-0.3219746053218842|XArbitraryZVertical|-0.4831904647964613|-0.2575789902629882|-0.02943937469401436|0.8362496159388326|-0.4592503011226654|0.7929697632789612|-0.4003600776195526|0|0|0|-1|-1|3
2021-04-22 21:21:26.934 +0100|139172.726128875|-0.6142425537109375|0.611114501953125|-0.6425323486328125|139172.721138875|-0.5054221329497949|-0.8464701940157995|-0.9104501278082711|0.3638053238391876|0.230575904250145|-0.0308796688914299|-0.1877444684505463|-0.1238706707954407|-0.2901264131069183|XArbitraryZVertical|-0.4803707905234429|-0.2569400343685757|-0.0299124923218745|0.8380519519724835|-0.4593963623046875|0.7897799015045166|-0.4064514338970184|0|0|0|-1|-1|3
2021-04-22 21:21:26.954 +0100|139172.746088875|-0.578033447265625|0.592803955078125|-0.5518646240234375|139172.741098875|-0.4985426363101241|-0.8350086344657575|-0.9057989898516147|0.225325882434845|0.3534114360809326|-0.03617101535201073|-0.1497369110584259|-0.1867134571075439|-0.205385148525238|XArbitraryZVertical|-0.4775720097169048|-0.2546555140671489|-0.03082827445404491|0.8403126567474923|-0.4574259519577026|0.7869184017181396|-0.4141511023044586|0|0|0|-1|-1|3
2021-04-22 21:21:26.974 +0100|139172.766048875|-0.5543975830078125|0.6329803466796875|-0.4839630126953125|139172.761058875|-0.4977681398360457|-0.8269240489842581|-0.9038981833740394|-0.06434515118598938|0.3964706659317017|-0.07847622036933899|-0.1170728802680969|-0.1842116713523865|-0.1117298603057861|XArbitraryZVertical|-0.4766286723564809|-0.2517961131862844|-0.03285923941120691|0.8416318672712638|-0.4551625847816467|0.7857441306114197|-0.4188476502895355|0|0|0|-1|-1|3
2021-04-22 21:21:27.010 +0100|139172.786009875|-0.5144500732421875|0.661285400390625|-0.4586029052734375|139172.781019875|-0.5050050656983269|-0.824584250684111|-0.9053623196719982|-0.3575569987297058|0.3963134288787842|-0.1130285114049911|-0.09154027700424194|-0.1382262110710144|-0.05480676889419556|XArbitraryZVertical|-0.4780463957874778|-0.2488103068008149|-0.03613439846275511|0.8415816242846162|-0.4533362090587616|0.7866489291191101|-0.4191301465034485|0|0|0|-1|-1|3
2021-04-22 21:21:27.014 +0100|139172.805969875|-0.4855804443359375|0.6811370849609375|-0.4595947265625|139172.800979875|-0.5181135712284554|-0.8271107951675872|-0.9099423720341818|-0.5251342058181763|0.3934429883956909|-0.09153050184249878|-0.05654871463775635|-0.1234370470046997|-0.04036122560501099|XArbitraryZVertical|-0.4814376276939276|-0.2458615678262914|-0.04000846621634591|0.8403388220777942|-0.4517371952533722|0.7894683480262756|-0.4155398011207581|0|0|0|-1|-1|3
2021-04-22 21:21:27.034 +0100|139172.825930875|-0.466949462890625|0.7097625732421875|-0.4976348876953125|139172.820939875|-0.5322097857261587|-0.8305247108869194|-0.9162164285356625|-0.4857004880905151|0.3738977909088135|-0.02828202024102211|-0.02976098656654358|-0.1090839505195618|-0.05314356088638306|XArbitraryZVertical|-0.4855752333744148|-0.2426799974783682|-0.04367668612280374|0.8386987506220163|-0.4494874477386475|0.7933037877082825|-0.4106462299823761|0|0|0|-1|-1|3
2021-04-22 21:21:27.054 +0100|139172.845890875|-0.472442626953125|0.719085693359375|-0.464080810546875|139172.840900875|-0.5406645415991764|-0.8298388160425065|-0.9206253113936047|-0.2687210440635681|0.4261908233165741|-0.004463774152100086|-0.02531877160072327|-0.06403100490570068|-0.09877932071685791|XArbitraryZVertical|-0.4882181046119504|-0.2394750330596792|-0.04638220275627779|0.8379400948675312|-0.4466207325458527|0.7959802746772766|-0.4085895717144012|0|0|0|-1|-1|3
2021-04-22 21:21:27.074 +0100|139172.865850875|-0.455108642578125|0.7201385498046875|-0.4516754150390625|139172.860860875|-0.5470015398814788|-0.8260138424370234|-0.9199394055696789|-0.2404947429895401|0.4523365795612335|0.0119531936943531|-0.02190592885017395|-0.08293330669403076|-0.05362847447395325|XArbitraryZVertical|-0.4886252914897765|-0.2364590922842051|-0.05012846048543979|0.8383433932355562|-0.4454559087753296|0.7955648899078369|-0.4106648564338684|0|0|0|-1|-1|3
2021-04-22 21:21:27.094 +0100|139172.885811875|-0.46368408203125|0.769744873046875|-0.4178619384765625|139172.880821875|-0.5522524590914732|-0.8211405329501124|-0.9205947097461674|-0.1928576231002808|0.4633190333843231|0.06563009321689606|-0.01144623756408691|-0.07434272766113281|-0.02140703797340393|XArbitraryZVertical|-0.4893585840028456|-0.2330030368125182|-0.053372192947797|0.8386830837162106|-0.4430676996707916|0.7959617376327515|-0.4124755263328552|0|0|0|-1|-1|3
2021-04-22 21:21:27.114 +0100|139172.905771875|-0.4698333740234375|0.7966766357421875|-0.3733062744140625|139172.900781875|-0.5522660840582475|-0.810924164071928|-0.9204257423736133|0.01695366203784943|0.5676291584968567|0.09099084138870239|-0.03157702088356018|-0.009451448917388916|0.007574141025543213|XArbitraryZVertical|-0.4890181744346693|-0.2287457548427794|-0.05591511088311388|0.8398871480367953|-0.4389282464981079|0.7958594560623169|-0.4170732200145721|0|0|0|-1|-1|3
2021-04-22 21:21:27.133 +0100|139172.925731875|-0.44854736328125|0.7854766845703125|-0.3662872314453125|139172.920741875|-0.5473442775102548|-0.7949336321150774|-0.9183938520590019|0.1234697550535202|0.5847136378288269|0.09715162217617035|-0.03177762031555176|-0.003367364406585693|0.05139154195785522|XArbitraryZVertical|-0.4872466149673743|-0.2236198715899413|-0.05820320993040487|0.8421385812634111|-0.4333564639091492|0.7946275472640991|-0.4251697659492493|0|0|0|-1|-1|3
2021-04-22 21:21:27.153 +0100|139172.945692875|-0.4281158447265625|0.769195556640625|-0.35272216796875|139172.940702875|-0.5424880270327228|-0.7796774139176676|-0.9160368743318296|0.1102713569998741|0.5645886063575745|0.07510960847139359|-0.01688754558563232|-0.008083522319793701|0.0695531964302063|XArbitraryZVertical|-0.4853710390245816|-0.2188237638836172|-0.06038541120675664|0.8443251625464738|-0.428135484457016|0.7931944131851196|-0.4330622255802155|0|0|0|-1|-1|3
2021-04-22 21:21:27.173 +0100|139172.965652875|-0.39373779296875|0.7440948486328125|-0.35247802734375|139172.960662875|-0.5399910433893076|-0.7668855316565357|-0.9149992810057876|-0.01001656986773014|0.5195888876914978|0.08529309928417206|0.001942932605743408|-0.03984564542770386|0.08963996171951294|XArbitraryZVertical|-0.4843149931545152|-0.2142221767413889|-0.06265716091980894|0.8459445472697625|-0.4231317639350891|0.7925621271133423|-0.4390957057476044|0|0|0|-1|-1|3
2021-04-22 21:21:27.193 +0100|139172.985613875|-0.37371826171875|0.740509033203125|-0.352508544921875|139172.980623875|-0.5395031446244745|-0.7570784495035986|-0.9162096058297157|-0.02534141205251217|0.4850609600543976|0.1144963428378105|0.03060290217399597|-0.04715967178344727|0.09162133932113647|XArbitraryZVertical|-0.4844105023019903|-0.2099598661901678|-0.06456503886617322|0.846814574679534|-0.4181461036205292|0.7932996153831482|-0.442526638507843|0|0|0|-1|-1|3
2021-04-22 21:21:27.213 +0100|139173.005573875|-0.3343353271484375|0.7136383056640625|-0.3419342041015625|139173.000583875|-0.5409478542120353|-0.7494840135677043|-0.9194747952160209|-0.1723754107952118|0.4762109220027924|0.1454499065876007|0.04627618193626404|-0.06727087497711182|0.1017965972423553|XArbitraryZVertical|-0.4855529653751354|-0.2057739887448728|-0.06632010295210546|0.8470520144784074|-0.4130063951015472|0.795283317565918|-0.4437907636165619|0|0|0|-1|-1|3
2021-04-22 21:21:27.233 +0100|139173.025533875|-0.32745361328125|0.7783355712890625|-0.3602447509765625|139173.020543875|-0.5438895956324724|-0.7439222485440188|-0.9255176121309848|-0.2370366305112839|0.4047393798828125|0.2076495587825775|0.08169263601303101|-0.07975459098815918|0.1014274656772614|XArbitraryZVertical|-0.4879620872535584|-0.2015556805915785|-0.06763304874966172|0.8465778848508526|-0.4072698950767517|0.7989321947097778|-0.4425366222858429|0|0|0|-1|-1|3
2021-04-22 21:21:27.253 +0100|139173.045494875|-0.34637451171875|0.8117218017578125|-0.3500518798828125|139173.040504875|-0.5435574542826931|-0.7359702167826582|-0.9316600564890596|-0.2127472460269928|0.3842003643512726|0.2238401472568512|0.06744304299354553|-0.00782620906829834|0.08814334869384766|XArbitraryZVertical|-0.4899917111952757|-0.1971046980688303|-0.06813590179437609|0.8464133859948553|-0.4004361629486084|0.8026112914085388|-0.4421157240867615|0|0|0|-1|-1|3
2021-04-22 21:21:27.273 +0100|139173.065454875|-0.3553466796875|0.849090576171875|-0.3623046875|139173.060464875|-0.5423473031810013|-0.7275827568160685|-0.938120842199336|-0.207641988992691|0.3443019688129425|0.2592572569847107|0.04650035500526428|0.01774024963378906|0.08995446562767029|XArbitraryZVertical|-0.4920424059469143|-0.1926286669454791|-0.06832447463593706|0.8462389270967633|-0.3932568430900574|0.8064484000205994|-0.4415769279003143|0|0|0|-1|-1|3
2021-04-22 21:21:27.293 +0100|139173.085415875|-0.3704071044921875|0.854644775390625|-0.3690032958984375|139173.080424875|-0.5393202419400753|-0.7184014029722717|-0.9444355785657739|-0.1603996306657791|0.3494789004325867|0.2916045486927032|0.0257185697555542|0.0421442985534668|0.07842737436294556|XArbitraryZVertical|-0.4938425797444152|-0.1882989154843645|-0.06798976821816195|0.8461917141090214|-0.38582643866539|0.8101661801338196|-0.4413260519504547|0|0|0|-1|-1|3
2021-04-22 21:21:27.313 +0100|139173.10537625|-0.36395263671875|0.80426025390625|-0.37384033203125|139173.100385875|-0.5348144500783757|-0.7081176244157583|-0.9501205704433606|-0.1462493389844894|0.3289323747158051|0.2911258041858673|0.005386441946029663|0.03758913278579712|0.05684775114059448|XArbitraryZVertical|-0.4952402429861908|-0.1839962763384644|-0.0674523047653463|0.8463645577594026|-0.3782660365104675|0.8134856224060059|-0.4417649507522583|0|0|0|-1|-1|3
2021-04-22 21:21:27.333 +0100|139173.12533625|-0.3668060302734375|0.8180999755859375|-0.4045867919921875|139173.12034625|-0.5315473584061405|-0.6993892772200579|-0.9569530140913678|-0.2305277287960052|0.2511502206325531|0.2816750407218933|0.01002967357635498|-0.01566672325134277|0.06090426445007324|XArbitraryZVertical|-0.4972563610301472|-0.1798418708315795|-0.06683872680250735|0.8461239817580615|-0.370809018611908|0.8174402713775635|-0.4407860338687897|0|0|0|-1|-1|3
2021-04-22 21:21:27.353 +0100|139173.14529725|-0.3888702392578125|0.8199920654296875|-0.3996429443359375|139173.14030725|-0.5308235963769704|-0.6943923146889496|-0.9655024916668065|-0.3296960890293121|0.225826621055603|0.2789344787597656|-0.008091986179351807|-0.007240533828735352|0.03867307305335999|XArbitraryZVertical|-0.5002865800023423|-0.1763233022839045|-0.06604246745641293|0.8451401912000532|-0.3641161322593689|0.8223349452018738|-0.4372468590736389|0|0|0|-1|-1|3
2021-04-22 21:21:27.373 +0100|139173.16525725|-0.40814208984375|0.834381103515625|-0.3989410400390625|139173.16026725|-0.5321743949946757|-0.691707074792052|-0.97541259643637|-0.3450212478637695|0.2331143170595169|0.2623766958713531|-0.03709679841995239|0.002389311790466309|0.02363163232803345|XArbitraryZVertical|-0.5040880490994585|-0.1730103696189413|-0.06527976101537593|0.8436239525324827|-0.3577248752117157|0.8279333710670471|-0.4319252967834473|0|0|0|-1|-1|3
2021-04-22 21:21:27.393 +0100|139173.18521825|-0.3935546875|0.8291473388671875|-0.407928466796875|139173.18022725|-0.5346118858357948|-0.6889817177379287|-0.9848012428699434|-0.3434673845767975|0.2819137573242188|0.2390065789222717|-0.05731666088104248|-0.004243373870849609|0.02520814538002014|XArbitraryZVertical|-0.5077707298548124|-0.1694968206019961|-0.06509656018750555|0.8421414017836911|-0.3515888452529907|0.8331621885299683|-0.4268794357776642|0|0|0|-1|-1|3
2021-04-22 21:21:27.413 +0100|139173.20517825|-0.376953125|0.8143768310546875|-0.3953857421875|139173.20018825|-0.5371685928801296|-0.6855825032751655|-0.9930665302998931|-0.333502322435379|0.3219014406204224|0.220927894115448|-0.04364076256752014|-0.01057106256484985|0.01428103446960449|XArbitraryZVertical|-0.5110019671370559|-0.1658714746385741|-0.06536738584963936|0.8408869670327032|-0.3457640409469604|0.837704598903656|-0.4227272868156433|0|0|0|-1|-1|3
2021-04-22 21:21:27.433 +0100|139173.22513825|-0.353973388671875|0.8222503662109375|-0.389373779296875|139173.22014825|-0.5401082051067253|-0.6813203498877003|-1.000917804935904|-0.352054089307785|0.3768224716186523|0.2025001496076584|-0.03279858827590942|-0.03227376937866211|0.02716976404190063|XArbitraryZVertical|-0.5140667956712393|-0.1618567285498611|-0.06611044226550446|0.8397423929482718|-0.3398062884807587|0.8419665098190308|-0.4190754592418671|0|0|0|-1|-1|3
2021-04-22 21:21:27.453 +0100|139173.24509925|-0.3321380615234375|0.827392578125|-0.371978759765625|139173.24010925|-0.5447923665830202|-0.6779469667033423|-1.008041971468361|-0.3649415075778961|0.4045406877994537|0.1489926278591156|-0.01383018493652344|-0.02025729417800903|0.03116911649703979|XArbitraryZVertical|-0.517011400419222|-0.1578946113554697|-0.06750965680469412|0.8385769103325044|-0.3346200883388519|0.845788836479187|-0.4155369997024536|0|0|0|-1|-1|3
2021-04-22 21:21:27.473 +0100|139173.26505925|-0.31500244140625|0.8502349853515625|-0.355072021484375|139173.26006925|-0.552011616809621|-0.6767724201501362|-1.014623809469106|-0.385985255241394|0.3830422461032867|0.1037111654877663|0.003473877906799316|-0.01982909440994263|0.04302108287811279|XArbitraryZVertical|-0.520005291143166|-0.1542857572037149|-0.06951073257670501|0.8372328636758726|-0.3306381106376648|0.8492820262908936|-0.4115808010101318|0|0|0|-1|-1|3
2021-04-22 21:21:27.493 +0100|139173.28501925|-0.3142852783203125|0.8633270263671875|-0.3386077880859375|139173.28002925|-0.5600657819136929|-0.6768799648965858|-1.020843211461721|-0.3801658749580383|0.3520455062389374|0.08871925622224808|0.01402780413627625|0.001165330410003662|0.05584311485290527|XArbitraryZVertical|-0.5229491068218286|-0.1510440071369143|-0.07159228333206474|0.8358138358442878|-0.3273675739765167|0.8525490164756775|-0.407419890165329|0|0|0|-1|-1|3
2021-04-22 21:21:27.517 +0100|139173.30498025|-0.3170013427734375|0.88897705078125|-0.3623504638671875|139173.29999025|-0.5673044229344982|-0.6768525013047596|-1.026447580096875|-0.2522320449352264|0.2952960431575775|0.06586862355470657|0.01127815246582031|0.01221144199371338|0.06446534395217896|XArbitraryZVertical|-0.5255762978226615|-0.148056420034891|-0.07348303668425331|0.8345353521749721|-0.3243585228919983|0.8554647564888|-0.4036976993083954|0|0|0|-1|-1|3
2021-04-22 21:21:27.533 +0100|139173.32494025|-0.2871551513671875|0.8267669677734375|-0.35992431640625|139173.31995025|-0.5736092432344433|-0.6763241651296612|-1.031051940584246|-0.354900598526001|0.3143585920333862|0.04734749346971512|0.008763730525970459|0.01786220073699951|0.05483138561248779|XArbitraryZVertical|-0.5277275417007765|-0.1452831621086287|-0.07531238484371786|0.8335014253640005|-0.3216762840747833|0.8578400611877441|-0.4007928967475891|0|0|0|-1|-1|3
2021-04-22 21:21:27.552 +0100|139173.34490125|-0.28375244140625|0.8544158935546875|-0.4076690673828125|139173.33991125|-0.5841012154397937|-0.6804113273620861|-1.038140949310619|-0.4808630049228668|0.1844910085201263|0.02496788464486599|0.04056179523468018|-0.034343421459198|0.02205803990364075|XArbitraryZVertical|-0.5312570174668897|-0.1428186080794087|-0.07714345779272787|0.8315153135714048|-0.3194777369499207|0.8614616394042969|-0.3947376608848572|0|0|0|-1|-1|3
2021-04-22 21:21:27.573 +0100|139173.36486125|-0.33355712890625|0.8730621337890625|-0.3914642333984375|139173.35987125|-0.5955760607741893|-0.6879067326678151|-1.04564963295896|-0.4723737835884094|0.1368449330329895|0.008359702304005623|0.02024579048156738|0.004165172576904297|-0.03668650984764099|XArbitraryZVertical|-0.5351166832000256|-0.1413799901414537|-0.07835246590278835|0.8291699521135272|-0.3183115124702454|0.8652504086494446|-0.3873236775398254|0|0|0|-1|-1|3
2021-04-22 21:21:27.592 +0100|139173.38482125|-0.3471527099609375|0.924591064453125|-0.4281768798828125|139173.37983125|-0.6076411077240272|-0.6960656529225576|-1.053123377533284|-0.3829135000705719|0.1228686198592186|0.01435341127216816|-0.02037185430526733|0.005264341831207275|-0.0294988751411438|XArbitraryZVertical|-0.539005375036141|-0.1400100224128044|-0.07958695617020242|0.8267626618837316|-0.317305713891983|0.8689730763435364|-0.3797408044338226|0|0|0|-1|-1|3
2021-04-22 21:21:27.612 +0100|139173.40478225|-0.350738525390625|0.9106903076171875|-0.4344635009765625|139173.39979225|-0.6155688352367229|-0.7000758665598757|-1.058396472159468|-0.2380000352859497|0.1852817088365555|0.005201103631407022|-0.03691428899765015|0.05360084772109985|-0.05320489406585693|XArbitraryZVertical|-0.5416221674450592|-0.138447030456819|-0.08065917837453364|0.8252103978773315|-0.3158694505691528|0.8715704679489136|-0.3749556839466095|0|0|0|-1|-1|3
2021-04-22 21:21:27.632 +0100|139173.42474225|-0.325225830078125|0.874176025390625|-0.4362640380859375|139173.41975225|-0.6215742598090487|-0.7016394853224356|-1.061903659903169|-0.2448765188455582|0.1495572775602341|-0.01892109960317612|-0.0292702317237854|0.02529060840606689|-0.06528311967849731|XArbitraryZVertical|-0.543359853862281|-0.136740389508832|-0.08196320687660195|0.8242234888999694|-0.3144803047180176|0.8732845187187195|-0.3721242845058441|0|0|0|-1|-1|3
2021-04-22 21:21:27.652 +0100|139173.44470325|-0.3199615478515625|0.8821258544921875|-0.430145263671875|139173.43971325|-0.6273230251494681|-0.7036467706627552|-1.065056420423811|-0.245049849152565|0.1149440556764603|-0.02955510281026363|-0.01021093130111694|-0.0003346800804138184|-0.0664445161819458|XArbitraryZVertical|-0.5449632449808729|-0.1353493972266783|-0.08310936400311711|0.8232792537817715|-0.3134438097476959|0.8748162388801575|-0.3693912029266357|0|0|0|-1|-1|3
2021-04-22 21:21:27.672 +0100|139173.46466325|-0.31280517578125|0.8895111083984375|-0.4342193603515625|139173.45967325|-0.6334135220594433|-0.706548919819009|-1.067307324074026|-0.1668047159910202|0.1249648332595825|-0.01937649957835674|-0.00501781702041626|0.0089835524559021|-0.06372743844985962|XArbitraryZVertical|-0.5462991217012763|-0.1344120806343973|-0.08433880175565581|0.8224219834540508|-0.3132353127002716|0.8759045004844666|-0.3669813275337219|0|0|0|-1|-1|3
2021-04-22 21:21:27.692 +0100|139173.48462325|-0.295654296875|0.884796142578125|-0.435791015625|139173.47963325|-0.6369426542575066|-0.7070030578354555|-1.068466150926054|-0.1122042536735535|0.1210339143872261|-0.004616905469447374|0.00683361291885376|0.01428437232971191|-0.06870067119598389|XArbitraryZVertical|-0.5469673686283852|-0.1333911258984395|-0.08541516559195267|0.8220328454301511|-0.3127423822879791|0.8764630556106567|-0.3660670220851898|0|0|0|-1|-1|3
2021-04-22 21:21:27.712 +0100|139173.50458425|-0.29888916015625|0.90472412109375|-0.424224853515625|139173.49959425|-0.6389303712477902|-0.7062989266241987|-1.068722861819674|-0.05255021154880524|0.1159888133406639|-0.009552720002830029|0.01701921224594116|0.01013243198394775|-0.06764474511146545|XArbitraryZVertical|-0.5471606833102602|-0.1325040042667862|-0.0863691252168759|0.8219478677589928|-0.3123383522033691|0.8765866160392761|-0.3661157488822937|0|0|0|-1|-1|3
2021-04-22 21:21:27.732 +0100|139173.52454425|-0.2970733642578125|0.9091644287109375|-0.4036712646484375|139173.51955425|-0.6390006174938528|-0.703512069428278|-1.067429210610606|0.01952524296939373|0.1410306245088577|-0.05544280260801315|0.01152777671813965|0.03594803810119629|-0.05132383108139038|XArbitraryZVertical|-0.5465837870329201|-0.1316112204324659|-0.08743957228902059|0.8223619028271197|-0.3120502233505249|0.8759633302688599|-0.3678492903709412|0|0|0|-1|-1|3
2021-04-22 21:21:27.752 +0100|139173.54450525|-0.268585205078125|0.902099609375|-0.392364501953125|139173.53951425|-0.63947168833269|-0.700819892025312|-1.065351863726229|0.01036585029214621|0.129350483417511|-0.08118731528520584|0.02071177959442139|0.03080266714096069|-0.03041833639144897|XArbitraryZVertical|-0.545755714938292|-0.1308115343937818|-0.08881634020455495|0.822891755731625|-0.3122315108776093|0.8749593496322632|-0.3700780868530273|0|0|0|-1|-1|3
2021-04-22 21:21:27.772 +0100|139173.56446525|-0.2512664794921875|0.9080352783203125|-0.3860931396484375|139173.55947525|-0.6401792727553087|-0.6988175859529642|-1.063412265671323|0.03344730287790298|0.09975828975439072|-0.07908225804567337|0.04982408881187439|0.03131622076034546|-0.01872968673706055|XArbitraryZVertical|-0.5450202051995175|-0.1302015269535068|-0.09007088285623427|0.8233394709744942|-0.3125810027122498|0.8740185499191284|-0.3720010817050934|0|0|0|-1|-1|3
2021-04-22 21:21:27.792 +0100|139173.58442525|-0.237823486328125|0.8825836181640625|-0.3803558349609375|139173.57943525|-0.6381982217063112|-0.694454462261337|-1.060850447926349|0.127798393368721|0.1216635406017303|-0.04321800544857979|0.06617042422294617|0.03085482120513916|-0.008188635110855103|XArbitraryZVertical|-0.5437781179770262|-0.1294800489957371|-0.09099201192644546|0.8241727625340883|-0.3123867809772491|0.8727709054946899|-0.3750805556774139|0|0|0|-1|-1|3
2021-04-22 21:21:27.812 +0100|139173.60438625|-0.2213897705078125|0.8594970703125|-0.3856048583984375|139173.59939625|-0.6329822905937585|-0.6869893688200649|-1.058057759163413|0.1966837644577026|0.1276823878288269|0.01618477888405323|0.07787635922431946|0.0001779794692993164|-0.0002151429653167725|XArbitraryZVertical|-0.5420988975138591|-0.1283986696277828|-0.09146251494236231|0.8253952044646055|-0.3111227452754974|0.8714043498039246|-0.3792851269245148|0|0|0|-1|-1|3
2021-04-22 21:21:27.832 +0100|139173.62434625|-0.2196807861328125|0.8275909423828125|-0.401763916015625|139173.61935625|-0.6257635341897508|-0.6780424704353889|-1.055048184946299|0.2307986319065094|0.1042706444859505|0.01173650100827217|0.0889163613319397|-0.01363092660903931|-0.005080044269561768|XArbitraryZVertical|-0.5401420992029724|-0.1272766493086969|-0.09153627011792301|0.82684246762213|-0.3093606531620026|0.869924008846283|-0.3840943276882172|0|0|0|-1|-1|3
2021-04-22 21:21:27.853 +0100|139173.64430725|-0.2226715087890625|0.8027496337890625|-0.42828369140625|139173.63931625|-0.6199776049905928|-0.6718250663213631|-1.052909076165597|0.1131150647997856|-0.03082326240837574|-0.01517474092543125|0.09039592742919922|-0.0513770580291748|-0.02096506953239441|XArbitraryZVertical|-0.5387148179405232|-0.1267019884201235|-0.09126653872908048|0.8278910282492601|-0.3081241548061371|0.868867039680481|-0.3874658942222595|0|0|0|-1|-1|3
2021-04-22 21:21:27.872 +0100|139173.66426725|-0.2215728759765625|0.818389892578125|-0.475341796875|139173.65927725|-0.6181495652196991|-0.6724294323664318|-1.051961701838825|0.05120579153299332|-0.2438251823186874|-0.1111693531274796|0.08709901571273804|-0.0625653862953186|-0.05488568544387817|XArbitraryZVertical|-0.5382816532274546|-0.1276369085014495|-0.09054407346536844|0.828108452017702|-0.3088708221912384|0.8683976531028748|-0.3879233598709106|0|0|0|-1|-1|3
2021-04-22 21:21:27.892 +0100|139173.68422725|-0.241668701171875|0.839935302734375|-0.510650634765625|139173.67923725|-0.6185059949382498|-0.6799245211879927|-1.049800999363265|0.1929450482130051|-0.5409191846847534|-0.124513752758503|0.08807933330535889|-0.05325222015380859|-0.1009193658828735|XArbitraryZVertical|-0.5378561290979946|-0.1310836874253805|-0.08912606427880219|0.8280003606729101|-0.3129486739635468|0.86732417345047|-0.3870556950569153|0|0|0|-1|-1|3
2021-04-22 21:21:27.912 +0100|139173.70418825|-0.300323486328125|0.856842041015625|-0.548187255859375|139173.69919825|-0.6153372781392253|-0.6904090710450153|-1.046055549296405|0.2903604209423065|-0.8617274761199951|-0.1417253166437149|0.06162437796592712|-0.03874766826629639|-0.1088915467262268|XArbitraryZVertical|-0.5367426599595516|-0.1370393907102667|-0.08578429452087886|0.8281114577434134|-0.31905597448349|0.865453839302063|-0.3862550556659698|0|0|0|-1|-1|3
2021-04-22 21:21:27.932 +0100|139173.72414825|-0.3309478759765625|0.8177032470703125|-0.5681304931640625|139173.71915825|-0.6024367634396|-0.6972172667586058|-1.037491424031132|0.7389851808547974|-1.013743281364441|-0.0503617562353611|0.01560342311859131|0.00652921199798584|-0.1670043766498566|XArbitraryZVertical|-0.5330006470483429|-0.1450494212727717|-0.08042227690554019|0.8297007118216112|-0.3264254629611969|0.8611316084861755|-0.3897419571876526|0|0|0|-1|-1|3
2021-04-22 21:21:27.952 +0100|139173.74410925|-0.3591156005859375|0.767730712890625|-0.593536376953125|139173.73911925|-0.5786150337438922|-0.7000714992103381|-1.023458459870424|1.132906794548035|-1.237401008605957|0.1278057545423508|-0.006492465734481812|-0.0591738224029541|-0.1817902028560638|XArbitraryZVertical|-0.5261765542791613|-0.1553452746989483|-0.07270947110256945|0.8328982932370493|-0.3352896571159363|0.8539129495620728|-0.3980121612548828|0|0|0|-1|-1|3
2021-04-22 21:21:27.972 +0100|139173.76406925|-0.362518310546875|0.604736328125|-0.593505859375|139173.75907925|-0.5431174879935243|-0.6952256701810094|-1.008074347846613|1.135794162750244|-1.314141273498535|0.3144853711128235|-0.01863524317741394|-0.08463627099990845|-0.1883491277694702|XArbitraryZVertical|-0.5174490494896909|-0.1655606092713253|-0.0623327845378064|0.8372281337166808|-0.3417320847511292|0.8458061218261719|-0.4096723198890686|0|0|0|-1|-1|3
2021-04-22 21:21:27.991 +0100|139173.78402925|-0.3516998291015625|0.5564422607421875|-0.619659423828125|139173.77903925|-0.5097563338113871|-0.6944766043996904|-0.9989445495066697|0.7446076273918152|-1.480876803398132|0.4798309206962585|-0.01822593808174133|-0.2826265096664429|-0.1853964328765869|XArbitraryZVertical|-0.5111440012896598|-0.175526454488501|-0.05039053697687228|0.8398709525239032|-0.3463527858257294|0.8409002423286438|-0.4158445596694946|0|0|0|-1|-1|3
2021-04-22 21:21:28.012 +0100|139173.80399025|-0.37677001953125|0.679473876953125|-0.607147216796875|139173.79900025|-0.4782538109934479|-0.6990102820080846|-0.9956787051054615|0.546104371547699|-1.595680713653564|0.5642220377922058|-0.0001135766506195068|-0.2529920339584351|-0.2130234241485596|XArbitraryZVertical|-0.5071531522917445|-0.1860393944600985|-0.03665434331647317|0.8407387686197301|-0.3499997854232788|0.839128315448761|-0.4163700342178345|0|0|0|-1|-1|3
2021-04-22 21:21:28.031 +0100|139173.82395025|-0.3622894287109375|0.861785888671875|-0.689239501953125|139173.81896025|-0.4483274483708105|-0.7069004711313849|-0.9940082413323746|0.6403142809867859|-1.692279696464539|0.5978103876113892|-0.02516523003578186|-0.1566690802574158|-0.2145191133022308|XArbitraryZVertical|-0.5037631051620072|-0.1972115431494487|-0.02241162374604865|0.8407306841544083|-0.3541838824748993|0.8382185101509094|-0.4146606922149658|0|0|0|-1|-1|3
2021-04-22 21:21:28.051 +0100|139173.84391125|-0.2868804931640625|0.9196624755859375|-0.6180877685546875|139173.83892025|-0.4108555975350653|-0.7104403323811304|-0.9878924349722883|0.8059744238853455|-1.793355822563171|0.5953924655914307|0.0122603178024292|0.1326162219047546|-0.2886639535427094|XArbitraryZVertical|-0.4976249128670631|-0.2091125586997518|-0.006965826155524516|0.8417796064390162|-0.358986109495163|0.8348677158355713|-0.41728276014328|0|0|0|-1|-1|3
2021-04-22 21:21:28.071 +0100|139173.86387125|-0.269500732421875|1.36151123046875|-0.64312744140625|139173.85888125|-0.3705352649753295|-0.7140563748390422|-0.9863937046215859|0.9239466190338135|-1.80517041683197|1.019876003265381|0.073362797498703|0.1476328372955322|-0.2243987619876862|XArbitraryZVertical|-0.4927045657685996|-0.2208589819296036|0.01060878393319417|0.8416359172998772|-0.3613117039203644|0.8340418338775635|-0.4169270396232605|0|0|0|-1|-1|3
2021-04-22 21:21:28.091 +0100|139173.88383125|-0.1287078857421875|1.5882568359375|-0.808685302734375|139173.87884125|-0.3145039171283312|-0.7010907245849958|-0.9850530831074061|1.413310885429382|-1.701741695404053|1.325144529342651|0.07967999577522278|0.5460021495819092|-0.2497789263725281|XArbitraryZVertical|-0.4860050847815341|-0.2293113786303485|0.03078007744199002|0.8427740970311403|-0.356596827507019|0.8333014249801636|-0.422430694103241|0|0|0|-1|-1|3
2021-04-22 21:21:28.111 +0100|139173.90379225|0.034210205078125|1.689529418945312|-0.9017486572265625|139173.89880225|-0.2365885302783697|-0.6676831401260904|-0.9788020820196028|1.720512270927429|-1.490992546081543|1.569067001342773|0.2602860033512115|0.8517201542854309|-0.3435037732124329|XArbitraryZVertical|-0.4751716937829341|-0.2347722861911975|0.0545484927773193|0.8462378643860763|-0.3455066084861755|0.8298295140266418|-0.4381876587867737|0|0|0|-1|-1|3
2021-04-22 21:21:28.131 +0100|139173.92375225|0.208587646484375|1.654830932617188|-0.9901580810546875|139173.91876225|-0.1488340523607374|-0.6270236095821267|-0.9672188628051207|2.212452411651611|-1.64828896522522|1.728959798812866|0.4239845871925354|0.885781466960907|-0.5079967975616455|XArbitraryZVertical|-0.4613883964575281|-0.2393935002882334|0.08038883554581414|0.8504995208571517|-0.3330271542072296|0.823310375213623|-0.4596230089664459|0|0|0|-1|-1|3
2021-04-22 21:21:28.151 +0100|139173.94371325|0.442413330078125|1.521194458007812|-1.192337036132812|139173.93872325|-0.05321163741859026|-0.5796608298388645|-0.9546676091175594|2.02048659324646|-1.576418399810791|2.085381031036377|0.5724942684173584|0.774806022644043|-0.489874541759491|XArbitraryZVertical|-0.4468487248418763|-0.242043259878537|0.1086053093491282|0.8543689338153972|-0.3165282011032104|0.8161216974258423|-0.4834825694561005|0|0|0|-1|-1|3
2021-04-22 21:21:28.171 +0100|139173.96367325|0.6387939453125|1.4364013671875|-1.354400634765625|139173.95868325|0.0480667093611102|-0.5299144949427194|-0.9427682441960843|2.063053846359253|-1.72541081905365|2.308294773101807|0.786652684211731|0.7051867842674255|-0.7117352485656738|XArbitraryZVertical|-0.4325395323862072|-0.243773590676766|0.1395481896780899|0.8567440653804265|-0.2969829440116882|0.8091877102851868|-0.5069679617881775|0|0|0|-1|-1|3
2021-04-22 21:21:28.191 +0100|139173.98363325|0.7307891845703125|1.386322021484375|-1.7457275390625|139173.97864325|0.1522617680599957|-0.4826450522412269|-0.9289061023810273|2.234269380569458|-1.924585223197937|2.41795015335083|0.9558238387107849|0.6436610817909241|-0.8876017928123474|XArbitraryZVertical|-0.417442831039715|-0.2461328380944864|0.1727701274092635|0.8575026751004097|-0.2778758406639099|0.8009654879570007|-0.5303202271461487|0|0|0|-1|-1|3
2021-04-22 21:21:28.211 +0100|139174.00359425|0.850738525390625|0.950897216796875|-2.056396484375|139173.99860425|0.2767553864951749|-0.4197307059721379|-0.8947176527279644|3.992027759552002|-1.578812718391418|2.835463762283325|1.013802170753479|0.6064276695251465|-1.316590547561646|XArbitraryZVertical|-0.393141823126719|-0.2443919111722345|0.2108922456416379|0.8609510344520496|-0.2549978196620941|0.7800324559211731|-0.5714241862297058|0|0|0|-1|-1|3
2021-04-22 21:21:28.231 +0100|139174.02355425|0.2907867431640625|0.066558837890625|-2.13909912109375|139174.01856425|0.4024418227454022|-0.3539856576433322|-0.8453515750448654|3.588343143463135|-1.442281484603882|2.729000568389893|1.097675204277039|-0.1248668432235718|-1.450786828994751|XArbitraryZVertical|-0.3635531678495932|-0.2380397023444225|0.2501959811233457|0.8651984347591247|-0.2299840748310089|0.7482044100761414|-0.6223323941230774|0|0|0|-1|-1|3
2021-04-22 21:21:28.251 +0100|139174.04351525|1.739532470703125|-0.7436065673828125|-2.541839599609375|139174.03852525|0.494558957196051|-0.2696248627207006|-0.7908130471326938|3.611556768417358|2.188976287841797|1.531957507133484|0.4225437045097351|-0.7466452717781067|-1.230968713760376|XArbitraryZVertical|-0.3397187924671315|-0.213685682989036|0.2740269484653458|0.8739787713677512|-0.1873292922973633|0.710925281047821|-0.6778591275215149|0|0|0|-1|-1|3
2021-04-22 21:21:28.271 +0100|139174.06347525|-0.8003692626953125|-0.4495697021484375|-2.14892578125|139174.05848525|0.5352606983411995|-0.2303768577407821|-0.7336602341263017|2.734952211380005|1.742698311805725|-0.132591113448143|2.009228229522705|-1.748296618461609|-2.271293163299561|XArbitraryZVertical|-0.3152261576911948|-0.197685293544259|0.2849715556874759|0.8833710174441901|-0.1695979386568069|0.6695926785469055|-0.7231059670448303|0|0|0|-1|-1|3
2021-04-22 21:21:28.291 +0100|139174.08343525|-1.617431640625|0.0460357666015625|-1.5184326171875|139174.07844525|0.5093519427334856|-0.1645361208426595|-0.6772115003018626|2.414975643157959|6.435174942016602|-2.658687829971313|-0.8562986254692078|-0.9386483430862427|-1.519561886787415|XArbitraryZVertical|-0.300843810094918|-0.1584109177669048|0.2632390181884932|0.9028313591992291|-0.1276490241289139|0.6266223192214966|-0.7687979936599731|0|0|0|-1|-1|3
2021-04-22 21:21:28.311 +0100|139174.10339625|-2.420135498046875|1.569076538085938|1.160964965820312|139174.09840625|0.4194211372260919|-0.05172360648625578|-0.6260852772368956|1.947128415107727|9.758419036865234|-4.996344089508057|-1.861578583717346|-0.1958394050598145|-0.1692861914634705|XArbitraryZVertical|-0.2959855648493022|-0.08815080585285551|0.2057822998232271|0.9285880160578532|-0.04189438372850418|0.5859770774841309|-0.8092439770698547|0|0|0|-1|-1|3
2021-04-22 21:21:28.331 +0100|139174.12335675|-2.15911865234375|2.456283569335938|4.405258178710938|139174.11836675|0.287510102996274|0.07676548875305732|-0.6044971887158171|-0.3849575519561768|9.679308891296387|-5.891302585601807|-2.523427248001099|1.203060626983643|3.024634838104248|XArbitraryZVertical|-0.2996283466027939|-0.006356606975281645|0.1253609586262601|0.9457628204761501|0.06309971213340759|0.5683484673500061|-0.8203648924827576|0|0|0|-1|-1|3
2021-04-22 21:21:28.351 +0100|139174.14331775|-3.517593383789062|-0.03460693359375|4.469741821289062|139174.13832775|0.1860286825302458|0.1694992923547718|-0.6900139973858698|-9.184950828552246|7.372519016265869|-3.995585203170776|-2.571017503738403|1.508991241455078|5.196067810058594|XArbitraryZVertical|-0.3429315239156242|0.04801615417867668|0.05858886082089792|0.9363012093550541|0.1300991028547287|0.6365479826927185|-0.7601848244667053|0|0|0|-1|-1|3
2021-04-22 21:21:28.371 +0100|139174.16327775|-1.502197265625|-2.025848388671875|0.508392333984375|139174.15828775|0.2882540828676622|0.4438813319946845|-1.055356381753566|-26.02036476135254|7.642670154571533|1.085190653800964|-3.338666915893555|-2.093189239501953|3.999594211578369|XArbitraryZVertical|-0.5134009467931328|0.1176625388245524|0.01135922534512156|0.8499683004629177|0.21168252825737|0.8700759410858154|-0.4451499879360199|0|0|0|-1|-1|3
2021-04-22 21:21:28.390 +0100|139174.18323775|-2.138046264648438|4.513595581054688|0.051727294921875|139174.17824775|1.405423413063783|1.571118641548795|-1.225522380142386|-18.19443321228027|2.114038705825806|7.127645492553711|-1.838729977607727|-1.038409948348999|0.1546007394790649|XArbitraryZVertical|-0.6841937667830663|0.17869928359125|0.06340867807665983|0.7042193212824069|0.3384546339511871|0.9409827589988708|0.0001090889199986123|0|0|0|-1|-1|3
2021-04-22 21:21:28.411 +0100|139174.20319875|-1.198822021484375|3.710800170898438|-0.0804443359375|139174.19820875|1.856674086594053|2.034742380125564|-1.078768918955549|-2.464952230453491|3.026150703430176|2.852287769317627|-2.621803283691406|3.983689785003662|-0.4068449735641479|XArbitraryZVertical|-0.7461611593643948|0.2212275063665231|0.09926659637959012|0.6200389063669737|0.4224770665168762|0.8813769221305847|0.2113961726427078|0|0|0|-1|-1|3
2021-04-22 21:21:28.431 +0100|139174.22315875|0.253570556640625|1.167984008789062|0.8376007080078125|139174.21816875|1.709200873079301|1.964317670601061|-1.0761836632398|6.828262805938721|2.048843383789062|0.7287368774414062|-1.125267744064331|2.09515905380249|-0.02266858518123627|XArbitraryZVertical|-0.7255191577099332|0.2542252334962904|0.07979277530975691|0.6345272243858323|0.4384080469608307|0.8801526427268982|0.1820170283317566|0|0|0|-1|-1|3
2021-04-22 21:21:28.450 +0100|139174.24311975|0.6297760009765625|-0.3771514892578125|0.8514251708984375|139174.23812975|1.411589312022435|1.712423313773465|-1.109960523433776|6.008536338806152|-0.5691297054290771|-0.5919163227081299|-0.004881739616394043|-0.2732442021369934|0.9154558181762695|XArbitraryZVertical|-0.6792259943003289|0.2646458896358918|0.05832619935242209|0.682065112996859|0.4402447938919067|0.8956811428070068|0.06277079880237579|0|0|0|-1|-1|3
2021-04-22 21:21:28.470 +0100|139174.26307975|0.55218505859375|0.620025634765625|0.296356201171875|139174.25808975|1.231469669596441|1.52156786782001|-1.141623547651919|2.229013442993164|-1.973141431808472|-1.859383463859558|0.2403746843338013|-1.215553522109985|0.7295687198638916|XArbitraryZVertical|-0.6545643133478902|0.2476029835392672|0.04787941060520384|0.7127034224626146|0.4156152904033661|0.9093102812767029|-0.02047664485871792|0|0|0|-1|-1|3
2021-04-22 21:21:28.490 +0100|139174.28304075|0.4515533447265625|1.126739501953125|0.0405426025390625|139174.27804975|1.131906314046423|1.392326418588435|-1.173198450202508|1.703931570053101|-1.727639317512512|-1.589004039764404|0.1221028566360474|-0.1186943054199219|0.286054790019989|XArbitraryZVertical|-0.6448866145445392|0.223051888992455|0.04304358518296703|0.7297373301050858|0.3810550570487976|0.9219937920570374|-0.06873821467161179|0|0|0|-1|-1|3
2021-04-22 21:21:28.517 +0100|139174.30300075|0.5072021484375|1.478073120117188|-0.1561737060546875|139174.29801075|1.011113956263589|1.252589867814756|-1.188568502745744|2.450525045394897|-1.036839604377747|-1.060707807540894|0.09582379460334778|0.3089351058006287|0.09255611896514893|XArbitraryZVertical|-0.6320960726654989|0.2052005064799161|0.03796706774017278|0.7462613279862207|0.3542640805244446|0.927836000919342|-0.1166946142911911|0|0|0|-1|-1|3
2021-04-22 21:21:28.530 +0100|139174.32296075|0.6218414306640625|1.402877807617188|-0.2032470703125|139174.31797075|0.8548814604457787|1.091979200712863|-1.181660003029155|3.097589254379272|-0.6126158833503723|-0.5961159467697144|0.2086092531681061|0.5674850344657898|-0.01264190673828125|XArbitraryZVertical|-0.611998031847939|0.1950905212792498|0.03098557128432442|0.7657925420373737|0.3367239534854889|0.9252370595932007|-0.1747961938381195|0|0|0|-1|-1|3
2021-04-22 21:21:28.550 +0100|139174.34292175|0.5923004150390625|1.228240966796875|-0.272613525390625|139174.33793175|0.7123665165948423|0.9517242340715256|-1.157372278557274|2.80370569229126|-0.2597943544387817|-0.2985709309577942|0.2898134589195251|0.4420838356018066|0.00854802131652832|XArbitraryZVertical|-0.5893782135983229|0.1899218105871369|0.02466873925761886|0.7848278351791231|0.3271902799606323|0.9157505631446838|-0.2331260591745377|0|0|0|-1|-1|3
2021-04-22 21:21:28.570 +0100|139174.36288175|0.617034912109375|1.027862548828125|-0.3257293701171875|139174.35789175|0.6138979927921621|0.8601405202887487|-1.131223262154503|1.955242514610291|-0.0004611494950950146|-0.1358799487352371|0.272703230381012|0.2764636278152466|-0.02046269178390503|XArbitraryZVertical|-0.570717761218088|0.1883624442419321|0.01886034121643406|0.7990276904750807|0.3225414752960205|0.9049334526062012|-0.2776016592979431|0|0|0|-1|-1|3
2021-04-22 21:21:28.590 +0100|139174.38284275|0.5667724609375|1.048171997070312|-0.3670501708984375|139174.37785175|0.5633104265490072|0.8143031845895946|-1.113052683210846|0.9397002458572388|-0.0107018556445837|-0.01750048063695431|0.2875275313854218|0.1069921255111694|-0.02804774045944214|XArbitraryZVertical|-0.5594006853822087|0.1881690480114247|0.01577184880321829|0.8071025760382747|0.3213890194892883|0.8970519304275513|-0.3033265769481659|0|0|0|-1|-1|3
2021-04-22 21:21:28.610 +0100|139174.40280275|0.539215087890625|1.092437744140625|-0.4886627197265625|139174.39781275|0.541529374469981|0.7952720214798663|-1.104955337864824|0.3769516050815582|0.04308851063251495|-0.07469319552183151|0.2397197186946869|0.1815686821937561|-0.07819068431854248|XArbitraryZVertical|-0.5543894859921528|0.1882042649429366|0.014094197193102|0.8105757141055336|0.3207349479198456|0.8934441208839417|-0.3144629001617432|0|0|0|-1|-1|3
2021-04-22 21:21:28.630 +0100|139174.42276275|0.4597625732421875|0.976287841796875|-0.4711151123046875|139174.41777275|0.534285408253264|0.7896374986405156|-1.105321019288451|-0.1997129321098328|0.01901641115546227|-0.2094751447439194|0.2024373114109039|0.1698383092880249|-0.1766094267368317|XArbitraryZVertical|-0.5537993930258874|0.1878529954865982|0.01263695655852235|0.8110844084755308|0.3187259435653687|0.8936083316802979|-0.3160349726676941|0|0|0|-1|-1|3
2021-04-22 21:21:28.650 +0100|139174.44272375|0.4036712646484375|0.89984130859375|-0.4438018798828125|139174.43773375|0.5396135113507674|0.7936938966645661|-1.117493091886235|-0.7792384028434753|-0.1163068935275078|-0.5029746890068054|0.1257148683071136|0.05708038806915283|-0.1539543271064758|XArbitraryZVertical|-0.5585919183153477|0.1855545030289721|0.01095808175702872|0.8083468559971119|0.3122269809246063|0.8990054130554199|-0.3070891797542572|0|0|0|-1|-1|3
2021-04-22 21:21:28.670 +0100|139174.46268375|0.418487548828125|0.9312896728515625|-0.467437744140625|139174.45769375|0.5487051893764806|0.7974140393405021|-1.139408393344211|-0.9485682249069214|-0.3441923260688782|-0.7741680145263672|0.1069470942020416|-0.008117139339447021|-0.1500017642974854|XArbitraryZVertical|-0.5670533441788073|0.1800149074390361|0.008668758013010307|0.8037227062780617|0.2991954386234283|0.9083862900733948|-0.2920902669429779|0|0|0|-1|-1|3
2021-04-22 21:21:28.690 +0100|139174.48264475|0.3553009033203125|0.9839630126953125|-0.487274169921875|139174.47765475|0.5482087458370495|0.7862072241243376|-1.162078796510979|-0.5420202612876892|-0.7621293663978577|-0.8144761919975281|0.1370336413383484|0.02023547887802124|-0.1792515218257904|XArbitraryZVertical|-0.5747695262186011|0.170996873202734|0.006597113987304514|0.8002228742368783|0.2812548577785492|0.9176312685012817|-0.2808001339435577|0|0|0|-1|-1|3
2021-04-22 21:21:28.710 +0100|139174.50260475|0.193206787109375|1.025360107421875|-0.4763031005859375|139174.49761475|0.5247842056219499|0.7468421197040961|-1.175286102246909|0.2598210573196411|-0.9607985019683838|-0.7703450918197632|0.05328717827796936|0.09311538934707642|-0.2230343818664551|XArbitraryZVertical|-0.577279133540072|0.1593188876255021|0.005676685397782042|0.8008334775431318|0.2617298662662506|0.9228001236915588|-0.2827325761318207|0|0|0|-1|-1|3
2021-04-22 21:21:28.730 +0100|139174.52256475|0.10394287109375|0.843231201171875|-0.4245452880859375|139174.51757475|0.4724274277290419|0.68013076478585|-1.174989624872745|1.026713609695435|-0.8727330565452576|-0.7626104950904846|-0.08564293384552002|0.05383139848709106|-0.1644535958766937|XArbitraryZVertical|-0.5729956603827014|0.1476284696769535|0.003885489121196043|0.8061431526128089|0.2424720972776413|0.9226858615875244|-0.2997636198997498|0|0|0|-1|-1|3
2021-04-22 21:21:28.750 +0100|139174.54252575|0.1634979248046875|0.7641143798828125|-0.5002593994140625|139174.53753575|0.4013962269619443|0.5973976109266653|-1.164365738338793|1.493711471557617|-0.8685973286628723|-0.8169292211532593|-0.1145236641168594|-0.1008797883987427|-0.09263125061988831|XArbitraryZVertical|-0.5639541311633439|0.1361047220240639|0.0005798932894433927|0.8145127234843698|0.2223721146583557|0.9185377955436707|-0.3268624842166901|0|0|0|-1|-1|3
2021-04-22 21:21:28.770 +0100|139174.56248575|0.1728057861328125|0.6581573486328125|-0.4480743408203125|139174.55749575|0.3257608393175136|0.5083959744448465|-1.142288900264727|1.926939249038696|-1.126984596252441|-0.630433201789856|-0.01702135801315308|-0.1589303016662598|-0.1507240831851959|XArbitraryZVertical|-0.5506043664069501|0.12391015456009|-0.002104268947512613|0.8255160348704239|0.2022624015808105|0.9095869660377502|-0.3629622161388397|0|0|0|-1|-1|3
2021-04-22 21:21:28.790 +0100|139174.58244675|0.0978546142578125|0.4928131103515625|-0.3997650146484375|139174.57745675|0.2622350622583888|0.4270551657601737|-1.112427046241544|1.902070164680481|-1.220627427101135|-0.4935493171215057|-0.03273196518421173|-0.2912601232528687|-0.022743821144104|XArbitraryZVertical|-0.5350836676744712|0.1109600738639502|-0.002409426982945431|0.837477028692957|0.1832745373249054|0.8967752456665039|-0.4027466475963593|0|0|0|-1|-1|3
2021-04-22 21:21:28.810 +0100|139174.60240675|0.188262939453125|0.45111083984375|-0.49658203125|139174.59741675|0.2131041806638107|0.3589680351587353|-1.083706669435138|1.682513952255249|-1.251472353935242|-0.4494526982307434|-0.05627836287021637|-0.416763961315155|0.05385428667068481|XArbitraryZVertical|-0.5208283772176759|0.09811544743007443|-0.001893339869771403|0.8480022493108117|0.1644320338964462|0.8836988210678101|-0.4382223188877106|0|0|0|-1|-1|3
2021-04-22 21:21:28.830 +0100|139174.62236675|0.2579345703125|0.5812225341796875|-0.4931182861328125|139174.61737675|0.1741936020491905|0.2980063591643963|-1.048941393139237|1.862939834594727|-1.528027415275574|-0.2043825685977936|0.07720723748207092|-0.3374153971672058|-0.1266309022903442|XArbitraryZVertical|-0.5045068263569042|0.0849353543957389|0.0004039880694937659|0.8592199232756811|0.1463639289140701|0.8668960332870483|-0.4765177071094513|0|0|0|-1|-1|3
2021-04-22 21:21:28.850 +0100|139174.64232775|0.160980224609375|0.621368408203125|-0.5133056640625|139174.63733775|0.1511359138390221|0.2464566881186995|-1.014430124893359|1.793822407722473|-1.630870819091797|0.01495049335062504|0.1034122854471207|-0.3164794445037842|0.01484799385070801|XArbitraryZVertical|-0.4887970087146111|0.07074121238772794|0.005954997716777446|0.8695043635129251|0.1288411617279053|0.849179744720459|-0.5121463537216187|0|0|0|-1|-1|3
2021-04-22 21:21:28.870 +0100|139174.66228775|0.1423187255859375|0.650360107421875|-0.4288330078125|139174.65729775|0.1380989566202142|0.2017853024945722|-0.9768760770142989|2.050467014312744|-1.720821380615234|0.1266700178384781|0.03820234537124634|-0.1833667755126953|0.04435449838638306|XArbitraryZVertical|-0.4718849355245375|0.05652104356652236|0.01346636020847415|0.8797435861784751|0.1121571958065033|0.8287532329559326|-0.548259973526001|0|0|0|-1|-1|3
2021-04-22 21:21:28.889 +0100|139174.68224875|0.0876617431640625|0.51617431640625|-0.3178863525390625|139174.67725875|0.1305264149517096|0.1602046247998957|-0.9374283234131348|1.820730686187744|-1.812533140182495|0.128040999174118|0.04109865427017212|-0.1800156235694885|0.1902570724487305|XArbitraryZVertical|-0.4539879469258083|0.04186832097394451|0.0219269423544298|0.8897535514034168|0.09441410750150681|0.8060386776924133|-0.5842839479446411|0|0|0|-1|-1|3
2021-04-22 21:21:28.909 +0100|139174.70220875|0.0624237060546875|0.480621337890625|-0.3603057861328125|139174.69721875|0.1234793403445975|0.1182546238270717|-0.9120697245080487|0.7671423554420471|-1.85851514339447|-0.2114009857177734|-0.0007904320955276489|-0.3096925020217896|0.3174157738685608|XArbitraryZVertical|-0.4420578615305216|0.02582795460955611|0.02932380108534124|0.8961350412869904|0.07221630215644836|0.7907723188400269|-0.6078355312347412|0|0|0|-1|-1|3
2021-04-22 21:21:28.929 +0100|139174.72216975|0.042724609375|0.620391845703125|-0.4426116943359375|139174.71717875|0.1112831481113369|0.07017400474643842|-0.9074636963565087|-0.03712243959307671|-2.08125376701355|-0.5037906765937805|0.02953370660543442|-0.2700910568237305|0.2412915229797363|XArbitraryZVertical|-0.4391285900411354|0.007120165104954375|0.03460257648986073|0.8977294195841491|0.04317392408847809|0.7879445552825928|-0.614230751991272|0|0|0|-1|-1|3
2021-04-22 21:21:28.949 +0100|139174.74212975|-0.052734375|0.675994873046875|-0.3176422119140625|139174.73713975|0.09142936686077628|0.01033631876018273|-0.9119176063372777|-0.4185845553874969|-2.188869953155518|-0.7471300959587097|0.01961136609315872|-0.1119980216026306|0.1970988512039185|XArbitraryZVertical|-0.4400694611748204|-0.01548664858348215|0.0387563165383402|0.8969933940698972|0.006328099872916937|0.7906792163848877|-0.6121980547904968|0|0|0|-1|-1|3
2021-04-22 21:21:28.969 +0100|139174.76208975|-0.0848388671875|0.7971954345703125|-0.3461761474609375|139174.75709975|0.06284447320486412|-0.05548513944230782|-0.9223143308170118|-0.6825104355812073|-2.117817878723145|-0.9643658995628357|-0.03385818004608154|-0.07292550802230835|0.2515778541564941|XArbitraryZVertical|-0.4438133746452019|-0.03880380463400716|0.0404616878782687|0.8943640129632642|-0.03349457681179047|0.7970015406608582|-0.6030479073524475|0|0|0|-1|-1|3
2021-04-22 21:21:28.989 +0100|139174.78205075|-0.2064971923828125|0.876678466796875|-0.366119384765625|139174.77706075|0.02486395446002304|-0.1276223752457464|-0.9357437628774686|-0.7708472013473511|-2.067714214324951|-1.208178877830505|-0.03280454128980637|-0.0003829002380371094|0.2404196858406067|XArbitraryZVertical|-0.4493276864377749|-0.06250547533913305|0.03982936645254239|0.890287236699191|-0.07550278306007385|0.8050405383110046|-0.5883954167366028|0|0|0|-1|-1|3
2021-04-22 21:21:29.009 +0100|139174.80201075|-0.27813720703125|0.8191375732421875|-0.255859375|139174.79702075|-0.02497517505464193|-0.2078603080089067|-0.9438416687184552|-0.6303665637969971|-1.933349609375|-1.555284380912781|-0.1148755624890327|0.06232935190200806|0.2124510407447815|XArbitraryZVertical|-0.4532636558705111|-0.08675042841585949|0.03609540246628577|0.8864104944686808|-0.1210715100169182|0.809817910194397|-0.5740528702735901|0|0|0|-1|-1|3
2021-04-22 21:21:29.029 +0100|139174.82197175|-0.2574005126953125|0.7815093994140625|-0.2487335205078125|139174.81698175|-0.08856987541339191|-0.2985441760237101|-0.9521811772069186|-1.16072154045105|-2.056668519973755|-1.787781834602356|-0.1085770279169083|-0.01551789045333862|0.3176233768463135|XArbitraryZVertical|-0.4586187614827429|-0.1119864192263085|0.02918224353967908|0.8810654520802403|-0.1705676764249802|0.8146823048591614|-0.5542557239532471|0|0|0|-1|-1|3
2021-04-22 21:21:29.049 +0100|139174.84193175|-0.291015625|0.9041290283203125|-0.42059326171875|139174.83694175|-0.1606584117002679|-0.4003924963190336|-0.9661731739385234|-1.402914047241211|-2.219579935073853|-1.578436493873596|-0.03438012301921844|-0.03704071044921875|0.2480721473693848|XArbitraryZVertical|-0.4679003768205369|-0.1390075844310843|0.02243523152426776|0.8724923951282866|-0.2215712070465088|0.8227163553237915|-0.5234922766685486|0|0|0|-1|-1|3
2021-04-22 21:21:29.069 +0100|139174.86189175|-0.2862701416015625|0.942108154296875|-0.559326171875|139174.85690175|-0.2230388106855332|-0.4942153873733696|-0.9730114805511707|-0.7240951657295227|-1.862770080566406|-1.287722706794739|-0.03552535176277161|0.1319885849952698|0.03071624040603638|XArbitraryZVertical|-0.4745845726981209|-0.1644256388813053|0.0182625540456604|0.8645231449085982|-0.2669652998447418|0.8265843391418457|-0.4954673945903778|0|0|0|-1|-1|3
2021-04-22 21:21:29.089 +0100|139174.88185275|-0.2010650634765625|0.8462066650390625|-0.615264892578125|139174.87686275|-0.260273386294792|-0.5585009088997457|-0.9673373726853834|0.1525730192661285|-1.5152587890625|-0.816399872303009|0.03309959173202515|0.09399658441543579|-0.1247687339782715|XArbitraryZVertical|-0.4749022143410893|-0.1839459287711964|0.01666072691404659|0.860438463588984|-0.3007238805294037|0.8233776092529297|-0.4812635779380798|0|0|0|-1|-1|3
2021-04-22 21:21:29.109 +0100|139174.90181275|-0.1678924560546875|0.8569488525390625|-0.5754852294921875|139174.89682275|-0.2677694288215851|-0.5915859840679013|-0.9541287530715862|0.6059624552726746|-1.239235401153564|-0.2646056115627289|0.1471162736415863|0.02249300479888916|-0.1161822080612183|XArbitraryZVertical|-0.4698673475983996|-0.1980033930651895|0.01921922505675257|0.8600291671866309|-0.3225164115428925|0.8158102035522461|-0.4800386726856232|0|0|0|-1|-1|3
2021-04-22 21:21:29.129 +0100|139174.92177375|-0.2198638916015625|1.073196411132812|-0.7065887451171875|139174.91678375|-0.2572292879255794|-0.6056136657062111|-0.9431962806644202|0.8361172080039978|-1.040707945823669|0.2217109501361847|0.1521311104297638|0.05921369791030884|-0.06530797481536865|XArbitraryZVertical|-0.4641316131523415|-0.2078368844879239|0.02529524844711889|0.860665925643704|-0.3342756032943726|0.8094391226768494|-0.4827713370323181|0|0|0|-1|-1|3
2021-04-22 21:21:29.149 +0100|139174.94173375|-0.3592529296875|1.110198974609375|-0.6265869140625|139174.93674375|-0.2088124619916801|-0.5842990047968581|-0.9189018115178545|2.581041812896729|-0.5299859642982483|0.6720122694969177|0.1052755117416382|0.4604206085205078|-0.3162068128585815|XArbitraryZVertical|-0.449255789150962|-0.2124805108219174|0.03757386492672669|0.8669542234978604|-0.3346611857414246|0.7949358224868774|-0.5060425400733948|0|0|0|-1|-1|3
2021-04-22 21:21:29.169 +0100|139174.96169475|-0.339324951171875|0.786865234375|-0.4193572998046875|139174.95670375|-0.1478726722297733|-0.5420957634256656|-0.8890188197346579|1.994947791099548|-0.2150065749883652|0.9244879484176636|-0.02489423751831055|0.1815851926803589|0.03556966781616211|XArbitraryZVertical|-0.4310393143012463|-0.2104570845318731|0.05056240673589633|0.875988974143341|-0.3251273930072784|0.7764537930488586|-0.5398258566856384|0|0|0|-1|-1|3
2021-04-22 21:21:29.189 +0100|139174.98165475|-0.5493621826171875|0.2738800048828125|-0.110260009765625|139174.97666475|-0.1170373275550117|-0.5154927628528924|-0.8832994699771228|-1.168635606765747|0.3462841510772705|0.2948886752128601|-0.08735549449920654|-0.1466613411903381|0.2580409049987793|XArbitraryZVertical|-0.4260821172601196|-0.205876458504545|0.0576397163107746|0.8790601496313081|-0.3128370642662048|0.7728369235992432|-0.5521378517150879|0|0|0|-1|-1|3
2021-04-22 21:21:29.209 +0100|139175.00161475|-0.3512420654296875|1.315505981445312|-0.79193115234375|139174.99662475|-0.1515828044259704|-0.5348806362790103|-0.9225476825386567|-1.538711071014404|0.4417311251163483|0.3840988874435425|-0.2384588122367859|-0.5595472455024719|0.2929896116256714|XArbitraryZVertical|-0.445952529978875|-0.2034614977619512|0.05188841786124341|0.8700790232204103|-0.307775616645813|0.7971424460411072|-0.5194595456123352|0|0|0|-1|-1|3
2021-04-22 21:21:29.229 +0100|139175.02157575|-0.1379547119140625|1.251998901367188|-0.90887451171875|139175.01658575|-0.1570992704975503|-0.5233385037359607|-0.9474641611469191|-1.373878836631775|1.116551280021667|0.4077229797840118|-0.08809694647789001|0.5011730790138245|-0.2198803424835205|XArbitraryZVertical|-0.4573859072892685|-0.1949143666601246|0.05020441108624601|0.8661905645310127|-0.2917403876781464|0.8119378089904785|-0.5056130290031433|0|0|0|-1|-1|3
2021-04-22 21:21:29.249 +0100|139175.04153575|0.325958251953125|1.845901489257812|-1.440170288085938|139175.03654575|-0.1711102370223987|-0.5144655162267001|-0.9761354762956855|-1.345869779586792|0.9225338697433472|0.3328160047531128|0.3155878484249115|0.60496586561203|-0.59902024269104|XArbitraryZVertical|-0.4710337391783369|-0.1851280389931976|0.04586909349903706|0.8612495977761429|-0.275671124458313|0.8283385634422302|-0.487709641456604|0|0|0|-1|-1|3
2021-04-22 21:21:29.269 +0100|139175.06149675|0.7755584716796875|2.151458740234375|-1.879669189453125|139175.05650675|-0.1704801539493215|-0.4959087890810235|-0.9977198283741704|-0.3526737987995148|0.8549676537513733|0.8628817200660706|0.6873260140419006|1.082813620567322|-1.072321653366089|XArbitraryZVertical|-0.4804568269767632|-0.1752432216492631|0.04451466396083939|0.8581780753862953|-0.2580050230026245|0.8402368426322937|-0.4769020974636078|0|0|0|-1|-1|3
2021-04-22 21:21:29.289 +0100|139175.08145675|1.240341186523438|2.301467895507812|-2.304168701171875|139175.07646675|-0.1241236302184676|-0.443365818613825|-1.003037197696071|0.9746437668800354|0.3340653777122498|1.612757086753845|1.137115478515625|1.361634850502014|-1.490703344345093|XArbitraryZVertical|-0.4800475759726048|-0.1633361835286472|0.05244812661911218|0.8603050965924809|-0.2306827157735825|0.8431081175804138|-0.4857512414455414|0|0|0|-1|-1|3
2021-04-22 21:21:29.308 +0100|139175.10141675|1.52630615234375|2.191848754882812|-2.600601196289062|139175.09642675|-0.0347443542407461|-0.3690595230735698|-0.987890064088885|2.384034395217896|-0.3718055784702301|2.251895904541016|1.5149906873703|1.499194860458374|-1.885169386863708|XArbitraryZVertical|-0.4687899773686883|-0.1534319311828032|0.07194204961265677|0.8669020692893747|-0.1985694915056229|0.8348664045333862|-0.5133891701698303|0|0|0|-1|-1|3
2021-04-22 21:21:29.328 +0100|139175.1213775|1.63458251953125|1.290252685546875|-2.76641845703125|139175.1163875|0.09129318293070303|-0.2773960122957731|-0.9472875129572942|3.627286911010742|-0.7716400623321533|3.233806133270264|1.736436605453491|1.235986948013306|-2.099305868148804|XArbitraryZVertical|-0.4456669164961694|-0.1435192796089006|0.1032136350959442|0.8775706524681977|-0.1598988175392151|0.8118346929550171|-0.5615664124488831|0|0|0|-1|-1|3
2021-04-22 21:21:29.348 +0100|139175.1413375|1.13946533203125|0.1757049560546875|-2.694549560546875|139175.1363475|0.2331267747645283|-0.179188229857925|-0.8906642752525735|3.594731092453003|-0.5537362694740295|3.702225923538208|1.73009991645813|0.2042768001556396|-2.141396045684814|XArbitraryZVertical|-0.4167276742429643|-0.1300957235215333|0.1428158573689673|0.8882661988292611|-0.1120886281132698|0.7774896621704102|-0.6188262701034546|0|0|0|-1|-1|3
2021-04-22 21:21:29.368 +0100|139175.1612985|2.291305541992188|-0.4856109619140625|-2.931793212890625|139175.1563085|0.3441415526489159|-0.07663864058213363|-0.8353854788377714|2.989668369293213|1.828205943107605|2.484850645065308|1.045002818107605|-0.7280198335647583|-1.85587203502655|XArbitraryZVertical|-0.3933730637970857|-0.1039052396558552|0.1716985443225539|0.8972073708246875|-0.0513659305870533|0.7415551543235779|-0.6689226627349854|0|0|0|-1|-1|3
2021-04-22 21:21:29.388 +0100|139175.1812585|0.3226318359375|0.0148468017578125|-2.067703247070312|139175.1762685|0.4110906488335427|-0.01147496395776215|-0.7819915477642804|2.421877145767212|2.483556985855103|1.375123739242554|2.312920331954956|-1.317272305488586|-2.554145097732544|XArbitraryZVertical|-0.3719979975931884|-0.08297627194627302|0.190834979127939|0.9046074117888573|-0.008141441270709038|0.7046938538551331|-0.7094648480415344|0|0|0|-1|-1|3
2021-04-22 21:21:29.408 +0100|139175.2012195|-0.2768096923828125|-0.6504669189453125|-1.366744995117188|139175.1962285|0.4170291059568191|0.07235053344105753|-0.7393435222078922|1.730773329734802|5.644319534301758|-1.034281134605408|0.3252174556255341|-0.7247664332389832|-1.460195302963257|XArbitraryZVertical|-0.360233075216557|-0.04175092949223164|0.1801118571617199|0.9143570490622293|0.05341398343443871|0.6738029718399048|-0.7369779944419861|0|0|0|-1|-1|3
2021-04-22 21:21:29.428 +0100|139175.2211795|-0.894195556640625|-1.28753662109375|0.576812744140625|139175.2161895|0.3506235780508657|0.1729114725456582|-0.7277840434677221|-0.2236245423555374|8.666079521179199|-3.590871810913086|-0.5842881798744202|-1.545388579368591|-0.2902550101280212|XArbitraryZVertical|-0.3632239798274717|0.01761207580776768|0.1321240064459565|0.922117919231352|0.1284620314836502|0.6652167439460754|-0.7355163097381592|0|0|0|-1|-1|3
2021-04-22 21:21:29.448 +0100|139175.2411395|-2.751602172851562|0.3448638916015625|3.9610595703125|139175.2361495|0.2425038000267935|0.2815628287046228|-0.7807425078470188|-3.310486316680908|8.846342086791992|-5.619213581085205|-1.44183361530304|-1.844080209732056|1.960875988006592|XArbitraryZVertical|-0.3896959145242557|0.08323594267057922|0.05774570272834256|0.9153548877227283|0.1973873823881149|0.7038070559501648|-0.6824177503585815|0|0|0|-1|-1|3
2021-04-22 21:21:29.468 +0100|139175.2611005|-4.379653930664062|3.204086303710938|7.143402099609375|139175.2561105|0.1510357267648118|0.344148405927972|-0.9340745741759866|-8.872368812561035|3.373281240463257|-2.862397432327271|-3.410899877548218|0.494077742099762|5.607903003692627|XArbitraryZVertical|-0.4538640438774891|0.118985840266117|-0.01050225023406068|0.8830287080729231|0.2006026357412338|0.8040491938591003|-0.5596995949745178|0|0|0|-1|-1|3
2021-04-22 21:21:29.488 +0100|139175.2810605|-2.166244506835938|1.601333618164062|0.101165771484375|139175.2760705|0.2362608216300905|0.5528691997045353|-1.154637786650234|-15.74611473083496|10.76030158996582|-6.428684711456299|-5.469334602355957|3.629541397094727|8.063005447387695|XArbitraryZVertical|-0.5483521493311797|0.1652186636841334|-0.05291434898522167|0.8180543468038972|0.2122842967510223|0.9146485924720764|-0.3440254330635071|0|0|0|-1|-1|3
2021-04-22 21:21:29.508 +0100|139175.3010215|-2.087722778320312|-1.74725341796875|-3.811065673828125|139175.2960315|1.329011722758593|1.711966253834975|-1.346793269885774|-18.11277389526367|0.3647080063819885|4.013176441192627|-1.62051522731781|-2.135568618774414|-3.079959869384766|XArbitraryZVertical|-0.6858600952762128|0.2126577246422996|-0.05479405169634964|0.6938086184019875|0.2199254184961319|0.9750160574913025|0.03125475719571114|0|0|0|-1|-1|3
2021-04-22 21:21:29.528 +0100|139175.3209815|-2.56268310546875|3.806488037109375|-1.428421020507812|139175.3159915|2.040662876638593|2.384382610032644|-1.158787410595019|-7.924675941467285|0.8094653487205505|1.000713467597961|-3.131468772888184|-0.4325076937675476|-2.987211465835571|XArbitraryZVertical|-0.7685371340073085|0.2342342276210806|-0.002503981071655424|0.5953812271051393|0.2750685214996338|0.9163181781768799|0.2910299897193909|0|0|0|-1|-1|3
2021-04-22 21:21:29.548 +0100|139175.3409425|0.4058990478515625|2.807281494140625|0.8344879150390625|139175.3359515|2.075059751434445|2.451406293836054|-1.158202942500259|5.332296848297119|0.5236057043075562|-1.085702300071716|-1.895316362380981|2.663933277130127|-1.101279973983765|XArbitraryZVertical|-0.772364887226697|0.2409535892967656|-0.01798655674963046|0.5874271065942697|0.2553009688854218|0.9160839915275574|0.3092122972011566|0|0|0|-1|-1|3
2021-04-22 21:21:29.568 +0100|139175.3609025|0.2914276123046875|1.3126220703125|0.7844390869140625|139175.3559125|1.774455245766853|2.125196571517388|-1.273543390502374|9.389843940734863|-4.334035396575928|-0.5633381605148315|0.383665144443512|1.600435137748718|0.7517251968383789|XArbitraryZVertical|-0.7273292510329383|0.2192877897873506|-0.02473430269856853|0.649841068402945|0.2490244656801224|0.9561446905136108|0.1541899442672729|0|0|0|-1|-1|3
