loggingTime(txt)|accelerometerTimestamp_sinceReboot(s)|accelerometerAccelerationX(G)|accelerometerAccelerationY(G)|accelerometerAccelerationZ(G)|motionTimestamp_sinceReboot(s)|motionYaw(rad)|motionRoll(rad)|motionPitch(rad)|motionRotationRateX(rad/s)|motionRotationRateY(rad/s)|motionRotationRateZ(rad/s)|motionUserAccelerationX(G)|motionUserAccelerationY(G)|motionUserAccelerationZ(G)|motionAttitudeReferenceFrame(txt)|motionQuaternionX(R)|motionQuaternionY(R)|motionQuaternionZ(R)|motionQuaternionW(R)|motionGravityX(G)|motionGravityY(G)|motionGravityZ(G)|motionMagneticFieldX(µT)|motionMagneticFieldY(µT)|motionMagneticFieldZ(µT)|motionHeading(°)|motionMagneticFieldCalibrationAccuracy(Z)|label
2021-04-09 10:17:51.218 +0100|29291.06582029167|-0.3311614990234375|0.1569671630859375|-0.936737060546875|29291.04585929167|0.6120087358005952|-0.3382759893043242|-0.1174689114318448|-0.1131526157259941|0.06833735108375549|-0.00518118916079402|-0.0142977237701416|-0.01385005563497543|-0.001374542713165283|XArbitraryZVertical|-0.004552058268966214|-0.1776672974379532|0.305862396222708|0.9353405391828358|-0.3295742571353912|0.1171989366412163|-0.9368272423744202|0|0|0|-1|-1|3
2021-04-09 10:17:51.230 +0100|29291.08578129167|-0.33154296875|0.1086578369140625|-0.935638427734375|29291.06582029167|0.6111031589116718|-0.337929807672592|-0.1186527992239687|0.01194196753203869|0.03371567651629448|-0.03379463776946068|0.001551836729049683|0.03632012754678726|-0.002475440502166748|XArbitraryZVertical|-0.005242650152577222|-0.1776729286906104|0.3055224727698475|0.9354468801016808|-0.3292036652565002|0.1183745861053467|-0.9368097186088562|0|0|0|-1|-1|3
2021-04-09 10:17:51.232 +0100|29291.10574229167|-0.3315277099609375|0.1269683837890625|-0.947662353515625|29291.10574229167|0.6109156936137723|-0.3376271425934487|-0.1156302234482063|0.1177840605378151|0.002885058056563139|-0.005225574597716331|-0.003909558057785034|0.01344309002161026|-0.008283436298370361|XArbitraryZVertical|-0.00388265453775092|-0.1770977774028794|0.3052184635093697|0.9356618211431098|-0.3290371298789978|0.1153727248311043|-0.9372426271438599|0|0|0|-1|-1|3
2021-04-09 10:17:51.232 +0100|29291.12570329167|-0.3226776123046875|0.097320556640625|-0.9488372802734375||||||||||||||||||||||||3
2021-04-09 10:17:51.251 +0100|29291.14566429167|-0.320037841796875|0.096527099609375|-0.9435272216796875|29291.12570329167|0.6118000454100706|-0.3377498709616141|-0.1138569071658539|0.0584757961332798|-0.008099256083369255|0.02618489973247051|0.009517371654510498|-0.02098910510540009|-0.0121300220489502|XArbitraryZVertical|-0.002950923147610186|-0.1769022411268356|0.3055056080454713|0.9356085295487395|-0.3292194306850433|0.1136110723018646|-0.9373937845230103|0|0|0|-1|-1|3
2021-04-09 10:17:51.272 +0100|29291.16562629167|-0.322967529296875|0.0971527099609375|-0.924407958984375|29291.14566429167|0.6125643884389439|-0.3378459845693759|-0.1138476759625764|-0.01053665950894356|-0.01739320904016495|0.03974403068423271|0.007700502872467041|-0.01446443796157837|-0.007659316062927246|XArbitraryZVertical|-0.002864279982702128|-0.1769469725386022|0.3058626077298796|0.9354837701605637|-0.32930988073349|0.1136019006371498|-0.9373631477355957|0|0|0|-1|-1|3
2021-04-09 10:17:51.291 +0100|29291.18558729167|-0.3220672607421875|0.126220703125|-0.923675537109375|29291.16562629167|0.6130689657153485|-0.3383585368902084|-0.1152309942608545|-0.07605046033859253|-0.02981099672615528|0.03749543428421021|0.01237037777900696|-0.02288825809955597|0.00859367847442627|XArbitraryZVertical|-0.003392131907065278|-0.1773864624841657|0.30619841662398|0.9352887964996917|-0.3297378122806549|0.1149761527776718|-0.9370450973510742|0|0|0|-1|-1|3
2021-04-09 10:17:51.311 +0100|29291.20554829167|-0.33074951171875|0.1192474365234375|-0.9254608154296875|29291.18558729167|0.6135558399588346|-0.3388152385281069|-0.1165455526996014|-0.01374100800603628|-0.02589188888669014|0.04618160054087639|0.001624077558517456|0.009024396538734436|0.01362490653991699|XArbitraryZVertical|-0.003897507752481307|-0.1777900253033236|0.306520963680881|0.9351046115569539|-0.3301151990890503|0.1162818968296051|-0.9367510080337524|0|0|0|-1|-1|3
2021-04-09 10:17:51.331 +0100|29291.22550929167|-0.328338623046875|0.1162109375|-0.936553955078125|29291.20554829167|0.6142263284719172|-0.3389795554282072|-0.1164689769209809|0.007056631613522768|-0.01595813781023026|0.03205779194831848|0.006679058074951172|0.001348987221717834|0.01377743482589722|XArbitraryZVertical|-0.003776669706125088|-0.1778571078253533|0.3068292666069464|0.9349912376062448|-0.3302720785140991|0.1162058413028717|-0.9367051720619202|0|0|0|-1|-1|3
2021-04-09 10:17:51.358 +0100|29291.24547029167|-0.329925537109375|0.1228179931640625|-0.943817138671875|29291.22550929167|0.6148025781508057|-0.3389075120455377|-0.1164950894279161|-0.003878906834870577|-0.004164648707956076|0.0293142031878233|-0.0002864301204681396|0.001597709953784943|0.003849625587463379|XArbitraryZVertical|-0.003748772761493542|-0.177828273385024|0.3071003767384009|0.9349078454938289|-0.3302035927772522|0.1162317767739296|-0.9367260932922363|0|0|0|-1|-1|3
2021-04-09 10:17:51.371 +0100|29291.26543129167|-0.331024169921875|0.0983734130859375|-0.9476470947265625|29291.24547029167|0.6153181310649197|-0.3386564653915971|-0.1161848697731808|0.008922209963202477|0.004038206767290831|0.02119085378944874|0.001794427633285522|0.01058808714151382|-0.003846049308776855|XArbitraryZVertical|-0.00359557752827539|-0.1776671291451884|0.3073187375527808|0.9348672506340641|-0.3299803733825684|0.1159236505627632|-0.9368429183959961|0|0|0|-1|-1|3
2021-04-09 10:17:51.391 +0100|29291.28539229167|-0.32354736328125|0.1186065673828125|-0.9452362060546875|29291.26543129167|0.6155599836229952|-0.3385018318100414|-0.1165412358465083|-0.03011142648756504|0.01684210076928139|0.009715912863612175|3.364682197570801e-05|-0.01512598246335983|-0.0104411244392395|XArbitraryZVertical|-0.003765495194988679|-0.1776467326538334|0.3074569598623954|0.9348250478005|-0.329821765422821|0.1162776052951813|-0.9368548989295959|0|0|0|-1|-1|3
2021-04-09 10:17:51.411 +0100|29291.30535329167|-0.330780029296875|0.1104583740234375|-0.941009521484375|29291.28539229167|0.6157532845649899|-0.3381627762933264|-0.1172374211174917|-0.02080464363098145|0.005166481714695692|0.02088014967739582|0.003503739833831787|-0.001840367913246155|-0.01277107000350952|XArbitraryZVertical|-0.004127927750383046|-0.1775891763785508|0.3075963445001577|0.9347885073043798|-0.3294771611690521|0.1169690415263176|-0.9368900656700134|0|0|0|-1|-1|3
2021-04-09 10:17:51.431 +0100|29291.32531429167|-0.3395843505859375|0.1121978759765625|-0.9385223388671875|29291.30535329167|0.6158519323300085|-0.3381598116571292|-0.1175114613407306|-0.008175368420779705|0.006486344616860151|-0.002533207647502422|0.002895236015319824|-0.004813320934772491|-0.003614544868469238|XArbitraryZVertical|-0.004248530036575221|-0.1776275640593463|0.3076619686364576|0.9347591208779641|-0.3294637501239777|0.117241196334362|-0.9368607997894287|0|0|0|-1|-1|3
2021-04-09 10:17:51.451 +0100|29291.34527529167|-0.3364410400390625|0.119232177734375|-0.935791015625|29291.32531429167|0.6157095075208702|-0.3378595717674363|-0.1177125155214876|-0.002503400668501854|0.01367645338177681|0.0003459355793893337|-0.0125611424446106|-0.01129961013793945|-0.005872547626495361|XArbitraryZVertical|-0.004401931276408085|-0.177515957349181|0.3076090701453011|0.934797030412989|-0.3291746377944946|0.117440864443779|-0.9369373917579651|0|0|0|-1|-1|3
2021-04-09 10:17:51.471 +0100|29291.36523729167|-0.3428192138671875|0.103363037109375|-0.9322052001953125|29291.34527529167|0.6157390692154296|-0.3376056543714271|-0.1174460373661669|0.0174037292599678|0.008041365072131157|-0.01011238619685173|-0.003511339426040649|0.003964416682720184|0.005257368087768555|XArbitraryZVertical|-0.004313007443789085|-0.1773588675929774|0.3076033784695954|0.9348290979105687|-0.3289470672607422|0.1171762198209763|-0.937050461769104|0|0|0|-1|-1|3
2021-04-09 10:17:51.491 +0100|29291.38519829167|-0.3435516357421875|0.105194091796875|-0.93609619140625|29291.36523729167|0.6155099071296337|-0.3373225787108223|-0.11698788519735|-0.008900313638150692|0.01785708218812943|-0.02771712467074394|-0.01497408747673035|-0.01047314703464508|0.004516005516052246|XArbitraryZVertical|-0.004161334681108061|-0.1771598895384411|0.3074630409045725|0.9349137989524253|-0.32869952917099|0.1167212128639221|-0.9371941089630127|0|0|0|-1|-1|3
2021-04-09 10:17:51.511 +0100|29291.40515929167|-0.3295440673828125|0.112884521484375|-0.9245147705078125|29291.38519829167|0.6147263248327239|-0.3367923771193577|-0.1167854163474314|-0.002731583779677749|0.03429235517978668|-0.05088529363274574|-0.01573789119720459|-0.0115843266248703|7.37309455871582e-05|XArbitraryZVertical|-0.004216891569022967|-0.1768811646028656|0.3070812168072687|0.9350917858515146|-0.3282103836536407|0.1165201291441917|-0.9373905658721924|0|0|0|-1|-1|3
2021-04-09 10:17:51.531 +0100|29291.42512029167|-0.3341217041015625|0.0958709716796875|-0.9101715087890625|29291.40515929167|0.6137719338779459|-0.3364545305336655|-0.1160742195615704|0.02860679849982262|0.02404914423823357|-0.05453107506036758|-0.004293322563171387|-0.003919929265975952|0.0108216404914856|XArbitraryZVertical|-0.004018415907330112|-0.1766187218026154|0.3065837306562703|0.9353054782836632|-0.3279209434986115|0.115813747048378|-0.937579333782196|0|0|0|-1|-1|3
2021-04-09 10:17:51.551 +0100|29291.44508129167|-0.34808349609375|0.0717620849609375|-0.90179443359375|29291.42512029167|0.6127591938369563|-0.3364771962613318|-0.1152240855889916|0.01945387944579124|0.0008991388604044914|-0.06731788814067841|-0.003385186195373535|-0.01609122753143311|0.02463972568511963|XArbitraryZVertical|-0.00370424869271534|-0.1765050201852494|0.3060497066474857|0.9355030185744933|-0.3279745876789093|0.114969290792942|-0.9376645088195801|0|0|0|-1|-1|3
2021-04-09 10:17:51.571 +0100|29291.46504229167|-0.3646240234375|0.0294647216796875|-0.868377685546875|29291.44508129167|0.6110111517419652|-0.3369894165533998|-0.1152119081224729|-0.08928531408309937|-0.00259812455624342|-0.08868318051099777|-0.01791912317276001|-0.0315057709813118|0.03422331809997559|XArbitraryZVertical|-0.003774608962523061|-0.1767396258950892|0.3052320544572268|0.9357255384028472|-0.3284552991390228|0.1149571910500526|-0.9374977350234985|0|0|0|-1|-1|3
2021-04-09 10:17:51.591 +0100|29291.48500329167|-0.361297607421875|0.0181121826171875|-0.8745880126953125|29291.46504229167|0.6072524836383385|-0.337485022152649|-0.1181470954099346|-0.3425072431564331|0.03053697943687439|-0.1511146873235703|-0.03593924641609192|-0.07671836018562317|0.06399619579315186|XArbitraryZVertical|-0.005414084580320965|-0.1773823156938336|0.3036835327428388|0.9360997652959901|-0.3288067579269409|0.1178724244236946|-0.9370123744010925|0|0|0|-1|-1|3
2021-04-09 10:17:51.611 +0100|29291.50496429167|-0.401611328125|0.0234222412109375|-0.90966796875|29291.48500329167|0.6008262895755281|-0.3373795575131055|-0.1250921155893061|-0.4839246869087219|0.06225192174315453|-0.1735589206218719|-0.04065051674842834|-0.128579705953598|0.06917142868041992|XArbitraryZVertical|-0.009274196872104089|-0.1782918690701452|0.3011681978584499|0.9367090308322733|-0.3284290134906769|0.1247661262750626|-0.9362519979476929|0|0|0|-1|-1|3
2021-04-09 10:17:51.631 +0100|29291.52492529167|-0.3740081787109375|-0.0894317626953125|-0.885772705078125|29291.50496429167|0.5940184477800856|-0.3364972178721039|-0.1288099404509885|-0.04266412183642387|0.1396976113319397|-0.3287905156612396|-0.06627506017684937|-0.09090106189250946|0.03698837757110596|XArbitraryZVertical|-0.01176716423067222|-0.1783619393774417|0.2982366194238648|0.9376052420685632|-0.327447384595871|0.1284540295600891|-0.9360970854759216|0|0|0|-1|-1|3
2021-04-09 10:17:51.651 +0100|29291.54488491667|-0.466644287109375|-0.2755126953125|-1.147262573242188|29291.52492529167|0.5881547846853156|-0.3327956170008066|-0.1196102337893301|0.1263583600521088|0.4074620008468628|-0.4545577466487885|-0.04845023155212402|-0.2545322477817535|-0.01283752918243408|XArbitraryZVertical|-0.008489994268580093|-0.1753223540937343|0.2948170433384517|0.9392938505577066|-0.3243524134159088|0.1193252354860306|-0.9383800029754639|0|0|0|-1|-1|3
2021-04-09 10:17:51.671 +0100|29291.56484591667|-0.4341888427734375|0.42572021484375|-0.841888427734375|29291.54488491667|0.5590284491801831|-0.3326119298338131|-0.1544955949218589|-1.49401867389679|0.4482651352882385|-0.6651124954223633|-0.1482927799224854|-0.4930529594421387|0.06101018190383911|XArbitraryZVertical|-0.02761800847144581|-0.1796380759069225|0.2835500470808744|0.9415767963822248|-0.3226239085197449|0.1538817286491394|-0.9339348077774048|0|0|0|-1|-1|3
2021-04-09 10:17:51.691 +0100|29291.58480791667|-0.360107421875|-0.2436370849609375|-0.7169342041015625|29291.56484591667|0.5340404003317933|-0.327359561754868|-0.1761436277357953|-0.9162690043449402|0.4439411163330078|-1.123026132583618|-0.1456963717937469|0.4026935696601868|0.1425399780273438|XArbitraryZVertical|-0.04087788763265403|-0.1794642471354012|0.2731475626958466|0.9441992376791803|-0.3165686130523682|0.1752341836690903|-0.9322431683540344|0|0|0|-1|-1|3
2021-04-09 10:17:51.711 +0100|29291.60476891667|-0.4832916259765625|0.1231536865234375|-0.6691436767578125|29291.58480791667|0.5030798326922681|-0.3250056902078772|-0.1874483433316171|-1.403531551361084|0.3146657347679138|-1.274913668632507|-0.01927182078361511|-0.3360401391983032|0.1949498653411865|XArbitraryZVertical|-0.04935594428190816|-0.1789959407307151|0.2592034498751959|0.9478069549126469|-0.3137207329273224|0.186352550983429|-0.9310488700866699|0|0|0|-1|-1|3
2021-04-09 10:17:51.731 +0100|29291.62472991667|-0.4619598388671875|0.168853759765625|-0.691497802734375|29291.60476891667|0.4654557552465619|-0.324761180736039|-0.2102022107753377|-1.726590871810913|0.4019578695297241|-1.514612317085266|-0.1846145391464233|-0.167991891503334|0.2674580216407776|XArbitraryZVertical|-0.06365649409704|-0.1803183309549261|0.2428458621259827|0.9510305634499193|-0.3120590448379517|0.2086576670408249|-0.9268662929534912|0|0|0|-1|-1|3
2021-04-09 10:17:51.751 +0100|29291.64469091667|-0.4878997802734375|0.1046142578125|-0.708770751953125|29291.62472991667|0.4233539509454678|-0.3267512732426491|-0.2298042304392702|-1.495487213134766|0.3180139362812042|-1.734326839447021|-0.1525579690933228|-0.02826187014579773|0.2328612804412842|XArbitraryZVertical|-0.07665050754074988|-0.1817379421081154|0.224166556970934|0.954382248159001|-0.312529981136322|0.2277868986129761|-0.9221920371055603|0|0|0|-1|-1|3
2021-04-09 10:17:51.771 +0100|29291.66465191667|-0.5079498291015625|0.1409149169921875|-0.7052001953125|29291.64469091667|0.3777790870449067|-0.3319039002178186|-0.2478147060423515|-1.704047679901123|0.2486665546894073|-1.878665328025818|-0.1633740961551666|-0.1452025175094604|0.2180709838867188|XArbitraryZVertical|-0.08894465069040208|-0.1838966977336812|0.2038218186604686|0.9574588896679891|-0.3158893287181854|0.2452860176563263|-0.9165416955947876|0|0|0|-1|-1|3
2021-04-09 10:17:51.791 +0100|29291.68461291667|-0.5436859130859375|0.247711181640625|-0.7132568359375|29291.66465191667|0.3277696089498739|-0.3400984735414|-0.2686454381124792|-1.831059575080872|0.2269607186317444|-2.011331081390381|-0.169565737247467|-0.1424845457077026|0.1996642351150513|XArbitraryZVertical|-0.1028573764508445|-0.1869934240119684|0.1817100885402166|0.9599142453636484|-0.3216148614883423|0.2654257118701935|-0.9089076519012451|0|0|0|-1|-1|3
2021-04-09 10:17:51.811 +0100|29291.70457391667|-0.5343170166015625|0.3163299560546875|-0.6962890625|29291.68461291667|0.273643838763879|-0.3501968398361911|-0.2890927309527823|-1.8345787525177|0.2319694310426712|-2.184632301330566|-0.2217220366001129|-0.0714586079120636|0.188748836517334|XArbitraryZVertical|-0.1170024621050125|-0.1901237129382931|0.1577677715450597|0.9619110976866014|-0.3288457691669464|0.2850827276706696|-0.9003267884254456|0|0|0|-1|-1|3
2021-04-09 10:17:51.831 +0100|29291.72453491667|-0.5576629638671875|0.34912109375|-0.7192535400390625|29291.70457391667|0.2167332188637712|-0.3627488311611775|-0.3071833584663433|-1.820924639701843|0.1891348361968994|-2.298806190490723|-0.1958230137825012|0.0115145742893219|0.1833207011222839|XArbitraryZVertical|-0.1303168475324446|-0.1934875023969743|0.1325626596773353|0.963331359327232|-0.3382348716259003|0.3023750483989716|-0.8911601901054382|0|0|0|-1|-1|3
2021-04-09 10:17:51.860 +0100|29291.74449591667|-0.5831146240234375|0.4139862060546875|-0.7584686279296875|29291.72453491667|0.156112678528033|-0.3782932980176884|-0.3253850916094615|-1.967860102653503|0.1456368267536163|-2.386469841003418|-0.2009637653827667|0.0007466375827789307|0.1747697591781616|XArbitraryZVertical|-0.14413483655663|-0.1973781623975496|0.1059371223154703|0.9638694991741172|-0.3499551117420197|0.3196736872196198|-0.8805339932441711|0|0|0|-1|-1|3
2021-04-09 10:17:51.872 +0100|29291.76445691667|-0.600006103515625|0.5126495361328125|-0.855621337890625|29291.74449591667|0.09355850034196803|-0.3959230853827406|-0.3433482939298886|-1.917474150657654|0.1391886323690414|-2.415103435516357|-0.2151888310909271|0.05464029312133789|0.1092985272407532|XArbitraryZVertical|-0.1582508605568081|-0.2014005097197757|0.07873589690378435|0.963429001214219|-0.3631501495838165|0.3366418480873108|-0.86878901720047|0|0|0|-1|-1|3
2021-04-09 10:17:51.890 +0100|29291.78441891667|-0.553955078125|0.510345458984375|-0.920440673828125|29291.76445691667|0.03056588778004278|-0.4144508687370133|-0.3589609792565004|-1.870769143104553|0.1838629394769669|-2.36501145362854|-0.2296840846538544|0.1432061791419983|0.03598231077194214|XArbitraryZVertical|-0.1715849372535116|-0.2050866566638306|0.05144021300760435|0.9622121549915311|-0.3770210146903992|0.3513016402721405|-0.8569961190223694|0|0|0|-1|-1|3
2021-04-09 10:17:51.910 +0100|29291.80437991667|-0.5073089599609375|0.5174407958984375|-0.943572998046875|29291.78441891667|-0.0321292865279193|-0.4327253198849101|-0.3755980137530966|-1.995659708976746|0.2530029118061066|-2.326262712478638|-0.1769648790359497|0.1542748808860779|-0.07344311475753784|XArbitraryZVertical|-0.185708582536788|-0.2079475472525047|0.02466111086224148|0.9600323259469949|-0.3901131749153137|0.3668289184570312|-0.8445402979850769|0|0|0|-1|-1|3
2021-04-09 10:17:51.930 +0100|29291.82434091667|-0.478729248046875|0.457763671875|-0.9344635009765625|29291.80437991667|-0.09585164521956457|-0.4502912116548173|-0.3908901538221694|-1.891520023345947|0.3476170897483826|-2.394179105758667|-0.1137761771678925|0.1331341862678528|-0.1047694087028503|XArbitraryZVertical|-0.1995760535247029|-0.2096775091868213|-0.002503556882118447|0.9571826081293093|-0.4023986160755157|0.381011575460434|-0.8324095010757446|0|0|0|-1|-1|3
2021-04-09 10:17:51.951 +0100|29291.84430191667|-0.4488525390625|0.3731231689453125|-0.818023681640625|29291.82434091667|-0.1595747861822532|-0.467414175833985|-0.400589528303265|-1.562878489494324|0.3925726413726807|-2.495766401290894|-0.06661459803581238|0.09507071971893311|-0.1194528341293335|XArbitraryZVertical|-0.2110226781067872|-0.2108071013921367|-0.03005667498051297|0.9540054907955718|-0.4149075448513031|0.3899612724781036|-0.8220595717430115|0|0|0|-1|-1|3
2021-04-09 10:17:51.970 +0100|29291.86426291667|-0.369354248046875|0.35504150390625|-0.6822967529296875|29291.84430191667|-0.2229284902030623|-0.4846812414642966|-0.4019842968641197|-1.241030931472778|0.3285673856735229|-2.599698781967163|-0.03622648119926453|-0.007440090179443359|-0.02672690153121948|XArbitraryZVertical|-0.2187611147360077|-0.2121273720775788|-0.05819761946239124|0.950662208762412|-0.4287857115268707|0.3912452459335327|-0.8142911195755005|0|0|0|-1|-1|3
2021-04-09 10:17:51.990 +0100|29291.88422391667|-0.3704986572265625|0.3456268310546875|-0.644500732421875|29291.86426291667|-0.283405197507052|-0.504187570198351|-0.3952583935844531|-0.8209340572357178|0.07392860949039459|-2.621742010116577|0.06810095906257629|-0.03107255697250366|0.0899806022644043|XArbitraryZVertical|-0.2227747322621771|-0.2152723220855621|-0.08561885061526671|0.9469417955039027|-0.445848137140274|0.385046660900116|-0.808058500289917|0|0|0|-1|-1|3
2021-04-09 10:17:52.010 +0100|29291.90418491667|-0.4721221923828125|0.285797119140625|-0.634979248046875|29291.88422391667|-0.3390396460355963|-0.5269849357309759|-0.3810068579319763|-0.5607557892799377|-0.2620992064476013|-2.530471563339233|0.1045900881290436|-0.02679234743118286|0.1375528573989868|XArbitraryZVertical|-0.2233434152267694|-0.2212333008368423|-0.1113286267103226|0.9427511290152141|-0.4668649137020111|0.3718553185462952|-0.8023470640182495|0|0|0|-1|-1|3
2021-04-09 10:17:52.030 +0100|29291.92414591667|-0.5240478515625|0.3874664306640625|-0.6263275146484375|29291.90418491667|-0.3921160521949357|-0.5542934698106878|-0.3679247763693037|-0.9908790588378906|-0.5111936926841736|-2.356516599655151|0.03848022222518921|-0.04406639933586121|0.1651650667190552|XArbitraryZVertical|-0.2249768148749238|-0.2295671450150404|-0.1351169969790778|0.9372448304733371|-0.4911176264286041|0.3596798777580261|-0.7933686971664429|0|0|0|-1|-1|3
2021-04-09 10:17:52.050 +0100|29291.94410691667|-0.562347412109375|0.532470703125|-0.655609130859375|29291.92414591667|-0.4466851069563488|-0.586041461416335|-0.3647911410746897|-1.346113801002502|-0.6628739237785339|-2.138599872589111|0.01688748598098755|-0.02337953448295593|0.1495313048362732|XArbitraryZVertical|-0.2322565799167935|-0.2385361545793451|-0.1574408244767166|0.9297149825673573|-0.5166746377944946|0.3567541837692261|-0.7783147692680359|0|0|0|-1|-1|3
2021-04-09 10:17:52.070 +0100|29291.96406891667|-0.6268463134765625|0.5940093994140625|-0.8083343505859375|29291.94410691667|-0.4970543188460482|-0.6173288322686149|-0.3608085300618086|-1.117364883422852|-0.7613176703453064|-1.98909604549408|-0.04866909980773926|0.1691713035106659|0.07876604795455933|XArbitraryZVertical|-0.2392070124899446|-0.2476251110824807|-0.17771570302593|0.9218888601544918|-0.5415873527526855|0.3530308306217194|-0.7629235982894897|0|0|0|-1|-1|3
2021-04-09 10:17:52.090 +0100|29291.98402991667|-0.66668701171875|0.628448486328125|-0.9080963134765625|29291.96406891667|-0.5416390534557266|-0.6478880294626892|-0.3533790904936126|-0.816143810749054|-0.7256574034690857|-1.794159412384033|-0.0413779616355896|0.2131498456001282|-0.03067177534103394|XArbitraryZVertical|-0.244384269596663|-0.2573542160723221|-0.195748042964642|0.9141816660312259|-0.5662124752998352|0.3460700809955597|-0.7480902671813965|0|0|0|-1|-1|3
2021-04-09 10:17:52.110 +0100|29292.00399091667|-0.67230224609375|0.5548095703125|-0.929840087890625|29291.98402991667|-0.5791297735175025|-0.6740391374980952|-0.3436128610873441|-0.6358080506324768|-0.6046960353851318|-1.613392949104309|-0.07743930816650391|0.2803733646869659|-0.15328049659729|XArbitraryZVertical|-0.2476572661924251|-0.2661738356432563|-0.2113254305639512|0.9072811746421482|-0.5876615643501282|0.3368909358978271|-0.7356347441673279|0|0|0|-1|-1|3
2021-04-09 10:17:52.130 +0100|29292.02395191667|-0.6854248046875|0.5889892578125|-0.90924072265625|29292.00399091667|-0.6124617681390638|-0.6957985419288947|-0.3345166970894927|-0.6992471218109131|-0.4582604765892029|-1.412919640541077|-0.06053364276885986|0.231914222240448|-0.2025538682937622|XArbitraryZVertical|-0.2505677053199983|-0.2733450810617612|-0.2253351458692436|0.9009564941616448|-0.6054674983024597|0.3283126950263977|-0.7249965667724609|0|0|0|-1|-1|3
2021-04-09 10:17:52.150 +0100|29292.04391291667|-0.68890380859375|0.5806732177734375|-0.8597259521484375|29292.02395191667|-0.6438286183093647|-0.713656995090836|-0.3288232154432676|-0.7596319913864136|-0.312591940164566|-1.220785617828369|-0.06748133897781372|0.252250999212265|-0.207090437412262|XArbitraryZVertical|-0.2545077374079887|-0.2783713831983491|-0.2382217105063342|0.8949781547383645|-0.6195311546325684|0.3229295015335083|-0.7154703736305237|0|0|0|-1|-1|3
2021-04-09 10:17:52.170 +0100|29292.06387391667|-0.6585235595703125|0.533599853515625|-0.7775726318359375|29292.04391291667|-0.6722410309184821|-0.7276247695609341|-0.3250430429709904|-0.7453358769416809|-0.1707511246204376|-1.049986839294434|-0.05773305892944336|0.2773305475711823|-0.1682608127593994|XArbitraryZVertical|-0.2585733913351997|-0.2816254026802963|-0.2498217723034162|0.889615685772623|-0.6302712559700012|0.3193495869636536|-0.7076538801193237|0|0|0|-1|-1|3
2021-04-09 10:17:52.190 +0100|29292.08383491667|-0.5897979736328125|0.509735107421875|-0.70831298828125|29292.06387391667|-0.6978533266251301|-0.7377597402331691|-0.3237580641482788|-0.779030978679657|-0.03427978232502937|-0.8488228917121887|-0.03368586301803589|0.2202446162700653|-0.09770631790161133|XArbitraryZVertical|-0.2629358832457012|-0.2830163649360516|-0.2601096255811179|0.8849347114305598|-0.6376863121986389|0.3181316256523132|-0.7015329003334045|0|0|0|-1|-1|3
2021-04-09 10:17:52.210 +0100|29292.10379591667|-0.5345306396484375|0.458831787109375|-0.670623779296875|29292.08383491667|-0.7204878223122162|-0.744788161308829|-0.3246474058916836|-0.7484734654426575|0.04158004373311996|-0.6797656416893005|0.03402525186538696|0.1952163875102997|-0.0255705714225769|XArbitraryZVertical|-0.2674428260220537|-0.2829516349589172|-0.2689979194229729|0.8809386274509706|-0.6424092054367065|0.318974643945694|-0.696825385093689|0|0|0|-1|-1|3
2021-04-09 10:17:52.230 +0100|29292.12375691667|-0.4652099609375|0.4807891845703125|-0.6567840576171875|29292.10379591667|-0.7408444147428739|-0.7500650862312537|-0.3272800169294504|-0.779424250125885|0.08415829390287399|-0.5671208500862122|0.09871846437454224|0.1500588357448578|0.01272565126419067|XArbitraryZVertical|-0.2721395970628564|-0.2820204652328552|-0.2767206658049013|0.8773996887972814|-0.6455026268959045|0.3214686214923859|-0.692808985710144|0|0|0|-1|-1|3
2021-04-09 10:17:52.250 +0100|29292.14371791667|-0.448883056640625|0.5151824951171875|-0.6676483154296875|29292.12375691667|-0.7607076855392066|-0.7546007804992479|-0.3322810874082359|-0.8436765670776367|0.09219145029783249|-0.4681536257266998|0.1626039147377014|0.1416956186294556|0.03532898426055908|XArbitraryZVertical|-0.2776467386575947|-0.2802948404960904|-0.283811214255317|0.8739555687792413|-0.6475290060043335|0.3262001872062683|-0.688694179058075|0|0|0|-1|-1|3
2021-04-09 10:17:52.270 +0100|29292.16367991667|-0.45294189453125|0.4826812744140625|-0.6773223876953125|29292.14371791667|-0.7787379163230916|-0.758930275241001|-0.3375330665918131|-0.7123724818229675|0.07183381915092468|-0.4259372651576996|0.2058802843093872|0.1950240135192871|0.02162301540374756|XArbitraryZVertical|-0.2829565289620458|-0.2786031266456557|-0.2900295632761354|0.8707462147335697|-0.6493167281150818|0.3311603665351868|-0.6846318244934082|0|0|0|-1|-1|3
2021-04-09 10:17:52.290 +0100|29292.18364091667|-0.471527099609375|0.505279541015625|-0.70361328125|29292.16367991667|-0.7950788548876867|-0.7629855791887101|-0.3423639604494997|-0.7226675748825073|0.06613364070653915|-0.3541476130485535|0.1966128349304199|0.1361177861690521|0.006284356117248535|XArbitraryZVertical|-0.2878036060712625|-0.2770464379549289|-0.2955912430151221|0.8677789026839032|-0.6509745717048645|0.3357147872447968|-0.6808286905288696|0|0|0|-1|-1|3
2021-04-09 10:17:52.310 +0100|29292.20360191667|-0.507293701171875|0.4512481689453125|-0.7053680419921875|29292.18364091667|-0.8099219026536838|-0.7661263627376285|-0.3491778453820966|-0.6498291492462158|0.05396821722388268|-0.3078985214233398|0.1909364461898804|0.1673811078071594|-0.02307778596878052|XArbitraryZVertical|-0.2931005027293186|-0.2748340468286493|-0.3002006137057615|0.8651231853371127|-0.6515085101127625|0.3421253859996796|-0.6771166920661926|0|0|0|-1|-1|3
2021-04-09 10:17:52.330 +0100|29292.22356291667|-0.52490234375|0.49432373046875|-0.6927032470703125|29292.20360191667|-0.8234839149235771|-0.7677255709751009|-0.3584193236953966|-0.7355644702911377|0.08216182142496109|-0.2237276434898376|0.1469480991363525|0.1080376505851746|-0.03071194887161255|XArbitraryZVertical|-0.2989452763520723|-0.2715632662162131|-0.3039612672732718|0.8628399807087171|-0.6503668427467346|0.3507944345474243|-0.6737702488899231|0|0|0|-1|-1|3
2021-04-09 10:17:52.361 +0100|29292.24352391667|-0.556549072265625|0.5250701904296875|-0.6827850341796875|29292.22356291667|-0.8365151232188767|-0.7681915671580579|-0.3711916404468621|-0.749387800693512|0.07265955954790115|-0.1453821510076523|0.1279367804527283|0.1217558681964874|-0.02564036846160889|XArbitraryZVertical|-0.305924857398273|-0.2670486475472551|-0.3069199374226263|0.8607526808960021|-0.6475145816802979|0.3627261817455292|-0.6701899766921997|0|0|0|-1|-1|3
2021-04-09 10:17:52.373 +0100|29292.26348491667|-0.5907440185546875|0.4896697998046875|-0.67047119140625|29292.24352391667|-0.8472076853943249|-0.7681664407530161|-0.3832098995596323|-0.6361055970191956|0.05333251878619194|-0.04874881729483604|0.0938536524772644|0.1491110324859619|-0.01824855804443359|XArbitraryZVertical|-0.3121595551197284|-0.2627641775872667|-0.3090756058121532|0.8590598294525299|-0.6444221138954163|0.3738994598388672|-0.6670228242874146|0|0|0|-1|-1|3
2021-04-09 10:17:52.390 +0100|29292.28344591667|-0.60546875|0.49420166015625|-0.6657867431640625|29292.26348491667|-0.8550757151240781|-0.7674508530123825|-0.3951431269461861|-0.5940397381782532|0.03341798856854439|0.03728930652141571|0.05931824445724487|0.1170740723609924|-0.007969379425048828|XArbitraryZVertical|-0.3178396301304864|-0.2585833788261684|-0.3101268796312563|0.8578659670629892|-0.6408010125160217|0.3849402964115143|-0.6642252206802368|0|0|0|-1|-1|3
2021-04-09 10:17:52.410 +0100|29292.30340691667|-0.6304168701171875|0.50994873046875|-0.7014923095703125|29292.28344591667|-0.8615377551916892|-0.7670030015328275|-0.4069047131940817|-0.6014702916145325|-0.002885905560106039|0.1256245821714401|0.03528088331222534|0.09519833326339722|-0.002199053764343262|XArbitraryZVertical|-0.3232764822404801|-0.2547333511191603|-0.3105554902005653|0.8568305814475341|-0.6373172402381897|0.3957686722278595|-0.6612064838409424|0|0|0|-1|-1|3
2021-04-09 10:17:52.429 +0100|29292.32336791667|-0.67724609375|0.499176025390625|-0.732666015625|29292.30340691667|-0.8663188107605918|-0.7671061902451111|-0.4186350654141705|-0.5039267539978027|-0.03473416715860367|0.2010263949632645|0.01275032758712769|0.09591260552406311|-0.03481197357177734|XArbitraryZVertical|-0.3285437800159706|-0.2513612298735844|-0.3101684672454597|0.8559626691091604|-0.6341195106506348|0.4065137803554535|-0.657753050327301|0|0|0|-1|-1|3
2021-04-09 10:17:52.449 +0100|29292.34332991667|-0.686370849609375|0.4515838623046875|-0.6830596923828125|29292.32336791667|-0.8690282297306096|-0.7675438042298852|-0.4308172732745046|-0.4176736176013947|-0.01055991090834141|0.2776665985584259|-0.03692585229873657|0.08810871839523315|-0.06831926107406616|XArbitraryZVertical|-0.3337578146275229|-0.2483428607603916|-0.3087324272473567|0.8553455528242129|-0.6309216618537903|0.4176135361194611|-0.6538630723953247|0|0|0|-1|-1|3
2021-04-09 10:17:52.469 +0100|29292.36329091667|-0.6968536376953125|0.4454345703125|-0.67767333984375|29292.34332991667|-0.870869869662921|-0.7678704504765443|-0.4438091680389935|-0.533130943775177|0.008714770898222923|0.3423427045345306|-0.05657106637954712|0.03962692618370056|-0.04011964797973633|XArbitraryZVertical|-0.339145211646918|-0.2452164762402824|-0.3067606586555101|0.8548377410783352|-0.6273134350776672|0.429382711648941|-0.649698793888092|0|0|0|-1|-1|3
2021-04-09 10:17:52.489 +0100|29292.38325191667|-0.680389404296875|0.4783477783203125|-0.672698974609375|29292.36329091667|-0.8742874248721008|-0.7685573785967476|-0.4590533206486184|-0.6788110136985779|0.03383056446909904|0.405608057975769|-0.07736432552337646|-0.0005640089511871338|-0.03245329856872559|XArbitraryZVertical|-0.3456381681284619|-0.2414350281110483|-0.3049117129227516|0.8539745088336294|-0.6231369972229004|0.4430996477603912|-0.6444867849349976|0|0|0|-1|-1|3
2021-04-09 10:17:52.510 +0100|29292.40321291667|-0.6562957763671875|0.4411773681640625|-0.6646881103515625|29292.38325191667|-0.8769772092211391|-0.7683821049379697|-0.4742135106626558|-0.5426620244979858|0.04859257116913795|0.4115587770938873|-0.06613439321517944|0.02212107181549072|-0.03302139043807983|XArbitraryZVertical|-0.3518471433283829|-0.2373975874075053|-0.3028978079738144|0.8532871669338066|-0.6182841062545776|0.4566388726234436|-0.639691948890686|0|0|0|-1|-1|3
2021-04-09 10:17:52.529 +0100|29292.42317391667|-0.625732421875|0.4282989501953125|-0.6706390380859375|29292.40321291667|-0.8777159108398754|-0.767124885143824|-0.4865979899140834|-0.438402384519577|0.07203158736228943|0.3901417255401611|-0.05037319660186768|-0.01986733078956604|-0.0278657078742981|XArbitraryZVertical|-0.3565587806842098|-0.2338623317831083|-0.3008161829163339|0.8530439385440099|-0.6135069727897644|0.4676214754581451|-0.6363484859466553|0|0|0|-1|-1|3
2021-04-09 10:17:52.549 +0100|29292.44313491667|-0.600555419921875|0.40924072265625|-0.667877197265625|29292.42317391667|-0.877968298494306|-0.7654005742654324|-0.4970381348222793|-0.3947663307189941|0.08577743917703629|0.363343745470047|-0.02337765693664551|-0.04989829659461975|-0.03555184602737427|XArbitraryZVertical|-0.3603784579121705|-0.2306560618900061|-0.2990187198559898|0.852943767128552|-0.6089931130409241|0.476824164390564|-0.6338502764701843|0|0|0|-1|-1|3
2021-04-09 10:17:52.569 +0100|29292.46309591667|-0.5705108642578125|0.4237213134765625|-0.6602935791015625|29292.44313491667|-0.8784954630224969|-0.7638756482707343|-0.505938894588465|-0.4097690582275391|0.07748856395483017|0.3282226026058197|-0.003974020481109619|-0.07091715931892395|-0.03656953573226929|XArbitraryZVertical|-0.3636567385079813|-0.2278369437325372|-0.2976281783079677|0.8527963968316175|-0.6050660610198975|0.4846289157867432|-0.6316881775856018|0|0|0|-1|-1|3
2021-04-09 10:17:52.590 +0100|29292.48305691667|-0.5704803466796875|0.4229888916015625|-0.6534271240234375|29292.46309591667|-0.8799932614057151|-0.763483403405318|-0.5150758225938167|-0.4210310876369476|0.03499681502580643|0.2937691211700439|0.02775585651397705|-0.07487601041793823|-0.03282845020294189|XArbitraryZVertical|-0.367297231674177|-0.2252612430383189|-0.2963922271545401|0.852350827216019|-0.6017313003540039|0.4926008284091949|-0.6287002563476562|0|0|0|-1|-1|3
2021-04-09 10:17:52.609 +0100|29292.50301791667|-0.5741424560546875|0.4625701904296875|-0.642059326171875|29292.48305691667|-0.8817707044352469|-0.7639913816148131|-0.5233375027867|-0.3850621581077576|-0.01886774785816669|0.2637603580951691|0.02913022041320801|-0.0802941620349884|-0.02571827173233032|XArbitraryZVertical|-0.37075448987964|-0.2232127270567089|-0.2952904184710539|0.851775083574661|-0.5992145538330078|0.4997737109661102|-0.625434398651123|0|0|0|-1|-1|3
2021-04-09 10:17:52.629 +0100|29292.52297991667|-0.5912628173828125|0.4546051025390625|-0.662017822265625|29292.50301791667|-0.8825900482889709|-0.7648568798143227|-0.5300499766866174|-0.2860204577445984|-0.08433245122432709|0.2350465059280396|0.02558010816574097|-0.04753786325454712|-0.02035552263259888|XArbitraryZVertical|-0.3735529247705013|-0.2218504862631858|-0.2940392074861494|0.8513411366345577|-0.5974193215370178|0.5055764317512512|-0.6224811673164368|0|0|0|-1|-1|3
2021-04-09 10:17:52.652 +0100|29292.542942375|-0.6042022705078125|0.46759033203125|-0.674957275390625|29292.52297991667|-0.8823019167384111|-0.7663556643993669|-0.5346068735969054|-0.1955640614032745|-0.1472515016794205|0.2050928622484207|0.01132810115814209|-0.0556909441947937|-0.03904640674591064|XArbitraryZVertical|-0.3754890701973208|-0.2214691127235316|-0.2926560578511365|0.851065199212037|-0.5967476367950439|0.5095028281211853|-0.6199187636375427|0|0|0|-1|-1|3
2021-04-09 10:17:52.669 +0100|29292.562903375|-0.6152496337890625|0.4580230712890625|-0.685302734375|29292.542942375|-0.8811232031204167|-0.7679641621668396|-0.5375683258364938|-0.1310694068670273|-0.1654646396636963|0.172661080956459|-0.008806884288787842|-0.04233729839324951|-0.05366837978363037|XArbitraryZVertical|-0.376728157777609|-0.221677454153684|-0.2912135680528824|0.8509581207841459|-0.5966931581497192|0.5120487809181213|-0.6178699731826782|0|0|0|-1|-1|3
2021-04-09 10:17:52.689 +0100|29292.582864375|-0.6170654296875|0.5065460205078125|-0.6833038330078125|29292.562903375|-0.8799498325190086|-0.7697612271971683|-0.5400176897140592|-0.1368483304977417|-0.1420843899250031|0.1686165332794189|-0.01482826471328735|-0.06236875057220459|-0.06876671314239502|XArbitraryZVertical|-0.377796921179837|-0.2220863768774575|-0.2898460906869462|0.8508445469219156|-0.5969278812408447|0.5141511559486389|-0.6158942580223083|0|0|0|-1|-1|3
2021-04-09 10:17:52.709 +0100|29292.602825375|-0.6275177001953125|0.4916534423828125|-0.66448974609375|29292.582864375|-0.8784130831607732|-0.7711493528389818|-0.5424863414051674|-0.05205652117729187|-0.1307697892189026|0.1618014872074127|-0.01573008298873901|-0.01948630809783936|-0.06953144073486328|XArbitraryZVertical|-0.3787714816058871|-0.2223862957687535|-0.2883951948077405|0.8508259813367159|-0.5968958139419556|0.516266942024231|-0.6141530275344849|0|0|0|-1|-1|3
2021-04-09 10:17:52.729 +0100|29292.622786375|-0.6229095458984375|0.4813995361328125|-0.6562957763671875|29292.602825375|-0.8754441362474873|-0.7713247697541006|-0.5431794973146133|0.0371694453060627|-0.08729527145624161|0.1379825323820114|-0.03023052215576172|-0.0161736011505127|-0.05924224853515625|XArbitraryZVertical|-0.3787315081356699|-0.2228601960752836|-0.2869484035377806|0.8512088535790934|-0.5967539548873901|0.5168604850769043|-0.6137915849685669|0|0|0|-1|-1|3
2021-04-09 10:17:52.749 +0100|29292.642747375|-0.622406005859375|0.486419677734375|-0.64666748046875|29292.622786375|-0.8723270867527179|-0.7707413730468985|-0.5429946513008896|0.04330916330218315|-0.06339521706104279|0.1178900524973869|-0.02817225456237793|-0.04059725999832153|-0.04591673612594604|XArbitraryZVertical|-0.3782295407374973|-0.2232450531924917|-0.2857718272506993|0.8517268550196389|-0.5964623093605042|0.5167022347450256|-0.6142081022262573|0|0|0|-1|-1|3
2021-04-09 10:17:52.768 +0100|29292.662708375|-0.608306884765625|0.506072998046875|-0.6538543701171875|29292.642747375|-0.8692880317490342|-0.7698760162029021|-0.5420176939557277|0.07286088168621063|-0.04791755974292755|0.1021989732980728|-0.02801722288131714|-0.02917104959487915|-0.03090900182723999|XArbitraryZVertical|-0.3773918491568544|-0.2236790331017201|-0.2848521161633893|0.8522924260722095|-0.5962816476821899|0.5158655643463135|-0.6150861382484436|0|0|0|-1|-1|3
2021-04-09 10:17:52.789 +0100|29292.682669375|-0.612060546875|0.4860992431640625|-0.676605224609375|29292.662708375|-0.8659510154844894|-0.7688271014489285|-0.540713136311147|0.111005999147892|-0.05567806586623192|0.08570557832717896|-0.01458448171615601|-0.0122905969619751|-0.03424102067947388|XArbitraryZVertical|-0.376367921889716|-0.2241649846819274|-0.2839091577578328|0.8529320257250608|-0.5961036086082458|0.5147475004196167|-0.616194486618042|0|0|0|-1|-1|3
2021-04-09 10:17:52.809 +0100|29292.702631375|-0.6297607421875|0.5042877197265625|-0.700958251953125|29292.682669375|-0.8626577282942389|-0.7680000286902114|-0.539341350843011|0.1062861159443855|-0.05491555109620094|0.0838782861828804|-0.01536726951599121|-0.02832591533660889|-0.05118519067764282|XArbitraryZVertical|-0.3753533208278536|-0.2247499993553319|-0.2829556498594719|0.8535418228176673|-0.5960837602615356|0.5135709643363953|-0.617194652557373|0|0|0|-1|-1|3
2021-04-09 10:17:52.829 +0100|29292.722592375|-0.645660400390625|0.5098724365234375|-0.7076263427734375|29292.702631375|-0.8600522718855728|-0.7677824727876835|-0.5380421182703546|0.06754424422979355|-0.05329081043601036|0.05902620404958725|-0.02927505970001221|-0.009083271026611328|-0.07639384269714355|XArbitraryZVertical|-0.3745287967086121|-0.2254468062448385|-0.2821642698761841|0.8539821072935985|-0.5964123606681824|0.5124557018280029|-0.6178038120269775|0|0|0|-1|-1|3
2021-04-09 10:17:52.849 +0100|29292.742553375|-0.624664306640625|0.5015411376953125|-0.6810150146484375|29292.722592375|-0.8581167231469941|-0.7675297408407994|-0.5371549191113486|0.04952269792556763|-0.01485803909599781|0.05811655893921852|-0.04690748453140259|-0.002278745174407959|-0.09361642599105835|XArbitraryZVertical|-0.3739326522723921|-0.2259062867960884|-0.2815760247679343|0.8543159417420511|-0.5965716242790222|0.5116936564445496|-0.6182814240455627|0|0|0|-1|-1|3
2021-04-09 10:17:52.869 +0100|29292.762514375|-0.593658447265625|0.526275634765625|-0.6505279541015625|29292.762514375|-0.8521754642274749|-0.7630368680904362|-0.5355388238398071|0.2075347304344177|0.05376767739653587|0.1222133412957191|-0.005648374557495117|0.01975554227828979|-0.03300297260284424|XArbitraryZVertical|-0.3720065673859367|-0.2254659796445572|-0.2802210347166694|0.8557175795760907|-0.5943585634231567|0.5103045105934143|-0.6215524077415466|0|0|0|-1|-1|3
2021-04-09 10:17:52.889 +0100|29292.782475375|-0.567840576171875|0.499908447265625|-0.6391754150390625||||||||||||||||||||||||3
2021-04-09 10:17:52.909 +0100|29292.802436375|-0.558197021484375|0.489776611328125|-0.645172119140625|29292.782475375|-0.8455695823954539|-0.7586664636505085|-0.532687505895323|0.3060137033462524|0.02617568150162697|0.148489698767662|0.01853752136230469|-0.002631545066833496|-0.014251708984375|XArbitraryZVertical|-0.3695450752006974|-0.2254721456976247|-0.278811503688305|0.8572415252291566|-0.5926350355148315|0.5078502893447876|-0.6251974701881409|0|0|0|-1|-1|3
2021-04-09 10:17:52.928 +0100|29292.822397375|-0.5518646240234375|0.48016357421875|-0.6557159423828125|29292.802436375|-0.8378759589239833|-0.754465023900236|-0.5289973867227954|0.3330480754375458|-0.002430398482829332|0.1413997262716293|0.03364932537078857|-0.01125955581665039|-0.01530420780181885|XArbitraryZVertical|-0.3666558218117831|-0.2259246826006932|-0.2770678255537196|0.858926695091788|-0.5912825465202332|0.5046679973602295|-0.6290431022644043|0|0|0|-1|-1|3
2021-04-09 10:17:52.948 +0100|29292.842358375|-0.5400848388671875|0.48626708984375|-0.6625213623046875|29292.822397375|-0.8306376237207176|-0.7509571873228355|-0.5255350308436114|0.277220606803894|-0.005641212221235037|0.1311071366071701|0.03799891471862793|-0.02004724740982056|-0.01588183641433716|XArbitraryZVertical|-0.3639986958921143|-0.2265203645053509|-0.2753287995493376|0.8604578464797761|-0.5902611017227173|0.5016759037971497|-0.6323869228363037|0|0|0|-1|-1|3
2021-04-09 10:17:52.968 +0100|29292.862319375|-0.54290771484375|0.51025390625|-0.6557159423828125|29292.842358375|-0.8249170781659091|-0.7481748373131749|-0.5239419863381137|0.1845767349004745|-0.002971445675939322|0.1229851245880127|0.04639309644699097|-0.015311598777771|-0.02887004613876343|XArbitraryZVertical|-0.3623436209912991|-0.2267184132768171|-0.2737063678085343|0.8616210006452832|-0.5890421867370605|0.5002971887588501|-0.6346117258071899|0|0|0|-1|-1|3
2021-04-09 10:17:52.988 +0100|29292.882281375|-0.5440673828125|0.5231475830078125|-0.6483917236328125|29292.862319375|-0.8200022315963493|-0.7456563741991167|-0.5231127463906945|0.1998391598463058|-0.005662837065756321|0.1120026037096977|0.0457913875579834|0.003000020980834961|-0.02091944217681885|XArbitraryZVertical|-0.3611166008038697|-0.2267066768573936|-0.2722171560292175|0.8626104692871565|-0.5877233743667603|0.4995790421962738|-0.6363977789878845|0|0|0|-1|-1|3
2021-04-09 10:17:53.009 +0100|29292.902242375|-0.5587005615234375|0.5029296875|-0.649444580078125|29292.882281375|-0.8143632449503725|-0.7428328617412436|-0.5211601084602692|0.2858465015888214|-0.02534285187721252|0.07959353178739548|0.04190433025360107|0.02884712815284729|-0.01135838031768799|XArbitraryZVertical|-0.3593238981191755|-0.2269368946340998|-0.2706999264089035|0.8637752348644956|-0.5865828394889832|0.4978865683078766|-0.6387719511985779|0|0|0|-1|-1|3
2021-04-09 10:17:53.028 +0100|29292.922203375|-0.5745697021484375|0.50445556640625|-0.649749755859375|29292.902242375|-0.8079289282744453|-0.7396362681167963|-0.5175189770072517|0.3375049829483032|-0.01101238187402487|0.06376521289348602|0.03419572114944458|0.01063060760498047|-0.007541298866271973|XArbitraryZVertical|-0.3567211617305838|-0.2275096894983217|-0.2692485255677832|0.8651558900424811|-0.5857560038566589|0.4947255253791809|-0.6419786810874939|0|0|0|-1|-1|3
2021-04-09 10:17:53.048 +0100|29292.942164375|-0.6028594970703125|0.5361785888671875|-0.65802001953125|29292.922203375|-0.8013972590909291|-0.7355047689518207|-0.5134951850633078|0.3228977918624878|0.03408441692590714|0.05714920535683632|0.01420789957046509|0.01257506012916565|0.000601351261138916|XArbitraryZVertical|-0.3538255044896905|-0.2277618505317203|-0.2679871120631562|0.8666689310410567|-0.5844295620918274|0.4912246763706207|-0.6458641290664673|0|0|0|-1|-1|3
2021-04-09 10:17:53.068 +0100|29292.962125375|-0.63275146484375|0.5023040771484375|-0.643157958984375|29292.942164375|-0.7949424847406157|-0.7305176428104236|-0.5100637173842738|0.3372919261455536|0.09818542748689651|0.06376148015260696|-0.0117180347442627|0.04097276926040649|-0.008378207683563232|XArbitraryZVertical|-0.351056726026617|-0.2274818041404328|-0.2667719508987543|0.868241994901791|-0.5823226571083069|0.4882328510284424|-0.6500223875045776|0|0|0|-1|-1|3
2021-04-09 10:17:53.088 +0100|29292.982086375|-0.650421142578125|0.505401611328125|-0.6209716796875|29292.962125375|-0.7887190581937243|-0.7245431021990978|-0.5070378570159408|0.3014046251773834|0.1756242960691452|0.06964848935604095|-0.04695361852645874|0.02567136287689209|0.004920542240142822|XArbitraryZVertical|-0.3483444936501516|-0.2266265293733739|-0.265730178776868|0.8698758589833954|-0.5794051885604858|0.4855899214744568|-0.6545930504798889|0|0|0|-1|-1|3
2021-04-09 10:17:53.108 +0100|29293.002047375|-0.6653289794921875|0.496337890625|-0.618499755859375|29292.982086375|-0.7832483989656533|-0.7173395133244379|-0.5045897178202794|0.2634014487266541|0.2511557340621948|0.06740752607584|-0.07490628957748413|0.01183700561523438|0.03179121017456055|XArbitraryZVertical|-0.3457878448658642|-0.2249642704616664|-0.2650944933644669|0.8715198042359062|-0.5754545331001282|0.483448326587677|-0.6596437096595764|0|0|0|-1|-1|3
2021-04-09 10:17:53.128 +0100|29293.022008375|-0.6744384765625|0.4719696044921875|-0.6221923828125|29293.002047375|-0.7782418611638547|-0.7093542550646823|-0.5019489630608971|0.2564757168292999|0.3123081922531128|0.05024540796875954|-0.08628994226455688|0.02365657687187195|0.04839432239532471|XArbitraryZVertical|-0.3431049013894516|-0.222905668179032|-0.264816137428866|0.8731921879706209|-0.5709984302520752|0.4811350107192993|-0.6651841998100281|0|0|0|-1|-1|3
2021-04-09 10:17:53.148 +0100|29293.041970375|-0.656097412109375|0.48309326171875|-0.6396636962890625|29293.022008375|-0.7744738143652857|-0.7006597481800491|-0.5001228912729767|0.150754913687706|0.3886077105998993|0.03774621337652206|-0.1141276955604553|-0.005564600229263306|0.05247825384140015|XArbitraryZVertical|-0.3407970932704074|-0.2201371074515084|-0.2650191813800689|0.8747352985272954|-0.5657589435577393|0.4795333743095398|-0.6707940101623535|0|0|0|-1|-1|3
2021-04-09 10:17:53.168 +0100|29293.061931375|-0.6750640869140625|0.4712982177734375|-0.66180419921875|29293.041970375|-0.7729252159850709|-0.6925844861797047|-0.4997706025476892|0.06260000169277191|0.4061113893985748|0.008597118780016899|-0.09664320945739746|-0.0006472170352935791|0.04275059700012207|XArbitraryZVertical|-0.3394132843070251|-0.216940662919059|-0.265784067688447|0.875839252545475|-0.5604315996170044|0.4792242050170898|-0.675470769405365|0|0|0|-1|-1|3
2021-04-09 10:17:53.188 +0100|29293.081892375|-0.680450439453125|0.456329345703125|-0.6951141357421875|29293.061931375|-0.7740321140065147|-0.686481119330479|-0.4991609099965262|-0.03679322823882103|0.4316266179084778|-0.05948357656598091|-0.1134390830993652|-0.001363217830657959|0.02470165491104126|XArbitraryZVertical|-0.3384711363325192|-0.2142079066323741|-0.2674225007437293|0.876377574954062|-0.5564836263656616|0.4786889851093292|-0.6791045069694519|0|0|0|-1|-1|3
2021-04-09 10:17:53.208 +0100|29293.101853375|-0.64910888671875|0.4422454833984375|-0.6792755126953125|29293.081892375|-0.7782473808258072|-0.6810467892408895|-0.500546587581308|-0.1748130619525909|0.5125771760940552|-0.1058238223195076|-0.1301749348640442|-0.02627629041671753|-0.01023006439208984|XArbitraryZVertical|-0.33875271370882|-0.2108205363374906|-0.2699201766827518|0.8763244566028637|-0.5523667931556702|0.4799051284790039|-0.6816025972366333|0|0|0|-1|-1|3
2021-04-09 10:17:53.228 +0100|29293.121814375|-0.5883026123046875|0.4015655517578125|-0.650665283203125|29293.101853375|-0.7850798232447092|-0.6753603563814531|-0.5017478943509075|-0.2613797783851624|0.603682816028595|-0.1457493156194687|-0.1135465502738953|-0.02964922785758972|-0.001202940940856934|XArbitraryZVertical|-0.3391820306662029|-0.2069166503981326|-0.273644523100841|0.8759337016519829|-0.5481211543083191|0.4809587299823761|-0.684282124042511|0|0|0|-1|-1|3
2021-04-09 10:17:53.250 +0100|29293.141775375|-0.5478363037109375|0.3720703125|-0.644775390625|29293.121814375|-0.7933708904942811|-0.6690371985835222|-0.5035484323457901|-0.3198526799678802|0.629458487033844|-0.173521563410759|-0.06080508232116699|-0.07112878561019897|0.03359699249267578|XArbitraryZVertical|-0.339889862746904|-0.2023560162556955|-0.2780012789076965|0.875352700911522|-0.5432453751564026|0.4825365543365479|-0.6870538592338562|0|0|0|-1|-1|3
2021-04-09 10:17:53.268 +0100|29293.161736375|-0.52593994140625|0.3458709716796875|-0.660064697265625|29293.141775375|-0.8023378931673899|-0.6627967131112613|-0.5054072931067737|-0.3154928088188171|0.6215753555297852|-0.1947537809610367|-0.01670587062835693|-0.1112387180328369|0.04597008228302002|XArbitraryZVertical|-0.3406663908843558|-0.1976999117829842|-0.2826298644707338|0.8746322901345616|-0.5383944511413574|0.4841638505458832|-0.6897222995758057|0|0|0|-1|-1|3
2021-04-09 10:17:53.288 +0100|29293.181697375|-0.526153564453125|0.3316802978515625|-0.6689453125|29293.161736375|-0.8116341231155508|-0.6565644715301884|-0.5058432217933995|-0.3002295792102814|0.6222625970840454|-0.2456915229558945|0.003575563430786133|-0.1318075656890869|0.03492361307144165|XArbitraryZVertical|-0.3408632289990658|-0.1932970266727722|-0.2876723149478192|0.8738954366648342|-0.5339565873146057|0.4845452308654785|-0.6928970217704773|0|0|0|-1|-1|3
2021-04-09 10:17:53.308 +0100|29293.201658375|-0.5140533447265625|0.3506622314453125|-0.67425537109375|29293.181697375|-0.8220313737669779|-0.6508004871344115|-0.5057286440809258|-0.3290257751941681|0.6206445693969727|-0.3096724450588226|0.003436386585235596|-0.1552821397781372|0.02738332748413086|XArbitraryZVertical|-0.3409735480502003|-0.1890326016731896|-0.2932171771004027|0.872941929990304|-0.5299875736236572|0.4844450056552887|-0.6960074305534363|0|0|0|-1|-1|3
2021-04-09 10:17:53.328 +0100|29293.221620375|-0.53009033203125|0.36962890625|-0.680328369140625|29293.201658375|-0.8337819605188673|-0.6457439082933001|-0.505234028105896|-0.3196152746677399|0.5962244868278503|-0.3736592829227448|0.01137638092041016|-0.1389497518539429|0.02891814708709717|XArbitraryZVertical|-0.3411232027067955|-0.1849326715376526|-0.2992980098093787|0.8716970860655289|-0.5266055464744568|0.484012246131897|-0.6988697648048401|0|0|0|-1|-1|3
2021-04-09 10:17:53.348 +0100|29293.241581375|-0.543609619140625|0.3306884765625|-0.7203521728515625|29293.221620375|-0.8454815651202844|-0.6408133823165952|-0.5025189181647929|-0.1705447882413864|0.5779919028282166|-0.4572360813617706|-0.001073002815246582|-0.1095487177371979|0.02889478206634521|XArbitraryZVertical|-0.3403535340772661|-0.181397969644933|-0.3057441877134281|0.8705026750034758|-0.5239370465278625|0.4816345870494843|-0.7025085091590881|0|0|0|-1|-1|3
2021-04-09 10:17:53.368 +0100|29293.261542375|-0.575897216796875|0.2454833984375|-0.7513580322265625|29293.241581375|-0.8568593585087739|-0.6359114675096602|-0.4963348694955868|-0.06675925850868225|0.5524749755859375|-0.5675891041755676|-0.01796168088912964|-0.1264589428901672|0.0002527832984924316|XArbitraryZVertical|-0.3381279753337025|-0.1787286249421606|-0.3126807293622355|0.8694575835014586|-0.5222461223602295|0.4762058854103088|-0.7074511051177979|0|0|0|-1|-1|3
2021-04-09 10:17:53.388 +0100|29293.281503375|-0.616546630859375|0.2197265625|-0.754638671875|29293.261542375|-0.8697750208119395|-0.6313072021099435|-0.4895514305112419|-0.170190304517746|0.5682850480079651|-0.6717402338981628|-0.04429328441619873|-0.2061612606048584|-0.03043389320373535|XArbitraryZVertical|-0.3358140814810772|-0.1760942369163055|-0.3203266615844555|0.8681074491227262|-0.5208778381347656|0.4702300429344177|-0.7124394178390503|0|0|0|-1|-1|3
2021-04-09 10:17:53.408 +0100|29293.301464375|-0.6376190185546875|0.2220458984375|-0.7277374267578125|29293.281503375|-0.8860491565006424|-0.6268342287290823|-0.484974453428369|-0.3013443946838379|0.6438724398612976|-0.77133709192276|-0.08895277976989746|-0.2507924437522888|-0.04019999504089355|XArbitraryZVertical|-0.334666966923052|-0.1724793006955837|-0.3289769766011397|0.8660388593955425|-0.5189430117607117|0.4661857485771179|-0.7164978384971619|0|0|0|-1|-1|3
2021-04-09 10:17:53.427 +0100|29293.321425375|-0.646942138671875|0.2170867919921875|-0.690399169921875|29293.301464375|-0.906021334295525|-0.6231919557804064|-0.4790640381103635|-0.3411553204059601|0.7177098393440247|-0.904945433139801|-0.1115885972976685|-0.2347370386123657|-0.01797765493392944|XArbitraryZVertical|-0.3333958424701141|-0.1689473323521482|-0.3393057130261868|0.863235674782818|-0.5179289579391479|0.4609487652778625|-0.7206079959869385|0|0|0|-1|-1|3
2021-04-09 10:17:53.448 +0100|29293.341386375|-0.6315155029296875|0.222137451171875|-0.6782684326171875|29293.321425375|-0.9288553890046704|-0.6194813699163961|-0.4718640668880998|-0.3529482185840607|0.7725902199745178|-1.02519965171814|-0.1334858536720276|-0.2434113621711731|0.02670741081237793|XArbitraryZVertical|-0.3317910833289123|-0.1652590598101644|-0.3510756115837826|0.8598547703113898|-0.5171651244163513|0.4545474350452423|-0.7252082228660583|0|0|0|-1|-1|3
2021-04-09 10:17:53.467 +0100|29293.361347375|-0.643585205078125|0.2001800537109375|-0.6703948974609375|29293.341386375|-0.9536145552754888|-0.61611563236366|-0.4614338358034074|-0.2990358173847198|0.7838944792747498|-1.151281714439392|-0.1196834444999695|-0.2138480544090271|0.05589419603347778|XArbitraryZVertical|-0.3290744455178224|-0.1622430322537315|-0.3641485055484609|0.8560275121030044|-0.5174329280853271|0.4452324509620667|-0.7307744026184082|0|0|0|-1|-1|3
2021-04-09 10:17:53.488 +0100|29293.381309375|-0.643524169921875|0.1949005126953125|-0.67706298828125|29293.361347375|-0.9800018670398095|-0.6129603285377968|-0.4505748352197756|-0.3391758501529694|0.7807204723358154|-1.263887643814087|-0.1231166124343872|-0.2281312346458435|0.06657671928405762|XArbitraryZVertical|-0.3263186764855268|-0.1592441851570816|-0.3778912466095256|0.8516782493140237|-0.5178755521774292|0.4354830682277679|-0.7363148331642151|0|0|0|-1|-1|3
2021-04-09 10:17:53.507 +0100|29293.401270375|-0.657318115234375|0.2189788818359375|-0.681365966796875|29293.381309375|-1.008782133382759|-0.6097099327340466|-0.4418769046110994|-0.4414177536964417|0.7857539653778076|-1.36372447013855|-0.1280476450920105|-0.2387481927871704|0.06765609979629517|XArbitraryZVertical|-0.3245396951148233|-0.1553647280798383|-0.3921990248766817|0.8465907936255457|-0.5176290273666382|0.4276368319988251|-0.7410715818405151|0|0|0|-1|-1|3
2021-04-09 10:17:53.527 +0100|29293.421231375|-0.648162841796875|0.25018310546875|-0.6846160888671875|29293.401270375|-1.040273215429693|-0.60734589002802|-0.433683977587018|-0.5125186443328857|0.7991024255752563|-1.449052572250366|-0.1348837018013|-0.2027177512645721|0.06663340330123901|XArbitraryZVertical|-0.3232872627995416|-0.1513694843754944|-0.4073255198525669|0.840629906983873|-0.5178577303886414|0.4202165901660919|-0.7451452612876892|0|0|0|-1|-1|3
2021-04-09 10:17:53.547 +0100|29293.441192375|-0.6308746337890625|0.2876739501953125|-0.66876220703125|29293.421231375|-1.073643939634774|-0.6051608182092264|-0.4257571004451771|-0.5551889538764954|0.8072695136070251|-1.498945713043213|-0.1339019536972046|-0.1750496029853821|0.06262081861495972|XArbitraryZVertical|-0.3222596630411759|-0.147150295535732|-0.4230541544766103|0.8339788696817061|-0.5181070566177368|0.4130104184150696|-0.7489910125732422|0|0|0|-1|-1|3
2021-04-09 10:17:53.567 +0100|29293.461153375|-0.6269683837890625|0.3171844482421875|-0.665435791015625|29293.441192375|-1.107548747144819|-0.6030735277404405|-0.4173009530325534|-0.512387216091156|0.782676637172699|-1.534416317939758|-0.1184742450714111|-0.127355694770813|0.07979476451873779|XArbitraryZVertical|-0.3210316390810019|-0.143103166516386|-0.4389578559223619|0.8269076230287723|-0.5185049176216125|0.4052945077419281|-0.7529203295707703|0|0|0|-1|-1|3
2021-04-09 10:17:53.587 +0100|29293.481114375|-0.61383056640625|0.318939208984375|-0.6518707275390625|29293.461153375|-1.141032046364992|-0.6013062550092837|-0.4075359462872427|-0.4226786196231842|0.7462489008903503|-1.54363226890564|-0.1046671271324158|-0.08773937821388245|0.08755379915237427|XArbitraryZVertical|-0.3193003009859945|-0.1396990128120163|-0.4547318914917569|0.8196037965948946|-0.5193877220153809|0.3963482975959778|-0.7570630311965942|0|0|0|-1|-1|3
2021-04-09 10:17:53.607 +0100|29293.501075375|-0.59051513671875|0.3188018798828125|-0.6538543701171875|29293.481114375|-1.173443166088964|-0.5992548674144217|-0.3966885388687868|-0.3815219402313232|0.7239848971366882|-1.531149625778198|-0.1017516255378723|-0.06297147274017334|0.1105558276176453|XArbitraryZVertical|-0.3169905208552033|-0.1367508084369803|-0.4701625152991394|0.8122583000360383|-0.5202280879020691|0.3863661587238312|-0.7616324424743652|0|0|0|-1|-1|3
2021-04-09 10:17:53.627 +0100|29293.521036375|-0.576934814453125|0.32086181640625|-0.6560211181640625|29293.501075375|-1.205436558384462|-0.597555091763235|-0.3862866845909047|-0.4360786974430084|0.6660113930702209|-1.513540506362915|-0.07336348295211792|-0.05430272221565247|0.1141555905342102|XArbitraryZVertical|-0.3148790120298747|-0.1339880227748244|-0.4851514133082278|0.8046904694682496|-0.5211657881736755|0.3767513334751129|-0.7657968401908875|0|0|0|-1|-1|3
2021-04-09 10:17:53.647 +0100|29293.540998375|-0.5715789794921875|0.346588134765625|-0.63238525390625|29293.521036375|-1.238143153428818|-0.5970305413637543|-0.3778098939155071|-0.5664932727813721|0.6106120347976685|-1.480899095535278|-0.05425781011581421|-0.05051124095916748|0.1118391752243042|XArbitraryZVertical|-0.3137954768069603|-0.1311127379433217|-0.4997714583841202|0.7965993025057584|-0.5225406885147095|0.3688856959342957|-0.7686836719512939|0|0|0|-1|-1|3
2021-04-09 10:17:53.667 +0100|29293.560958875|-0.57196044921875|0.3744354248046875|-0.6215362548828125|29293.540997875|-1.271508280937598|-0.5975424413336019|-0.3714929895088922|-0.6593213081359863|0.555884838104248|-1.449037671089172|-0.05137360095977783|-0.02172914147377014|0.1328613758087158|XArbitraryZVertical|-0.3137868272252313|-0.1279618467165891|-0.5139784827200076|0.7880290249693589|-0.5242346525192261|0.363006979227066|-0.7703272104263306|0|0|0|-1|-1|3
2021-04-09 10:17:53.687 +0100|29293.580919875|-0.5997161865234375|0.3668060302734375|-0.628204345703125|29293.560958875|-1.3048380393882|-0.5993014489037829|-0.366638629209411|-0.6838215589523315|0.4706182777881622|-1.407104015350342|-0.04207366704940796|0.004328489303588867|0.1460335254669189|XArbitraryZVertical|-0.3146073662388703|-0.1248889786946881|-0.5275788867558703|0.7791570165785278|-0.5265766382217407|0.3584794998168945|-0.770849883556366|0|0|0|-1|-1|3
2021-04-09 10:17:53.707 +0100|29293.600880875|-0.5895538330078125|0.3281707763671875|-0.6180877685546875|29293.580919875|-1.337522697860668|-0.6023498703824557|-0.3619219888296781|-0.6785284280776978|0.4021022319793701|-1.387432813644409|-0.06411898136138916|0.02326196432113647|0.1438868045806885|XArbitraryZVertical|-0.315770084811438|-0.1223779727058679|-0.5405506431518271|0.7701415869538628|-0.529876172542572|0.3540723621845245|-0.7706257700920105|0|0|0|-1|-1|3
2021-04-09 10:17:53.727 +0100|29293.620841875|-0.58172607421875|0.323486328125|-0.5817718505859375|29293.600880875|-1.370840467894321|-0.6064434184463963|-0.3584397845491321|-0.8224232792854309|0.3624053001403809|-1.384357094764709|-0.06077289581298828|-0.02134615182876587|0.1445049643516541|XArbitraryZVertical|-0.3176900524847873|-0.1197651763271511|-0.5532375574984363|0.7606955079110184|-0.5337257981300354|0.3508135974407196|-0.7694586515426636|0|0|0|-1|-1|3
2021-04-09 10:17:53.747 +0100|29293.640802875|-0.5938873291015625|0.3759613037109375|-0.55828857421875|29293.620841875|-1.405946928568926|-0.6120809230933456|-0.356995622665346|-0.9230234622955322|0.2943283021450043|-1.393931865692139|-0.04390019178390503|-0.03029310703277588|0.1760316491127014|XArbitraryZVertical|-0.3208469133775297|-0.1167541476462669|-0.5658433053448436|0.7504980506158936|-0.5383456945419312|0.3494608700275421|-0.7668514251708984|0|0|0|-1|-1|3
2021-04-09 10:17:53.767 +0100|29293.660763875|-0.6206512451171875|0.3658294677734375|-0.550384521484375|29293.640802875|-1.441402775586128|-0.6196047951384477|-0.3556013690652088|-0.8518744111061096|0.1850124001502991|-1.41015350818634|-0.04373800754547119|0.01833105087280273|0.2024915218353271|XArbitraryZVertical|-0.3245762066333167|-0.1142919991204091|-0.5780745652552954|0.7398767370094694|-0.5443824529647827|0.3481541872024536|-0.7631752490997314|0|0|0|-1|-1|3
2021-04-09 10:17:53.787 +0100|29293.680724875|-0.64678955078125|0.281982421875|-0.557342529296875|29293.660763875|-1.475677686900701|-0.6292000230822741|-0.351510606171815|-0.7127400040626526|0.05003424733877182|-1.449289917945862|-0.06026500463485718|0.03577959537506104|0.2099443078041077|XArbitraryZVertical|-0.3279753160070609|-0.1135837480020492|-0.5897866098638418|0.7291658272663285|-0.5525136590003967|0.3443164527416229|-0.759061872959137|0|0|0|-1|-1|3
2021-04-09 10:17:53.807 +0100|29293.700686875|-0.680999755859375|0.253326416015625|-0.555328369140625|29293.680724875|-1.510090459433877|-0.640950574094191|-0.3455674938624158|-0.7641724348068237|-0.04821045696735382|-1.511932849884033|-0.07832276821136475|-0.03942996263504028|0.1956119537353516|XArbitraryZVertical|-0.3315021628523537|-0.1141675789027422|-0.6013029808296227|0.7179882089234053|-0.5626084208488464|0.338730663061142|-0.7541441321372986|0|0|0|-1|-1|3
2021-04-09 10:17:53.827 +0100|29293.720647875|-0.747802734375|0.2969818115234375|-0.530731201171875|29293.700686875|-1.54693452740704|-0.6550449375995231|-0.3403261876761458|-0.905173122882843|-0.1216870695352554|-1.57728099822998|-0.09424871206283569|-0.07322072982788086|0.189997136592865|XArbitraryZVertical|-0.3362218158502313|-0.1148307738131486|-0.6129513375638077|0.7057334173157069|-0.5742550492286682|0.3337945938110352|-0.7475375533103943|0|0|0|-1|-1|3
2021-04-09 10:17:53.847 +0100|29293.740608875|-0.820281982421875|0.2559661865234375|-0.5359649658203125|29293.720647875|-1.585956937760063|-0.6714964950343491|-0.3352694960031777|-0.9424281120300293|-0.2383114248514175|-1.653657555580139|-0.1403123140335083|-0.04565319418907166|0.2078688144683838|XArbitraryZVertical|-0.3419894327881142|-0.1157260295715567|-0.624660869213425|0.692423027986792|-0.5875175595283508|0.3290236592292786|-0.7393014430999756|0|0|0|-1|-1|3
2021-04-09 10:17:53.867 +0100|29293.760569875|-0.825897216796875|0.2092132568359375|-0.54296875|29293.740608875|-1.626235877842709|-0.6904852534557907|-0.3281298106952629|-0.9345038533210754|-0.3466345369815826|-1.765850067138672|-0.2035741806030273|-0.05213212966918945|0.1916585564613342|XArbitraryZVertical|-0.3481649307869837|-0.1178077160338228|-0.6364028438132346|0.6781549112552804|-0.6029300689697266|0.3222731947898865|-0.729805052280426|0|0|0|-1|-1|3
2021-04-09 10:17:53.887 +0100|29293.780530875|-0.878875732421875|0.18994140625|-0.572265625|29293.760569875|-1.668824934966807|-0.7119873689201346|-0.3196059990112098|-1.018972277641296|-0.457498699426651|-1.876126646995544|-0.2069715261459351|-0.09970030188560486|0.1783066391944885|XArbitraryZVertical|-0.3550993904508495|-0.1205863889306394|-0.6483534003246343|0.6625718598263192|-0.6202540993690491|0.314192533493042|-0.7187266945838928|0|0|0|-1|-1|3
2021-04-09 10:17:53.907 +0100|29293.800491875|-0.96612548828125|0.23419189453125|-0.6090545654296875|29293.780530875|-1.713432891764729|-0.7360606172594143|-0.3090127603965759|-0.9870534539222717|-0.5705748200416565|-2.014594078063965|-0.2193598747253418|-0.1160390973091125|0.1415475606918335|XArbitraryZVertical|-0.3626828959942899|-0.1243115735033933|-0.6604326096299478|0.6456289302353923|-0.6395735144615173|0.3041183054447174|-0.7060155272483826|0|0|0|-1|-1|3
2021-04-09 10:17:53.927 +0100|29293.820452875|-1.000808715820312|0.2206268310546875|-0.6140594482421875|29293.800491875|-1.758441065728415|-0.7617153915367871|-0.2938843739682449|-0.8289643526077271|-0.6407045125961304|-2.170574426651001|-0.28498375415802|-0.06665048003196716|0.09451371431350708|XArbitraryZVertical|-0.369911480599335|-0.1298148470707271|-0.6726360551360379|0.6275941051472017|-0.6605736613273621|0.2896722257137299|-0.6926271915435791|0|0|0|-1|-1|3
2021-04-09 10:17:53.947 +0100|29293.840413875|-1.024459838867188|0.189697265625|-0.60174560546875|29293.820452875|-1.803314246831432|-0.7871216683932465|-0.2738754625238891|-0.7889054417610168|-0.6388918161392212|-2.317317485809326|-0.3175568580627441|-0.03970649838447571|0.06573331356048584|XArbitraryZVertical|-0.3761736070036616|-0.136762933458157|-0.6851376609249712|0.6085851670895985|-0.6819251775741577|0.2704644799232483|-0.6795786619186401|0|0|0|-1|-1|3
2021-04-09 10:17:53.967 +0100|29293.860375875|-1.094635009765625|0.2288970947265625|-0.5481109619140625|29293.840413875|-1.849971715957898|-0.8120682793275518|-0.2510390845481379|-0.8737423419952393|-0.6571136116981506|-2.471479415893555|-0.3071073889732361|-0.05654734373092651|0.05226778984069824|XArbitraryZVertical|-0.3821647346012161|-0.1439907688552359|-0.6981496309288902|0.5880511347737978|-0.702964186668396|0.2484106123447418|-0.666433572769165|0|0|0|-1|-1|3
2021-04-09 10:17:53.986 +0100|29293.880336875|-1.091262817382812|0.3018951416015625|-0.50994873046875|29293.860375875|-1.899274897740683|-0.837137581615863|-0.226156419829006|-0.9145761132240295|-0.6862271428108215|-2.615154027938843|-0.3556063771247864|-0.01062647998332977|0.09222328662872314|XArbitraryZVertical|-0.3884183902641814|-0.1511977473561207|-0.7115654587805691|0.5656370602889389|-0.7238163352012634|0.224233478307724|-0.6525408029556274|0|0|0|-1|-1|3
2021-04-09 10:17:54.006 +0100|29293.900297875|-1.081756591796875|0.2960968017578125|-0.538055419921875|29293.880336875|-1.948368366240152|-0.8614440020937497|-0.1974825295400709|-0.7803182005882263|-0.7216537594795227|-2.709657192230225|-0.3554368019104004|0.09397414326667786|0.1296805739402771|XArbitraryZVertical|-0.3940423638522237|-0.1593400295063297|-0.7249001263371555|0.5420897210859138|-0.7440358996391296|0.1962014138698578|-0.6386827230453491|0|0|0|-1|-1|3
2021-04-09 10:17:54.026 +0100|29293.920258875|-1.15460205078125|0.3188018798828125|-0.5367279052734375|29293.900297875|-1.995608418239336|-0.884972532091079|-0.1651976194361969|-0.7400466203689575|-0.7826715111732483|-2.746954679489136|-0.3121088743209839|0.1367298513650894|0.09260004758834839|XArbitraryZVertical|-0.3989938542014526|-0.168699410252147|-0.7376131876807258|0.5179491844056646|-0.7633616924285889|0.1644472628831863|-0.6246888041496277|0|0|0|-1|-1|3
2021-04-09 10:17:54.046 +0100|29293.940219875|-1.193313598632812|0.34295654296875|-0.5205841064453125|29293.920258875|-2.042526212538562|-0.9078377932440408|-0.1319167533761613|-0.8036561608314514|-0.8024020791053772|-2.749604463577271|-0.3531493544578552|0.1799575239419937|0.07092005014419556|XArbitraryZVertical|-0.404056537848382|-0.1780063703116982|-0.7496520164028412|0.4930252507783007|-0.7813268899917603|0.1315344870090485|-0.6101040840148926|0|0|0|-1|-1|3
2021-04-09 10:17:54.066 +0100|29293.960180875|-1.154083251953125|0.339508056640625|-0.5045928955078125|29293.940219875|-2.089004773757454|-0.9287507180895855|-0.09858460731332302|-0.847212016582489|-0.7554056644439697|-2.710559368133545|-0.3987259268760681|0.241082102060318|0.06928598880767822|XArbitraryZVertical|-0.4089165792071732|-0.1866107064477822|-0.7610828266679307|0.4676716754056287|-0.7969838380813599|0.09842499345541|-0.595927357673645|0|0|0|-1|-1|3
2021-04-09 10:17:54.086 +0100|29293.980141875|-1.150253295898438|0.3383026123046875|-0.4704132080078125|29293.960180875|-2.135005911129126|-0.9474059869797641|-0.06598918740389381|-0.9169297218322754|-0.735998809337616|-2.631463527679443|-0.3527359366416931|0.2793030738830566|0.07522732019424438|XArbitraryZVertical|-0.4135585470682359|-0.1941882138256222|-0.7718558436508084|0.4421525358232352|-0.8101367950439453|0.06594130396842957|-0.5825205445289612|0|0|0|-1|-1|3
2021-04-09 10:17:54.106 +0100|29294.000103875|-1.088134765625|0.3157958984375|-0.4268341064453125|29293.980141875|-2.180467473450694|-0.9642773006734064|-0.03511278710125978|-1.030707359313965|-0.7185893058776855|-2.512823581695557|-0.3315795660018921|0.3008766770362854|0.0884588360786438|XArbitraryZVertical|-0.4182839261286512|-0.2005213263687031|-0.781767929725072|0.4167358999380775|-0.8211308121681213|0.03510557115077972|-0.5696595311164856|0|0|0|-1|-1|3
2021-04-09 10:17:54.126 +0100|29294.020064875|-1.005294799804688|0.30169677734375|-0.3610382080078125|29294.000103875|-2.226227895248063|-0.9792643874427621|-0.007547670615095896|-1.18344247341156|-0.6763070821762085|-2.340746164321899|-0.2764123678207397|0.3177077174186707|0.1208808422088623|XArbitraryZVertical|-0.4233660487273794|-0.2048230147294055|-0.7908876283622557|0.391542468576292|-0.8300637602806091|0.007547598797827959|-0.5576174259185791|0|0|0|-1|-1|3
2021-04-09 10:17:54.146 +0100|29294.040025875|-0.9228668212890625|0.326171875|-0.32342529296875|29294.020064875|-2.271627281222226|-0.9921350515563149|0.01601704690185721|-1.251479268074036|-0.6049726605415344|-2.14538311958313|-0.1886536478996277|0.3273098766803741|0.1745652556419373|XArbitraryZVertical|-0.4286652939797376|-0.2069523858480389|-0.7991441184761938|0.3671316599115487|-0.8370882272720337|-0.01601636223495007|-0.5468335747718811|0|0|0|-1|-1|3
2021-04-09 10:17:54.166 +0100|29294.059986875|-0.90106201171875|0.3365478515625|-0.35113525390625|29294.040025875|-2.313566145437391|-1.002439673903427|0.03744780876030314|-1.074281930923462|-0.5580030679702759|-1.943061470985413|-0.09939384460449219|0.3473134636878967|0.2135147452354431|XArbitraryZVertical|-0.4332177390844522|-0.2082957956704817|-0.8063813348133538|0.3445064682380953|-0.8421958684921265|-0.03743905574083328|-0.5378705263137817|0|0|0|-1|-1|3
2021-04-09 10:17:54.186 +0100|29294.079947875|-0.9420318603515625|0.2708282470703125|-0.3779296875|29294.059986875|-2.348700796009824|-1.011985144940766|0.05894690040543151|-0.7539324760437012|-0.5551939010620117|-1.741581678390503|-0.05542701482772827|0.4047673940658569|0.1899790167808533|XArbitraryZVertical|-0.4369364126753452|-0.2108498938895965|-0.8120168049540367|0.3244345598791663|-0.8464134335517883|-0.05891276895999908|-0.5292577743530273|0|0|0|-1|-1|3
2021-04-09 10:17:54.206 +0100|29294.099908875|-0.9624786376953125|0.2182159423828125|-0.3985595703125|29294.079947875|-2.377856933716535|-1.020269177841569|0.07946387495868472|-0.6887156367301941|-0.4545021653175354|-1.538449645042419|-0.07761043310165405|0.3705473840236664|0.1494311094284058|XArbitraryZVertical|-0.4398475527877067|-0.2139888472796493|-0.8164088120480045|0.3069523603495777|-0.8495596051216125|-0.07938027381896973|-0.5214858055114746|0|0|0|-1|-1|3
2021-04-09 10:17:54.226 +0100|29294.119869875|-0.9423675537109375|0.1841888427734375|-0.3970947265625|29294.099908875|-2.405703895818601|-1.024644829244096|0.09606435376351891|-0.8152798414230347|-0.231961116194725|-1.333276152610779|-0.1157798171043396|0.3267505466938019|0.1278020739555359|XArbitraryZVertical|-0.4418122990765882|-0.2151698297789287|-0.8207986408074583|0.291193272578734|-0.8505898714065552|-0.09591666609048843|-0.5170076489448547|0|0|0|-1|-1|3
2021-04-09 10:17:54.246 +0100|29294.139830875|-0.9256591796875|0.128204345703125|-0.3870697021484375|29294.119869875|-2.433043783444784|-1.024491989486144|0.1083190225871006|-0.854552149772644|-0.03503196313977242|-1.138586044311523|-0.09367263317108154|0.3029457032680511|0.1174711585044861|XArbitraryZVertical|-0.4426550331379344|-0.2140383990856877|-0.8255210330463562|0.2770544255831744|-0.8494426608085632|-0.108107328414917|-0.5164881944656372|0|0|0|-1|-1|3
2021-04-09 10:17:54.266 +0100|29294.159791875|-0.915863037109375|0.1081390380859375|-0.387115478515625|29294.139830875|-2.458537194657224|-1.02025500430828|0.1173617808838967|-0.8336436748504639|0.1566399931907654|-0.957960844039917|-0.0882219672203064|0.2540543079376221|0.1275824308395386|XArbitraryZVertical|-0.4421533232269071|-0.2114839416957823|-0.830455701017165|0.2647990310299513|-0.8463789820671082|-0.1170925498008728|-0.5195499658584595|0|0|0|-1|-1|3
2021-04-09 10:17:54.286 +0100|29294.179753875|-0.8481292724609375|0.0428466796875|-0.4078521728515625|29294.159791875|-2.481608941876233|-1.012962069294712|0.1239611251253117|-0.7532703280448914|0.3021685481071472|-0.8163097500801086|-0.07392382621765137|0.2438820451498032|0.1433762311935425|XArbitraryZVertical|-0.4404968193207186|-0.2081308943744439|-0.8354237121403112|0.254384438075185|-0.8418934941291809|-0.1236438974738121|-0.5252881646156311|0|0|0|-1|-1|3
2021-04-09 10:17:54.306 +0100|29294.199714875|-0.7791595458984375|0.016265869140625|-0.4409637451171875|29294.179753875|-2.502243491431026|-1.0025582267474|0.1289747826216094|-0.7326863408088684|0.4733493626117706|-0.7163832783699036|-0.03631186485290527|0.1872101277112961|0.1319298148155212|XArbitraryZVertical|-0.4374937063267113|-0.2043529894748028|-0.8405408816460168|0.2456224770631698|-0.8358500599861145|-0.1286175101995468|-0.5336782336235046|0|0|0|-1|-1|3
2021-04-09 10:17:54.326 +0100|29294.219675875|-0.7917327880859375|0.0341796875|-0.477813720703125|29294.199714875|-2.521801444081518|-0.9894993346382314|0.1324816882281987|-0.6810417175292969|0.5586978793144226|-0.632828950881958|0.03730517625808716|0.1429576426744461|0.1102606058120728|XArbitraryZVertical|-0.4334367059949974|-0.1999607195319006|-0.8459114706345242|0.2378705372956706|-0.8284276723861694|-0.1320944875478745|-0.5442966818809509|0|0|0|-1|-1|3
2021-04-09 10:17:54.346 +0100|29294.239636875|-0.848175048828125|-0.0249481201171875|-0.5324859619140625|29294.219675875|-2.538541268353185|-0.9762818011208757|0.1359724324042817|-0.506284236907959|0.5345039367675781|-0.5873546004295349|0.03751003742218018|0.1784604638814926|0.08838438987731934|XArbitraryZVertical|-0.4289731596929729|-0.1962488140392087|-0.8508733876172845|0.2312638333752741|-0.8207741975784302|-0.1355538368225098|-0.5549368858337402|0|0|0|-1|-1|3
2021-04-09 10:17:54.366 +0100|29294.259597875|-0.839508056640625|-0.009979248046875|-0.5766754150390625|29294.239636875|-2.553258258952752|-0.9634904957522997|0.1396423739769903|-0.5324748158454895|0.5594361424446106|-0.5458585619926453|-0.02472621202468872|0.1251650452613831|0.04801267385482788|XArbitraryZVertical|-0.4244178400978362|-0.1931796088128369|-0.8554261639605603|0.2253826143130815|-0.8131948709487915|-0.1391889750957489|-0.5651022791862488|0|0|0|-1|-1|3
2021-04-09 10:17:54.386 +0100|29294.279558875|-0.8224945068359375|-0.014923095703125|-0.6169586181640625|29294.259597875|-2.568706703413928|-0.9495644329494844|0.1418611313902577|-0.5694459080696106|0.6213545203208923|-0.5188043117523193|-0.03532320261001587|0.1254087388515472|0.007129490375518799|XArbitraryZVertical|-0.4196064745163663|-0.1893017424838755|-0.8601625810180664|0.2195804498084055|-0.8049935102462769|-0.1413857936859131|-0.5761905312538147|0|0|0|-1|-1|3
2021-04-09 10:17:54.406 +0100|29294.299519875|-0.80548095703125|-0.0347137451171875|-0.6773834228515625|29294.279558875|-2.583694042026421|-0.9346992056884084|0.1435370979758832|-0.5225529670715332|0.6414790153503418|-0.480728805065155|-0.03058844804763794|0.1235428899526596|-0.01283282041549683|XArbitraryZVertical|-0.4143649750555055|-0.1852728148945752|-0.8649418469910731|0.2141297004881807|-0.7961480617523193|-0.143044725060463|-0.5879513025283813|0|0|0|-1|-1|3
2021-04-09 10:17:54.426 +0100|29294.319481875|-0.8857421875|-0.1126251220703125|-0.68548583984375|29294.299519875|-2.597160652906493|-0.9211538936836267|0.1430447028102977|-0.5162452459335327|0.6123152375221252|-0.4537501037120819|-0.01894640922546387|0.1267328858375549|-0.06361448764801025|XArbitraryZVertical|-0.4097926949373411|-0.1808538920886933|-0.8691447178159604|0.2096414059079982|-0.7881672382354736|-0.1425573825836182|-0.5987236499786377|0|0|0|-1|-1|3
2021-04-09 10:17:54.445 +0100|29294.339442875|-0.9298553466796875|-0.04766845703125|-0.6513519287109375|29294.319481875|-2.612413851224093|-0.9087070921740477|0.1394524753058415|-0.7459832429885864|0.6342952847480774|-0.4243036210536957|-0.07754373550415039|0.03639970719814301|-0.07102662324905396|XArbitraryZVertical|-0.4062080036538784|-0.1749172153916596|-0.8731644890919363|0.2048975826175776|-0.7810530662536621|-0.1390009224414825|-0.6087980270385742|0|0|0|-1|-1|3
2021-04-09 10:17:54.466 +0100|29294.359403875|-0.9596099853515625|-0.082366943359375|-0.682891845703125|29294.339442875|-2.629927821652096|-0.8954815833438857|0.1338019402392796|-0.8043103814125061|0.603976309299469|-0.4066083431243896|-0.1544445157051086|0.07032211124897003|-0.03374946117401123|XArbitraryZVertical|-0.4026533792398903|-0.1676083210213875|-0.8774616122088902|0.1995968341080984|-0.7735339403152466|-0.1334030628204346|-0.6195554137229919|0|0|0|-1|-1|3
2021-04-09 10:17:54.485 +0100|29294.379364875|-0.8743438720703125|-0.109130859375|-0.7432708740234375|29294.359403875|-2.647066019757991|-0.8842500139758536|0.1281431980388283|-0.7961989641189575|0.4760413765907288|-0.3960689604282379|-0.1851111054420471|0.05999687314033508|-0.04425507783889771|XArbitraryZVertical|-0.3998328098722009|-0.1606157922215922|-0.8812616344311325|0.1942015276945347|-0.7670983076095581|-0.1277927905321121|-0.6286725997924805|0|0|0|-1|-1|3
2021-04-09 10:17:54.505 +0100|29294.399325875|-0.7430877685546875|-0.102569580078125|-0.75079345703125|29294.379364875|-2.665321184266574|-0.8740659723080634|0.1223336466114721|-0.8907832503318787|0.3957442045211792|-0.401919811964035|-0.1425957679748535|0.01605535298585892|-0.0869133472442627|XArbitraryZVertical|-0.3974751030031388|-0.1534754078640674|-0.8848999615626516|0.1881778508702596|-0.7612127661705017|-0.1220287457108498|-0.6369177103042603|0|0|0|-1|-1|3
2021-04-09 10:17:54.525 +0100|29294.419286875|-0.6347198486328125|-0.087677001953125|-0.7160797119140625|29294.399325875|-2.684392464073811|-0.8635168904110397|0.1171048345206144|-0.8878066539764404|0.4445395469665527|-0.429295539855957|-0.02621674537658691|0.007537543773651123|-0.1064977049827576|XArbitraryZVertical|-0.3948391296249346|-0.1464344981937781|-0.8886368254691737|0.1816142324377871|-0.7549263834953308|-0.1168373674154282|-0.6453179717063904|0|0|0|-1|-1|3
2021-04-09 10:17:54.545 +0100|29294.439247875|-0.6021270751953125|-0.0425567626953125|-0.670318603515625|29294.419286875|-2.702481131654423|-0.8525063581464044|0.112589462784594|-0.7451825141906738|0.4373089373111725|-0.3900739252567291|0.1005057692527771|0.009781047701835632|-0.08286970853805542|XArbitraryZVertical|-0.3917396308901023|-0.139908444582473|-0.8923226032189694|0.1752888677809299|-0.7481650114059448|-0.1123517453670502|-0.6539313793182373|0|0|0|-1|-1|3
2021-04-09 10:17:54.566 +0100|29294.459209875|-0.5503692626953125|-0.0973968505859375|-0.6201934814453125|29294.439247875|-2.716233020081376|-0.8426894181804889|0.1105304116397115|-0.4141367971897125|0.3900577425956726|-0.371087372303009|0.1262343525886536|0.06965496391057968|-0.01615422964096069|XArbitraryZVertical|-0.3885228503703216|-0.1354677319212669|-0.8953859635164902|0.1702426510609271|-0.7418805956840515|-0.1103054881095886|-0.6613969802856445|0|0|0|-1|-1|3
2021-04-09 10:17:54.585 +0100|29294.479170875|-0.4979400634765625|-0.091796875|-0.5795135498046875|29294.459209875|-2.725676739368439|-0.8345985263256186|0.1120611486497271|-0.2173262536525726|0.3182384371757507|-0.3727313280105591|0.1742453575134277|0.02175301313400269|0.04037153720855713|XArbitraryZVertical|-0.3853684262217532|-0.1336389855591882|-0.8977727300578063|0.1662410665074778|-0.736379086971283|-0.1118267551064491|-0.6672635674476624|0|0|0|-1|-1|3
2021-04-09 10:17:54.605 +0100|29294.499131875|-0.4968719482421875|-0.04296875|-0.562957763671875|29294.479170875|-2.73378137140884|-0.8283442702587038|0.1152658751488792|-0.1473773419857025|0.2001433670520782|-0.4039274156093597|0.2229210734367371|0.02144280821084976|0.07731097936630249|XArbitraryZVertical|-0.3827629680521306|-0.1329938936194295|-0.8996901667286319|0.1623665345164103|-0.7319236993789673|-0.1150108054280281|-0.6716102957725525|0|0|0|-1|-1|3
2021-04-09 10:17:54.625 +0100|29294.519092875|-0.503265380859375|-0.037872314453125|-0.6186981201171875|29294.499131875|-2.740376103609916|-0.8251882275862271|0.1201125730833726|0.01849362626671791|0.04381453990936279|-0.3968980312347412|0.2331055402755737|0.06165634840726852|0.1178973317146301|XArbitraryZVertical|-0.3812807646614373|-0.1336396809267766|-0.900889602829277|0.1586301215491956|-0.729382336139679|-0.1198239699006081|-0.6735308170318604|0|0|0|-1|-1|3
2021-04-09 10:17:54.645 +0100|29294.539053875|-0.4686279296875|-0.0513458251953125|-0.624237060546875|29294.519092875|-2.744603699073626|-0.8248611569665381|0.1269163032449381|0.08505427837371826|-0.05391361564397812|-0.3957381844520569|0.2196353077888489|0.1008942127227783|0.06519883871078491|XArbitraryZVertical|-0.380719125505333|-0.1358407945910677|-0.9013650114878889|0.1553749416747136|-0.7285463213920593|-0.1265758574008942|-0.6732004284858704|0|0|0|-1|-1|3
2021-04-09 10:17:54.665 +0100|29294.55901541667|-0.4343109130859375|0.052154541015625|-0.5708770751953125|29294.539053875|-2.749730767749459|-0.8259986991032636|0.1327714740970158|-0.0520051084458828|-0.1234920546412468|-0.3788011372089386|0.2521155476570129|0.07052150368690491|0.03918230533599854|XArbitraryZVertical|-0.3809832285440005|-0.1375611528819525|-0.9016011736556244|0.1518030923251049|-0.7287542819976807|-0.1323817223310471|-0.6718574166297913|0|0|0|-1|-1|3
2021-04-09 10:17:54.685 +0100|29294.57897641667|-0.4285125732421875|0.079315185546875|-0.5254974365234375|29294.55901541667|-2.755453360451456|-0.828423389274031|0.1376083291952307|-0.0153030026704073|-0.2127322405576706|-0.3657566905021667|0.2862210869789124|0.1601530909538269|0.08538872003555298|XArbitraryZVertical|-0.3819802395000782|-0.1388064910060402|-0.9016083382014669|0.1480753721828601|-0.7299007773399353|-0.1371744424104691|-0.6696476936340332|0|0|0|-1|-1|3
2021-04-09 10:17:54.705 +0100|29294.59893741667|-0.4871978759765625|0.1696014404296875|-0.4923858642578125|29294.57897641667|-2.760141132502967|-0.8334202398843411|0.1429898414890586|0.00690017081797123|-0.3681830167770386|-0.3471330106258392|0.3061366677284241|0.2207490503787994|0.1300095915794373|XArbitraryZVertical|-0.3840165650316925|-0.1406705005003766|-0.9010315527237979|0.1445172600347737|-0.7326807379722595|-0.1425030827522278|-0.6654861569404602|0|0|0|-1|-1|3
2021-04-09 10:17:54.725 +0100|29294.61889941667|-0.491668701171875|0.2233123779296875|-0.4864501953125|29294.59893741667|-2.76494062180796|-0.8414536172463298|0.1476723217981359|-0.02858030796051025|-0.4915558695793152|-0.3321346342563629|0.2646889090538025|0.2778418660163879|0.1614158749580383|XArbitraryZVertical|-0.387503223386912|-0.1423999652495816|-0.8998508559760857|0.1408262768172888|-0.7374975085258484|-0.1471361815929413|-0.6591269969940186|0|0|0|-1|-1|3
2021-04-09 10:17:54.745 +0100|29294.63886041667|-0.4445648193359375|0.3304443359375|-0.417022705078125|29294.61889941667|-2.769106998720833|-0.8511024099953973|0.1528049551847915|0.05245042964816093|-0.526244580745697|-0.3098572790622711|0.2508441805839539|0.3725773096084595|0.1600495576858521|XArbitraryZVertical|-0.3916274053445625|-0.1445369293122206|-0.8982841583326173|0.137196052673814|-0.7432451844215393|-0.152210995554924|-0.6514741182327271|0|0|0|-1|-1|3
2021-04-09 10:17:54.765 +0100|29294.65882141667|-0.341217041015625|0.42999267578125|-0.3161773681640625|29294.63886041667|-2.772070086428124|-0.861477938892003|0.1569714197344756|-0.02702765166759491|-0.5635970234870911|-0.1843264400959015|0.2846483588218689|0.4515840411186218|0.1969131231307983|XArbitraryZVertical|-0.3960840955426298|-0.1465022384631818|-0.8964569159957442|0.1342370313458957|-0.7494767308235168|-0.1563275903463364|-0.6433089375495911|0|0|0|-1|-1|3
2021-04-09 10:17:54.785 +0100|29294.67878241667|-0.2667999267578125|0.50732421875|-0.2261199951171875|29294.65882141667|-2.77437820047531|-0.8729720728069045|0.1577435340268328|-0.08273065090179443|-0.6284526586532593|-0.01612047851085663|0.3920589685440063|0.5568693280220032|0.2990488409996033|XArbitraryZVertical|-0.4013229141097196|-0.1471487205447384|-0.8943218583957412|0.1321958858677621|-0.7567286491394043|-0.1570901572704315|-0.6345743536949158|0|0|0|-1|-1|3
2021-04-09 10:17:54.805 +0100|29294.69874341667|-0.2136383056640625|0.65423583984375|-0.0970306396484375|29294.67878241667|-2.775225133850919|-0.8872169882496512|0.1550454314772889|-0.17949478328228|-0.8317198753356934|0.1883405148983002|0.483637809753418|0.6745044589042664|0.3612398505210876|XArbitraryZVertical|-0.4080108920692866|-0.146727696415131|-0.891484635854159|0.1313518709241905|-0.7660167813301086|-0.1544249802827835|-0.6239961981773376|0|0|0|-1|-1|3
2021-04-09 10:17:54.825 +0100|29294.71870441667|-0.230377197265625|0.8300628662109375|-0.0792694091796875|29294.69874341667|-2.774984322035907|-0.9070801959187977|0.1467748020298037|-0.3093118965625763|-1.196115136146545|0.4682017266750336|0.5537904500961304|0.7198861837387085|0.4857063293457031|XArbitraryZVertical|-0.4176366112754181|-0.1444554976963038|-0.8873191000570008|0.1318225739156119|-0.7792388796806335|-0.146248385310173|-0.6094245314598083|0|0|0|-1|-1|3
2021-04-09 10:17:54.845 +0100|29294.73866541667|-0.2657318115234375|0.781585693359375|-0.081787109375|29294.71870441667|-2.774842387094128|-0.9358701429219399|0.1320187794444011|-0.6470710039138794|-1.648041844367981|0.7365149259567261|0.5742479562759399|0.9748504757881165|0.5044455528259277|XArbitraryZVertical|-0.4317811519716795|-0.1399521002431226|-0.8810518307357348|0.1331397698522465|-0.7981095314025879|-0.1316356211900711|-0.5879569053649902|0|0|0|-1|-1|3
2021-04-09 10:17:54.865 +0100|29294.75862741667|-0.4445343017578125|1.10516357421875|-0.081451416015625|29294.75862741667|-2.811644312213677|-1.005826720737097|0.04956254643590017|-3.038736343383789|-1.781463503837585|1.852435946464539|0.4520578384399414|1.049296975135803|0.3766516447067261|XArbitraryZVertical|-0.4717246899003952|-0.1005457114850912|-0.865981918855653|0.1320677943675483|-0.8435677886009216|-0.04954225942492485|-0.5347327589988708|0|0|0|-1|-1|3
2021-04-09 10:17:54.885 +0100|29294.77858841667|-0.607940673828125|1.827041625976562|-0.1077117919921875||||||||||||||||||||||||3
2021-04-09 10:17:54.905 +0100|29294.79854941667|-0.7631988525390625|1.548416137695312|-0.168975830078125|29294.77858841667|-2.837917784620331|-1.039541922616252|-0.01393055893429527|-2.286927938461304|-1.677282929420471|2.16353964805603|0.2996344566345215|1.730316281318665|0.4804581999778748|XArbitraryZVertical|-0.4918694056419325|-0.06914777576419244|-0.8574032897364033|0.1346954777968719|-0.862088680267334|0.01393010839819908|-0.5065661668777466|0|0|0|-1|-1|3
2021-04-09 10:17:54.925 +0100|29294.81851041667|-0.907501220703125|1.910781860351562|-0.39569091796875|29294.79854941667|-2.854999790249285|-1.070022512238705|-0.0753690120086352|-2.34487247467041|-1.19918167591095|2.322268962860107|0.1363787651062012|1.423465251922607|0.3178221583366394|XArbitraryZVertical|-0.508895253942075|-0.04067961749929024|-0.8480982301887054|0.1417760324011542|-0.8747211098670959|0.07529767602682114|-0.4787415862083435|0|0|0|-1|-1|3
2021-04-09 10:17:54.945 +0100|29294.83847141667|-1.348953247070312|2.558868408203125|-0.2348785400390625|29294.81851041667|-2.86921678440896|-1.091334929433372|-0.1316527942886654|-1.789189219474792|-0.8853965401649475|2.12621545791626|0.0412781834602356|1.789807677268982|0.05220365524291992|XArbitraryZVertical|-0.5207033842541229|-0.01460321869340492|-0.8403975912023035|0.1496224501175292|-0.8795656561851501|0.1312728077173233|-0.4573094546794891|0|0|0|-1|-1|3
2021-04-09 10:17:54.965 +0100|29294.85843241667|-1.680282592773438|2.857879638671875|0.396087646484375|29294.83847141667|-2.886411078948567|-1.111948802460821|-0.1949658188552192|-2.849753856658936|-1.098856210708618|2.840037107467651|-0.3594362735748291|2.176627397537231|0.1591786742210388|XArbitraryZVertical|-0.5315150562766404|0.01516024613230209|-0.8319462129355757|0.1585166598885781|-0.8795775771141052|0.1937330067157745|-0.4345238208770752|0|0|0|-1|-1|3
2021-04-09 10:17:54.985 +0100|29294.87839341667|-2.094497680664062|2.9954833984375|1.08740234375|29294.85843241667|-2.925760517690872|-1.150362066016366|-0.2900686933628017|-4.498709678649902|-1.913529753684998|4.176364898681641|-0.7234925627708435|2.423499345779419|0.6144484877586365|XArbitraryZVertical|-0.5482057583230372|0.06258986445175296|-0.8169863116649454|0.1675902903449032|-0.8747742772102356|0.286018043756485|-0.3911059200763702|0|0|0|-1|-1|3
2021-04-09 10:17:55.005 +0100|29294.89835541667|-2.98040771484375|2.944381713867188|1.044754028320312|29294.87839341667|-2.971914635475359|-1.219639074860249|-0.4104846437664056|-3.639489889144897|-3.489217519760132|5.183751106262207|-1.078587889671326|2.572686195373535|1.289011001586914|XArbitraryZVertical|-0.5728393765699673|0.1189559197736228|-0.7897690501951508|0.1843085157301915|-0.8609724640846252|0.3990537524223328|-0.3154090642929077|0|0|0|-1|-1|3
2021-04-09 10:17:55.024 +0100|29294.91831641667|-3.633453369140625|3.250228881835938|1.021438598632812|29294.89835541667|-2.981838071535614|-1.309182904204565|-0.5285333487869651|-0.7656092047691345|-4.91500186920166|5.83006477355957|-1.89607572555542|2.512897968292236|1.284016013145447|XArbitraryZVertical|-0.6023589747720892|0.1596556710632977|-0.7506260833059651|0.2196231399297636|-0.834164559841156|0.5042673349380493|-0.223347470164299|0|0|0|-1|-1|3
2021-04-09 10:17:55.045 +0100|29294.93827741667|-4.244155883789062|3.32373046875|0.8308563232421875|29294.91831641667|-2.933595741795854|-1.387209004403553|-0.6505934982335652|2.011460065841675|-5.659886837005615|7.017341613769531|-2.726681232452393|2.470390319824219|1.153489947319031|XArbitraryZVertical|-0.6280231140818257|0.1815326809741404|-0.7034727934341822|0.2788529285217149|-0.7823525071144104|0.6056587696075439|-0.1452657133340836|0|0|0|-1|-1|3
2021-04-09 10:17:55.064 +0100|29294.95823841667|-4.692581176757812|2.668685913085938|0.1168975830078125|29294.93827741667|-2.815841961201599|-1.42955379789372|-0.7935375098961176|4.456204891204834|-6.241578578948975|8.48021411895752|-3.341209411621094|2.603231191635132|1.022922396659851|XArbitraryZVertical|-0.6438552218529471|0.1899638742496427|-0.6462767052989512|0.3628923187343977|-0.6943444013595581|0.7128387093544006|-0.09872835874557495|0|0|0|-1|-1|3
2021-04-09 10:17:55.084 +0100|29294.97819941667|-4.542327880859375|1.463623046875|-0.4620208740234375|29294.95823841667|-2.604117478149651|-1.386343472951845|-0.9551955289718471|6.293752193450928|-5.533068656921387|9.506064414978027|-4.07463550567627|2.052576065063477|0.4174478650093079|XArbitraryZVertical|-0.6409890252455931|0.1902063744010452|-0.5806450778255078|0.4645491970200674|-0.5676538348197937|0.8164266347885132|-0.1059092059731483|0|0|0|-1|-1|3
2021-04-09 10:17:55.104 +0100|29294.99816041667|-3.80523681640625|1.351333618164062|-0.46954345703125|29294.97819941667|-2.26092356180162|-1.185989089696453|-1.109492258594112|6.524352073669434|-3.841194868087769|9.891402244567871|-4.119509220123291|1.004475116729736|0.05702660977840424|XArbitraryZVertical|-0.6159069677781185|0.1926513235588787|-0.5121984264686305|0.5667425635080034|-0.4125657379627228|0.8954728245735168|-0.1670881509780884|0|0|0|-1|-1|3
2021-04-09 10:17:55.124 +0100|29295.01812141667|-3.217529296875|0.8916778564453125|-0.50689697265625|29294.99816041667|-1.708670878096141|-0.7408818928703454|-1.196812881341492|6.677273750305176|-2.433937549591064|9.705498695373535|-3.780298709869385|0.6473521590232849|-0.1837582290172577|XArbitraryZVertical|-0.5704291148236209|0.1995700259859896|-0.446895441295965|0.6595960723667502|-0.2465731352567673|0.9308794736862183|-0.2695648670196533|0|0|0|-1|-1|3
2021-04-09 10:17:55.144 +0100|29295.03808341667|-2.553741455078125|0.4866180419921875|-0.7463836669921875|29295.01812141667|-1.094258761275108|-0.2045233334051238|-1.179159619186083|5.076200008392334|-1.244211316108704|9.599278450012207|-3.299964427947998|0.05102580785751343|-0.07205402851104736|XArbitraryZVertical|-0.5165070540294535|0.2152840685749064|-0.3816753938720315|0.7356611054688572|-0.07752383500337601|0.9242855906486511|-0.3737464547157288|0|0|0|-1|-1|3
2021-04-09 10:17:55.164 +0100|29295.05804441667|-1.812088012695312|0.03741455078125|-0.6863555908203125|29295.03808341667|-0.6501555733324318|0.1809211173175977|-1.090672901964681|3.882408142089844|-0.6262351274490356|8.843193054199219|-2.812145709991455|-0.2895102500915527|-0.238749623298645|XArbitraryZVertical|-0.4648619602441305|0.2381770951968525|-0.3163447193759974|0.7918972203454322|0.08311031013727188|0.8869379162788391|-0.4543500542640686|0|0|0|-1|-1|3
2021-04-09 10:17:55.184 +0100|29295.07800541667|-1.312210083007812|-0.0535888671875|-0.4887847900390625|29295.05804441667|-0.3760426618221432|0.4094451798573684|-0.9778816996260873|2.769721508026123|-0.1771522462368011|7.762242317199707|-2.203943014144897|-0.7546385526657104|-0.2127791047096252|XArbitraryZVertical|-0.4182309426452444|0.2622716127411583|-0.2553719778107365|0.8313133428948127|0.222450852394104|0.8293155431747437|-0.5125929713249207|0|0|0|-1|-1|3
2021-04-09 10:17:55.204 +0100|29295.09796641667|-1.00323486328125|-0.111480712890625|-0.2886962890625|29295.07800541667|-0.2033877393005925|0.5459043730098991|-0.8704542424509922|1.964194655418396|-0.00532354973256588|6.3981614112854|-1.744795680046082|-0.8167604207992554|0.002378284931182861|XArbitraryZVertical|-0.3790945671097243|0.2843986153577919|-0.2017168341933046|0.8571552396929801|0.3346080183982849|0.7646217942237854|-0.5508095026016235|0|0|0|-1|-1|3
2021-04-09 10:17:55.224 +0100|29295.11792741667|-0.8367462158203125|-0.00628662109375|-0.22320556640625|29295.09796641667|-0.08517110330005577|0.6324971155495132|-0.7824016370288274|0.9156644344329834|-0.03924268484115601|5.204486846923828|-1.483214855194092|-0.8435032367706299|0.2374164462089539|XArbitraryZVertical|-0.3498211596934578|0.3026748174953863|-0.1558822871039693|0.8727623288477911|0.4192645251750946|0.704984724521637|-0.5720261931419373|0|0|0|-1|-1|3
2021-04-09 10:17:55.244 +0100|29295.13788841667|-0.7281951904296875|0.0343475341796875|-0.2467498779296875|29295.11792741667|0.00774148491727619|0.693395606162031|-0.717369070389384|0.1355499774217606|-0.1848676353693008|4.227415561676025|-1.353513598442078|-0.7153412699699402|0.3317590951919556|XArbitraryZVertical|-0.3313847476722419|0.3168889020082926|-0.1158725295729162|0.8811012139250203|0.4816256165504456|0.6574044227600098|-0.5795311331748962|0|0|0|-1|-1|3
2021-04-09 10:17:55.264 +0100|29295.15784941667|-0.57598876953125|-0.0666351318359375|-0.1798095703125|29295.13788841667|0.08280041256045524|0.7369063446377784|-0.668261098086724|-0.20012266933918|-0.2637719213962555|3.398220539093018|-1.27949857711792|-0.5986098647117615|0.3444578647613525|XArbitraryZVertical|-0.3197582687407194|0.3272999279387593|-0.08154139936196624|0.885426784780845|0.5274531841278076|0.6196220517158508|-0.5812588334083557|0|0|0|-1|-1|3
2021-04-09 10:17:55.284 +0100|29295.17781141667|-0.39056396484375|0.0117950439453125|-0.0555267333984375|29295.15784941667|0.1454062207367805|0.7683650777468684|-0.6326709287439589|-0.5939010977745056|-0.3734441101551056|2.707427024841309|-1.186673164367676|-0.6445226073265076|0.3481419682502747|XArbitraryZVertical|-0.3135218296671383|0.3343136215880974|-0.05228484859204318|0.887245657270199|0.5604517459869385|0.5913008451461792|-0.5798768997192383|0|0|0|-1|-1|3
2021-04-09 10:17:55.304 +0100|29295.19777241667|-0.3558349609375|0.015289306640625|-0.09967041015625|29295.17781141667|0.1953601869422678|0.7884088696857139|-0.6068304883592043|-0.3658024668693542|-0.5422128438949585|2.020562887191772|-1.008158802986145|-0.5555715560913086|0.5141366124153137|XArbitraryZVertical|-0.3102961019838713|0.3378789471507495|-0.02827515605177703|0.8881187027859294|0.5826058983802795|0.5702667236328125|-0.5791082978248596|0|0|0|-1|-1|3
2021-04-09 10:17:55.324 +0100|29295.21773341667|-0.343505859375|0.01092529296875|-0.173583984375|29295.19777241667|0.2269702594636762|0.7939806501785119|-0.5848481300375429|0.07111544162034988|-0.6545277833938599|1.391078233718872|-0.9465962052345276|-0.5659115314483643|0.5027905106544495|XArbitraryZVertical|-0.3060701951772905|0.337743227342982|-0.01074136567106655|0.8900198740491782|0.5946211218833923|0.5520727634429932|-0.5845010876655579|0|0|0|-1|-1|3
2021-04-09 10:17:55.344 +0100|29295.23769441667|-0.331390380859375|0.088104248046875|-0.156646728515625|29295.21773341667|0.2424202720823334|0.7881547631531576|-0.5662389808196504|0.2634525001049042|-0.7535731196403503|0.8828321099281311|-0.948546826839447|-0.5111160278320312|0.4309590458869934|XArbitraryZVertical|-0.3006250493239536|0.3347772308759148|0.0007287594883819682|0.8930556173597446|0.5983875393867493|0.5364618301391602|-0.595097541809082|0|0|0|-1|-1|3
2021-04-09 10:17:55.364 +0100|29295.25765541667|-0.315032958984375|0.0906219482421875|-0.1897735595703125|29295.23769441667|0.2490384065748811|0.7764035267714182|-0.5528357589989282|0.296785831451416|-0.7813166379928589|0.46637824177742|-0.9338938593864441|-0.4611063599586487|0.4493576288223267|XArbitraryZVertical|-0.2958757212869885|0.3299631469880613|0.008088669653588598|0.8963908928642184|0.5963383913040161|0.5251026749610901|-0.6071637868881226|0|0|0|-1|-1|3
2021-04-09 10:17:55.384 +0100|29295.27761641667|-0.30035400390625|0.0939483642578125|-0.2158660888671875|29295.25765541667|0.2502090876245814|0.7611212591406851|-0.545374625926094|0.104496106505394|-0.81247478723526|0.1381445378065109|-0.9034432172775269|-0.4232937097549438|0.4468913674354553|XArbitraryZVertical|-0.2927333359001864|0.323719681337635|0.01231593153686551|0.8996451057016775|0.5896762013435364|0.5187383890151978|-0.6190255284309387|0|0|0|-1|-1|3
2021-04-09 10:17:55.404 +0100|29295.29757741667|-0.267791748046875|0.151458740234375|-0.2566986083984375|29295.27761641667|0.251178952537908|0.7459565034605201|-0.5463868396898128|-0.1931247562170029|-0.7336122989654541|-0.1717564165592194|-0.8851478695869446|-0.4411876201629639|0.4059072136878967|XArbitraryZVertical|-0.2932292310361128|0.3166408751717724|0.0147805069389442|0.9019628423200982|0.5798647403717041|0.5196034908294678|-0.6275103688240051|0|0|0|-1|-1|3
2021-04-09 10:17:55.424 +0100|29295.31753941667|-0.1687469482421875|-0.085968017578125|-0.1616668701171875|29295.29757741667|0.2471793115465813|0.7305035110420264|-0.553751116145047|-0.1389110535383224|-0.6303466558456421|-0.5889595150947571|-0.8505508899688721|-0.3653732538223267|0.3820027112960815|XArbitraryZVertical|-0.2957271243954017|0.3094855263791708|0.01386578302521709|0.9036438270764384|0.5675303339958191|0.5258814692497253|-0.6335283517837524|0|0|0|-1|-1|3
2021-04-09 10:17:55.444 +0100|29295.33750041667|-0.205841064453125|0.1581878662109375|-0.1309814453125|29295.31753941667|0.2388780677007984|0.7125958181911477|-0.5690306992292791|-0.5634568333625793|-0.7374321222305298|-0.9397094249725342|-0.7396506071090698|-0.580394983291626|0.4304340481758118|XArbitraryZVertical|-0.3010804123497925|0.3010537174751204|0.009972307846440799|0.9047751338912164|0.5507767796516418|0.5388157367706299|-0.6374344825744629|0|0|0|-1|-1|3
2021-04-09 10:17:55.464 +0100|29295.35746141667|-0.2644805908203125|0.234588623046875|-0.1719512939453125|29295.33750041667|0.2260170351727042|0.6896299826681647|-0.5920119165802502|-0.3288926780223846|-0.8424524068832397|-1.400307059288025|-0.7138268947601318|-0.4806686639785767|0.5211722850799561|XArbitraryZVertical|-0.309241242250244|0.2903008482538736|0.003541717173090488|0.9055842649206365|0.5279742479324341|0.5580316781997681|-0.6401905417442322|0|0|0|-1|-1|3
2021-04-09 10:17:55.484 +0100|29295.37742241667|-0.289825439453125|0.171478271484375|-0.1996917724609375|29295.35746141667|0.1957467798089297|0.6550681858931148|-0.6126135375723395|0.1566144526004791|-0.9072223901748657|-1.827970385551453|-0.7505024671554565|-0.3376563191413879|0.4749382734298706|XArbitraryZVertical|-0.3141159653960884|0.2773677013274273|-0.008327875165363291|0.9079256989423194|0.4984267055988312|0.5750076770782471|-0.6487966179847717|0|0|0|-1|-1|3
2021-04-09 10:17:55.504 +0100|29295.39738341667|-0.2899322509765625|0.1814117431640625|-0.1725006103515625|29295.37742241667|0.1531749597999541|0.6106141914924085|-0.6330929418134054|0.2029994428157806|-1.061998724937439|-2.166517019271851|-0.7480653524398804|-0.4181172847747803|0.4640001058578491|XArbitraryZVertical|-0.3178765722224822|0.2620985187214289|-0.02394544085901153|0.9108708214242349|0.4622524082660675|0.5916411280632019|-0.660517692565918|0|0|0|-1|-1|3
2021-04-09 10:17:55.523 +0100|29295.41734441667|-0.3702850341796875|0.268951416015625|-0.13104248046875|29295.39738341667|0.1028844083021708|0.5575798062774306|-0.6565414226344433|-0.003797214478254318|-1.244845271110535|-2.490951061248779|-0.7117040753364563|-0.4188822507858276|0.4839476346969604|XArbitraryZVertical|-0.3229427974329565|0.2442150500592041|-0.04181204218203722|0.9134104955060619|0.4191313982009888|0.6103809475898743|-0.6721339225769043|0|0|0|-1|-1|3
2021-04-09 10:17:55.544 +0100|29295.43730541667|-0.5284423828125|0.380218505859375|-0.123565673828125|29295.41734441667|0.04633309743879865|0.4952688403410717|-0.6859570653534126|-0.302337646484375|-1.479432702064514|-2.842309951782227|-0.7051871418952942|-0.4087426662445068|0.5411387085914612|XArbitraryZVertical|-0.3312946678700738|0.2232208850885846|-0.06125738571782303|0.9146933143632812|0.3677688241004944|0.6334139108657837|-0.68083256483078|0|0|0|-1|-1|3
2021-04-09 10:17:55.563 +0100|29295.45726741667|-0.6995697021484375|0.5319976806640625|-0.2216339111328125|29295.43730541667|-0.0206827963054589|0.4199696802231238|-0.7193036483488812|-0.4075402319431305|-1.709549427032471|-3.222916603088379|-0.7903358340263367|-0.3034677505493164|0.5741776823997498|XArbitraryZVertical|-0.3421813645481183|0.1986577975102343|-0.08282489538061935|0.9146514586194429|0.306723028421402|0.658860981464386|-0.6868939995765686|0|0|0|-1|-1|3
2021-04-09 10:17:55.583 +0100|29295.47722841667|-0.8072509765625|0.66693115234375|-0.2976531982421875|29295.45726741667|-0.1019541016933574|0.3300008000658314|-0.7511125604361643|-0.3411933779716492|-1.81761646270752|-3.567163705825806|-0.8969494104385376|-0.193651556968689|0.4994134902954102|XArbitraryZVertical|-0.353552229226447|0.1710423307365902|-0.1069277553694032|0.9134068288792471|0.2368533760309219|0.682452380657196|-0.6914907097816467|0|0|0|-1|-1|3
2021-04-09 10:17:55.603 +0100|29295.49718941667|-0.865142822265625|0.7556304931640625|-0.311553955078125|29295.47722841667|-0.1976911455589205|0.2271834620456627|-0.7782825104122203|-0.4419744312763214|-1.818331003189087|-3.808248519897461|-0.9490452408790588|-0.06915265321731567|0.4058436155319214|XArbitraryZVertical|-0.3647595608750502|0.1415603467989432|-0.1335115774379812|0.9105415961462727|0.1603939235210419|0.702057421207428|-0.6938222646713257|0|0|0|-1|-1|3
2021-04-09 10:17:55.623 +0100|29295.51715041667|-0.9537200927734375|0.907073974609375|-0.251953125|29295.49718941667|-0.3047983088376719|0.1144983808700747|-0.803371503707524|-0.7429918050765991|-1.861201643943787|-4.093664646148682|-0.9194248914718628|0.0255236029624939|0.3673357367515564|XArbitraryZVertical|-0.3778110437475367|0.1113091219076985|-0.1616086523214842|0.9048490449790906|0.07932084053754807|0.7197009325027466|-0.6897382140159607|0|0|0|-1|-1|3
2021-04-09 10:17:55.643 +0100|29295.53711141667|-0.996429443359375|0.934051513671875|-0.3194732666015625|29295.51715041667|-0.4264791379601946|-0.01208841808226535|-0.823067238728628|-0.7863250374794006|-1.968139886856079|-4.37409496307373|-0.9326840043067932|0.1205253601074219|0.4146217107772827|XArbitraryZVertical|-0.3921203563110769|0.07923850035763222|-0.1915915547302443|0.8962453188102514|-0.008219627663493156|0.7332349419593811|-0.679925799369812|0|0|0|-1|-1|3
2021-04-09 10:17:55.663 +0100|29295.5570725|-1.167739868164062|0.9318389892578125|-0.3843994140625|29295.53711141667|-0.5615027488449235|-0.1530901856186823|-0.8324584174368028|-0.9603440761566162|-2.172831058502197|-4.651976585388184|-0.8677163124084473|0.2124689817428589|0.3776366114616394|XArbitraryZVertical|-0.4067262083067414|0.04449553230153134|-0.2229711817212175|0.8848038413537277|-0.1026368141174316|0.7395882606506348|-0.6651878952980042|0|0|0|-1|-1|3
2021-04-09 10:17:55.683 +0100|29295.5770335|-1.2939453125|1.1016845703125|-0.4271087646484375|29295.5570725|-0.7081089615059223|-0.3050967586521194|-0.8356508429774587|-1.644602656364441|-2.13744068145752|-4.885398387908936|-0.9236559271812439|0.1755645275115967|0.2731444835662842|XArbitraryZVertical|-0.4243376332356911|0.008778865144528256|-0.2553621960836546|0.868706364535867|-0.2014670670032501|0.741733193397522|-0.6397210359573364|0|0|0|-1|-1|3
2021-04-09 10:17:55.703 +0100|29295.5969955|-1.289901733398438|1.451553344726562|-0.4243621826171875|29295.5770335|-0.8674535265511337|-0.4633389844724406|-0.8337859704276805|-2.050962686538696|-1.837936282157898|-5.089138984680176|-0.9720090627670288|0.2984594702720642|0.1827605366706848|XArbitraryZVertical|-0.445839490004349|-0.02487436332639143|-0.2896328717566422|0.846593919535354|-0.3003765046596527|0.7404811382293701|-0.6012168526649475|0|0|0|-1|-1|3
2021-04-09 10:17:55.723 +0100|29295.6169565|-1.28472900390625|1.472702026367188|-0.3924102783203125|29295.5969955|-1.026708473242285|-0.6144682030848226|-0.8146966042447982|-1.836851000785828|-1.59813392162323|-5.195342540740967|-0.9017409682273865|0.6579806804656982|0.1415385007858276|XArbitraryZVertical|-0.4653174497144335|-0.05643336557964301|-0.3254332152514156|0.8212114753438161|-0.3955469727516174|0.7275174856185913|-0.5605899095535278|0|0|0|-1|-1|3
2021-04-09 10:17:55.743 +0100|29295.6369175|-1.345718383789062|1.520950317382812|-0.44232177734375|29295.6169565|-1.174296751402185|-0.7505431121593001|-0.7768440304998488|-1.797980308532715|-1.466812968254089|-5.175252914428711|-0.7935585975646973|0.7865470051765442|0.1204026341438293|XArbitraryZVertical|-0.4812833985329176|-0.08720006070984991|-0.3614745791195383|0.7937875188717209|-0.4863800704479218|0.701032280921936|-0.5215249061584473|0|0|0|-1|-1|3
2021-04-09 10:17:55.763 +0100|29295.6568785|-1.367462158203125|1.64959716796875|-0.4683990478515625|29295.6369175|-1.307341423892267|-0.8688307424507495|-0.7291745893039804|-1.92319643497467|-1.225872874259949|-4.955265998840332|-0.7617613673210144|0.832158625125885|0.05568766593933105|XArbitraryZVertical|-0.4958853423888168|-0.1154691668079028|-0.3962293923479823|0.7640464678079503|-0.5694162845611572|0.6662543416023254|-0.4815292060375214|0|0|0|-1|-1|3
2021-04-09 10:17:55.783 +0100|29295.6768395|-1.295684814453125|1.687759399414062|-0.4692230224609375|29295.6568785|-1.422895556555344|-0.9645284565525412|-0.676204859436226|-1.921282887458801|-0.8672609925270081|-4.610768795013428|-0.7299762964248657|0.9915176033973694|-0.02263450622558594|XArbitraryZVertical|-0.5082560975332008|-0.139517891801454|-0.4291945037727719|0.733486655011881|-0.6409504413604736|0.625837504863739|-0.4444209933280945|0|0|0|-1|-1|3
2021-04-09 10:17:55.803 +0100|29295.6968005|-1.21026611328125|1.6524658203125|-0.42425537109375|29295.6768395|-1.525830435205877|-1.040743497553191|-0.6234760177122878|-2.18823504447937|-0.5356513261795044|-4.263292789459229|-0.6209450364112854|1.100526213645935|-0.0675092339515686|XArbitraryZVertical|-0.5193771665951978|-0.1581746061237487|-0.4604352669908353|0.7023017967117655|-0.7004517316818237|0.5838606953620911|-0.4104562997817993|0|0|0|-1|-1|3
2021-04-09 10:17:55.823 +0100|29295.7167615|-1.076690673828125|1.603836059570312|-0.292510986328125|29295.6968005|-1.623068430774439|-1.102743095912938|-0.5741230737117162|-2.511066913604736|-0.1676812916994095|-3.923483371734619|-0.484389066696167|1.137870073318481|-0.06522881984710693|XArbitraryZVertical|-0.5304498908371289|-0.170923037578202|-0.4904676902439575|0.6699625535428909|-0.7493611574172974|0.5430986881256104|-0.3788164556026459|0|0|0|-1|-1|3
2021-04-09 10:17:55.843 +0100|29295.7367235|-0.9805450439453125|1.578704833984375|-0.1767120361328125|29295.7167615|-1.715566176630938|-1.151217886878467|-0.5290737615856842|-2.585482835769653|0.1372212916612625|-3.532792329788208|-0.3217586874961853|1.101558208465576|0.03020572662353516|XArbitraryZVertical|-0.5408846015408765|-0.1777787318532926|-0.5193398884807912|0.6372793115197365|-0.7883952856063843|0.5047339797019958|-0.3516771495342255|0|0|0|-1|-1|3
2021-04-09 10:17:55.863 +0100|29295.7566845|-0.92559814453125|1.417633056640625|-0.1911468505859375|29295.7367235|-1.797352875098579|-1.187310405393776|-0.4871771874674824|-2.337442398071289|0.1969904005527496|-3.133155345916748|-0.1791378259658813|1.136312484741211|0.1397234797477722|XArbitraryZVertical|-0.5492853640926026|-0.1815843267977247|-0.5454637708768748|0.6064504381495726|-0.8194743394851685|0.4681333601474762|-0.33062544465065|0|0|0|-1|-1|3
2021-04-09 10:17:55.883 +0100|29295.7766455|-0.8431854248046875|1.25286865234375|-0.2598419189453125|29295.7566845|-1.868376462928661|-1.215751538732303|-0.4486714357039516|-2.238302230834961|0.1631356179714203|-2.761943101882935|-0.09512913227081299|1.03197455406189|0.1417781114578247|XArbitraryZVertical|-0.5562986752298194|-0.1841716195799961|-0.5680011974669051|0.5779163947977015|-0.8448282480239868|0.4337688386440277|-0.3132252097129822|0|0|0|-1|-1|3
2021-04-09 10:17:55.903 +0100|29295.7966065|-0.7731170654296875|1.140304565429688|-0.267303466796875|29295.7766455|-1.934150497099882|-1.239791562089608|-0.4150201176015512|-2.28689432144165|0.188789039850235|-2.430610656738281|-0.003632128238677979|0.8906446695327759|0.05030399560928345|XArbitraryZVertical|-0.5631947853945046|-0.1846876773759487|-0.5877343200672375|0.5507001567758999|-0.8654328584671021|0.4032083451747894|-0.2974041998386383|0|0|0|-1|-1|3
2021-04-09 10:17:55.923 +0100|29295.8165675|-0.79473876953125|1.17724609375|-0.2416534423828125|29295.7966065|-1.998551657836111|-1.261153186812186|-0.3869366775245874|-2.448518991470337|0.1689561605453491|-2.105036497116089|0.1017231941223145|0.7690844535827637|0.01531514525413513|XArbitraryZVertical|-0.5706549303607424|-0.1823666384116938|-0.6053374009079154|0.5240820704469306|-0.8820277452468872|0.3773533403873444|-0.2821907103061676|0|0|0|-1|-1|3
2021-04-09 10:17:55.943 +0100|29295.8365285|-0.7274932861328125|1.065643310546875|-0.233428955078125|29295.8165675|-2.059314376491922|-1.280191184773639|-0.3630634498338484|-2.196088314056396|0.1663338989019394|-1.881437063217163|0.1022816896438599|0.8172379732131958|0.01687797904014587|XArbitraryZVertical|-0.5781102188785021|-0.1784981725066457|-0.6206052066605434|0.4987746457373924|-0.8956171274185181|0.3551396429538727|-0.2678539454936981|0|0|0|-1|-1|3
2021-04-09 10:17:55.963 +0100|29295.8564895|-0.678436279296875|0.8833160400390625|-0.238983154296875|29295.8365285|-2.110668507216586|-1.294631318277692|-0.3397981285736513|-1.818320274353027|0.1358273923397064|-1.707924008369446|0.1599191427230835|0.7725678086280823|0.02554106712341309|XArbitraryZVertical|-0.5836222592313458|-0.1756313250357349|-0.6338002651971706|0.4762730705467539|-0.907096803188324|0.3332967758178711|-0.2570773959159851|0|0|0|-1|-1|3
2021-04-09 10:17:55.983 +0100|29295.8764515|-0.6937103271484375|0.7572784423828125|-0.272125244140625|29295.8564895|-2.154592149151705|-1.307167725625115|-0.31749716056216|-1.635536074638367|0.02903942950069904|-1.555022239685059|0.2302767038345337|0.6115915775299072|0.01057764887809753|XArbitraryZVertical|-0.5882039703091037|-0.173883298086728|-0.6448559497681968|0.4560060623131205|-0.9171973466873169|0.3121897876262665|-0.2475613802671432|0|0|0|-1|-1|3
2021-04-09 10:17:56.002 +0100|29295.8964125|-0.684722900390625|0.67999267578125|-0.270416259765625|29295.8764515|-2.196246597261079|-1.320477674586437|-0.2971935511421125|-1.726652860641479|-0.07587771862745285|-1.430123329162598|0.2398685812950134|0.4909440577030182|-0.03003750741481781|XArbitraryZVertical|-0.5932793300454621|-0.1720258160866182|-0.6541545349219215|0.4364730512311811|-0.9263619780540466|0.2928379476070404|-0.2368535101413727|0|0|0|-1|-1|3
2021-04-09 10:17:56.023 +0100|29295.9163735|-0.6505584716796875|0.696563720703125|-0.249053955078125|29295.8964125|-2.241128086363525|-1.335017878684389|-0.2789830795677391|-2.020074844360352|-0.1046700552105904|-1.385621786117554|0.2465056777000427|0.4222069084644318|-0.04740415513515472|XArbitraryZVertical|-0.5994487658751468|-0.1684551679645637|-0.6627777005241687|0.4159445102278947|-0.9347385764122009|0.2753781974315643|-0.2245680689811707|0|0|0|-1|-1|3
2021-04-09 10:17:56.042 +0100|29295.9363345|-0.63018798828125|0.696868896484375|-0.26104736328125|29295.9163735|-2.289943976931641|-1.350588392874164|-0.2611978279987917|-2.090107440948486|-0.1547127813100815|-1.431841731071472|0.2799713015556335|0.4324348866939545|-0.04121898114681244|XArbitraryZVertical|-0.6064411303783257|-0.1634544258957226|-0.6711401873754733|0.3938054167833371|-0.942752480506897|0.2582379281520844|-0.2110236138105392|0|0|0|-1|-1|3
2021-04-09 10:17:56.062 +0100|29295.9562955|-0.6981353759765625|0.62451171875|-0.2942962646484375|29295.9363345|-2.335678072648821|-1.366214340960089|-0.2410702568692833|-1.81865930557251|-0.2741498351097107|-1.467895030975342|0.3216966390609741|0.4660298824310303|-0.05502051115036011|XArbitraryZVertical|-0.613008902746743|-0.1599327496730698|-0.678553050270423|0.3717627749334279|-0.950832188129425|0.2387420684099197|-0.1972832083702087|0|0|0|-1|-1|3
2021-04-09 10:17:56.082 +0100|29295.9762565|-0.87091064453125|0.515411376953125|-0.3126068115234375|29295.9562955|-2.375855442698711|-1.38225425121097|-0.2190294581170523|-1.606054782867432|-0.4125255048274994|-1.462183713912964|0.2923980951309204|0.431840717792511|-0.100894495844841|XArbitraryZVertical|-0.6191752565056695|-0.1585793780852256|-0.684431608808318|0.3507535582779537|-0.9588108062744141|0.2172823697328568|-0.1829491704702377|0|0|0|-1|-1|3
2021-04-09 10:17:56.102 +0100|29295.9962185|-0.90106201171875|0.43438720703125|-0.2800445556640625|29295.9762565|-2.41242500573346|-1.398369237525504|-0.1961780908806064|-1.548935770988464|-0.4106350243091583|-1.424584031105042|0.1306723356246948|0.3422471880912781|-0.1483671069145203|XArbitraryZVertical|-0.625127072127919|-0.15834981786306|-0.6891507826520822|0.3304735819261234|-0.9662744998931885|0.1949221640825272|-0.1682829558849335|0|0|0|-1|-1|3
2021-04-09 10:17:56.122 +0100|29296.0161795|-0.890228271484375|0.4344329833984375|-0.2265777587890625|29295.9962185|-2.44849916984328|-1.411980167873032|-0.1742317932721913|-1.562735438346863|-0.297510027885437|-1.299874782562256|0.06551361083984375|0.2680078148841858|-0.1379001140594482|XArbitraryZVertical|-0.6303917822654963|-0.1572535928843619|-0.6938440212976598|0.3105771317601078|-0.9724658727645874|0.1733516156673431|-0.1557550132274628|0|0|0|-1|-1|3
2021-04-09 10:17:56.142 +0100|29296.0361405|-0.915252685546875|0.3551177978515625|-0.176788330078125|29296.0161795|-2.481389015256575|-1.422931867951261|-0.1547439738013803|-1.322290062904358|-0.2737919688224792|-1.125601649284363|0.08910083770751953|0.2852791547775269|-0.08935822546482086|XArbitraryZVertical|-0.6348201311816153|-0.1556292548428835|-0.6980102002711606|0.2925149454447142|-0.9772696495056152|0.1541271358728409|-0.1455658674240112|0|0|0|-1|-1|3
2021-04-09 10:17:56.162 +0100|29296.0561015|-0.965576171875|0.2223052978515625|-0.16436767578125|29296.0361405|-2.507535775260707|-1.432541174613905|-0.1375681268954353|-1.009397149085999|-0.3160413205623627|-0.9560022354125977|0.07698655128479004|0.2439525723457336|-0.04932345449924469|XArbitraryZVertical|-0.638542089094061|-0.1549433190042882|-0.7009093642070297|0.2774578819582647|-0.9811007380485535|0.1371346265077591|-0.1365131437778473|0|0|0|-1|-1|3
2021-04-09 10:17:56.182 +0100|29296.0760625|-0.959930419921875|0.1618194580078125|-0.1853790283203125|29296.0561015|-2.528881572944468|-1.441648153010618|-0.1222068813703773|-0.9531574845314026|-0.307627409696579|-0.8608361482620239|0.0243455171585083|0.1359390020370483|-0.03630964457988739|XArbitraryZVertical|-0.6419347791542181|-0.1549363185914509|-0.7027909152339256|0.264574073719708|-0.9842761158943176|0.1219029277563095|-0.1278289556503296|0|0|0|-1|-1|3
2021-04-09 10:17:56.202 +0100|29296.0960235|-0.9511260986328125|0.186370849609375|-0.18817138671875|29296.0760625|-2.550870673786604|-1.449700235604851|-0.1082327343195336|-1.023193717002869|-0.2386425584554672|-0.8082305788993835|0.02501511573791504|0.04407696425914764|-0.07154147326946259|XArbitraryZVertical|-0.6451703698524025|-0.1539754769193717|-0.7046947548242664|0.2518970049787775|-0.9868682622909546|0.108021542429924|-0.1200934946537018|0|0|0|-1|-1|3
2021-04-09 10:17:56.222 +0100|29296.1159845|-0.978057861328125|0.1534271240234375|-0.1519622802734375|29296.0960235|-2.572511587229422|-1.455542555002801|-0.09426327646665754|-0.9492571949958801|-0.1323138773441315|-0.8294285535812378|0.03511333465576172|0.09747976064682007|-0.07278268039226532|XArbitraryZVertical|-0.6476258001276896|-0.1527635358898602|-0.7070425849625434|0.239447217773434|-0.9889556765556335|0.09412374347448349|-0.1144882515072823|0|0|0|-1|-1|3
2021-04-09 10:17:56.242 +0100|29296.1359465|-1.013275146484375|0.0167694091796875|-0.091552734375|29296.1159845|-2.592750477902384|-1.459265559119816|-0.0795223785274856|-0.8845947980880737|-0.06240878254175186|-0.8753427863121033|0.02584820985794067|0.08512634783983231|-0.05444192141294479|XArbitraryZVertical|-0.6491759468712501|-0.1519756796605113|-0.7097796858533583|0.2273475262981847|-0.9906463623046875|0.07943858951330185|-0.1109479665756226|0|0|0|-1|-1|3
2021-04-09 10:17:56.262 +0100|29296.1559075|-0.992828369140625|-0.0543212890625|-0.03033447265625|29296.1359465|-2.612171342083836|-1.46096036212795|-0.06356394816249787|-0.8829435706138611|0.03278164938092232|-0.9192934632301331|-0.01962995529174805|-0.005065843462944031|-0.0001488327980041504|XArbitraryZVertical|-0.6498539496436465|-0.1516340668437725|-0.712999464854783|0.2152415710374207|-0.9919669628143311|0.06352115422487259|-0.109393909573555|0|0|0|-1|-1|3
2021-04-09 10:17:56.282 +0100|29296.1758685|-1.022171020507812|0.0125885009765625|-0.044158935546875|29296.1559075|-2.632768022237075|-1.460837742738919|-0.04726155817481331|-0.9797234535217285|0.08161449432373047|-0.9233118891716003|-0.007729053497314453|-0.09508135914802551|0.07334458827972412|XArbitraryZVertical|-0.6499554647465117|-0.1508329656934928|-0.7167491380809936|0.2026775497744677|-0.9928509593009949|0.04724396765232086|-0.1096146181225777|0|0|0|-1|-1|3
