loggingTime(txt)|accelerometerTimestamp_sinceReboot(s)|accelerometerAccelerationX(G)|accelerometerAccelerationY(G)|accelerometerAccelerationZ(G)|motionTimestamp_sinceReboot(s)|motionYaw(rad)|motionRoll(rad)|motionPitch(rad)|motionRotationRateX(rad/s)|motionRotationRateY(rad/s)|motionRotationRateZ(rad/s)|motionUserAccelerationX(G)|motionUserAccelerationY(G)|motionUserAccelerationZ(G)|motionAttitudeReferenceFrame(txt)|motionQuaternionX(R)|motionQuaternionY(R)|motionQuaternionZ(R)|motionQuaternionW(R)|motionGravityX(G)|motionGravityY(G)|motionGravityZ(G)|motionMagneticFieldX(µT)|motionMagneticFieldY(µT)|motionMagneticFieldZ(µT)|motionHeading(°)|motionMagneticFieldCalibrationAccuracy(Z)|label
2021-04-08 19:40:14.302 +0100|18118.0781445|0.251373291015625|-0.344940185546875|-0.9742431640625|18118.0731545|0.1401726799218784|0.1263637920541801|0.2208272608176001|0.1432933956384659|0.03276956081390381|0.05409112945199013|-0.1022920981049538|0.2352884411811829|-0.02293860912322998|XArbitraryZVertical|0.1053048784878636|0.07030236751536692|0.07640392212068753|0.9890050670144057|0.1229673847556114|-0.219036877155304|-0.9679369330406189|0|0|0|-1|-1|3
2021-04-08 19:40:14.314 +0100|18118.0981055|0.1096343994140625|-0.2210540771484375|-0.9412689208984375|18118.0931155|0.1399169290781608|0.1239704999191474|0.2208753712110003|-0.08530137687921524|-0.1964193135499954|-0.02339594066143036|0.1037919819355011|-0.1328744441270828|0.003557085990905762|XArbitraryZVertical|0.1054288792470944|0.06910684951373548|0.07615266107551442|0.9890955514430171|0.1206491738557816|-0.2190838158130646|-0.9682179689407349|0|0|0|-1|-1|3
2021-04-08 19:40:14.315 +0100|18118.1180665|0.0828094482421875|-0.16131591796875|-0.9326019287109375|18118.1130755|0.1403861922897682|0.1222457303354447|0.2201112727173194|0.02470920979976654|0.04592392593622208|0.05316159874200821|-0.03869278728961945|0.03994867205619812|0.03373003005981445|XArbitraryZVertical|0.1051002355786038|0.06825457868342479|0.07627360831006419|0.9891803065246068|0.1189994215965271|-0.218338206410408|-0.9685904979705811|0|0|0|-1|-1|3
2021-04-08 19:40:14.317 +0100|18118.138025375|0.15399169921875|-0.2195892333984375|-0.949462890625|18118.133035375|0.141831800143506|0.1234796264534352|0.2214832997448364|0.07818884402513504|0.06313013285398483|0.09129220247268677|-0.01366674154996872|0.03269670903682709|0.02763849496841431|XArbitraryZVertical|0.1056825140745597|0.06898432262372269|0.07708998725524455|0.9890043383356223|0.1201574578881264|-0.2196769267320633|-0.9681447148323059|0|0|0|-1|-1|3
2021-04-08 19:40:14.337 +0100|18118.157986375|0.1349029541015625|-0.204132080078125|-0.9703216552734375|18118.152996375|0.1434878758701792|0.1228561874669575|0.2225340947646564|0.02102246321737766|-0.07089052349328995|0.08256041258573532|0.04079821705818176|0.01171852648258209|0.01260626316070557|XArbitraryZVertical|0.1061697333548131|0.06879733030528927|0.07790377521913185|0.9889013855892979|0.1195255070924759|-0.2207019329071045|-0.9679898023605347|0|0|0|-1|-1|3
2021-04-08 19:40:14.357 +0100|18118.177947375|0.1024627685546875|-0.2113494873046875|-0.9648895263671875|18118.172956375|0.1451638891890556|0.1217340281411808|0.2229342186214401|0.004360777325928211|0.01603521592915058|0.09249959141016006|-0.003591179847717285|0.02829834818840027|-0.003812193870544434|XArbitraryZVertical|0.1063542257352812|0.06834448793062529|0.07868335117686763|0.9888513026071556|0.118428461253643|-0.2210921794176102|-0.9680356383323669|0|0|0|-1|-1|3
2021-04-08 19:40:14.377 +0100|18118.197907375|0.13250732421875|-0.2555694580078125|-0.9456024169921875|18118.192917375|0.1469484857620883|0.1216892542379999|0.2223224800157324|-0.1086875647306442|-0.00175043847411871|0.05996215343475342|-0.005181662738323212|-0.008583694696426392|0.00937342643737793|XArbitraryZVertical|0.1059922380120092|0.06839701541854694|0.07954734958577883|0.9888173707362112|0.118401512503624|-0.2204955369234085|-0.9681749939918518|0|0|0|-1|-1|3
2021-04-08 19:40:14.397 +0100|18118.217868375|0.1023406982421875|-0.2046051025390625|-0.92333984375|18118.212878375|0.1484386293405221|0.1204902422283282|0.2187123084792011|-0.1570110470056534|-0.02047986537218094|0.0441151037812233|0.01138728857040405|-0.03110364079475403|0.02654927968978882|XArbitraryZVertical|0.1042025310093068|0.06776231826727204|0.08012751484867632|0.9890044575028204|0.1173354908823967|-0.2169727832078934|-0.9691001772880554|0|0|0|-1|-1|3
2021-04-08 19:40:14.417 +0100|18118.237829375|0.105712890625|-0.2066802978515625|-0.930908203125|18118.232838375|0.1494654189676104|0.1210737980116689|0.2158773679959391|-0.1496271044015884|0.03145870193839073|0.04306306317448616|-0.01931185275316238|0.01480366289615631|0.04582518339157104|XArbitraryZVertical|0.1027409008771921|0.0680086213799259|0.08059208975159877|0.9891026763714981|0.1179748103022575|-0.2142045199871063|-0.9696382880210876|0|0|0|-1|-1|3
2021-04-08 19:40:14.437 +0100|18118.257789375|0.1089935302734375|-0.20751953125|-0.9186553955078125|18118.252799375|0.1507905294492378|0.1219155351589373|0.2125175745918641|-0.2017403095960617|0.03754141554236412|0.04595392569899559|-0.01109007745981216|0.004684686660766602|0.04170411825180054|XArbitraryZVertical|0.1009983516113247|0.06837825606177879|0.08120265131716037|0.9892067931842803|0.1188778057694435|-0.2109214961528778|-0.9702475070953369|0|0|0|-1|-1|3
2021-04-08 19:40:14.457 +0100|18118.277750375|0.1100006103515625|-0.1753692626953125|-0.937286376953125|18118.272760375|0.1527153440753639|0.1223743655501815|0.2083796242781914|-0.2189452946186066|0.08989548683166504|0.09318304806947708|-0.008619517087936401|-0.009478554129600525|0.04676467180252075|XArbitraryZVertical|0.09886494096913123|0.06855893658106331|0.08206888753339411|0.9893382633587241|0.1194284856319427|-0.2068748474121094|-0.9710507988929749|0|0|0|-1|-1|3
2021-04-08 19:40:14.476 +0100|18118.297710375|0.1321868896484375|-0.1610107421875|-0.9300994873046875|18118.292720375|0.1554512276910427|0.1235688027505531|0.2057127398999189|-0.1827331334352493|0.04554245248436928|0.1422414928674698|-0.006474681198596954|0.05021318793296814|0.0363011360168457|XArbitraryZVertical|0.09740078491384563|0.06919057670087043|0.08341017002804874|0.989327388914272|0.1206558346748352|-0.2042649239301682|-0.9714515209197998|0|0|0|-1|-1|3
2021-04-08 19:40:14.504 +0100|18118.317671375|0.1140899658203125|-0.3069305419921875|-0.8986968994140625|18118.312681375|0.1610774675056242|0.1225832177482101|0.2005848032753386|-0.4542715549468994|-0.001594910398125648|0.210930198431015|0.02714747190475464|-0.007314801216125488|0.06602609157562256|XArbitraryZVertical|0.09470923223491978|0.06878792640404253|0.08601016279841747|0.9893941541686651|0.1198248341679573|-0.1992424428462982|-0.9725967645645142|0|0|0|-1|-1|3
2021-04-08 19:40:14.516 +0100|18118.337632375|0.2257232666015625|-0.3650665283203125|-0.856109619140625|18118.332642375|0.1689806304163547|0.1228323694442083|0.1899826132139898|-0.7395793795585632|0.1579921394586563|0.4409418106079102|0.006816670298576355|-0.1525420844554901|0.08309841156005859|XArbitraryZVertical|0.08917568289824253|0.06887206507202534|0.08965177786662533|0.9895792729378169|0.1203192174434662|-0.1888418197631836|-0.9746086597442627|0|0|0|-1|-1|3
2021-04-08 19:40:14.536 +0100|18118.357592375|0.2451019287109375|-0.3249053955078125|-0.7729949951171875|18118.352602375|0.1832530500445482|0.1207332868173353|0.1758287369136056|-0.9395014643669128|-0.147138312458992|0.7816233038902283|0.1792985200881958|-0.2369858473539352|0.1253790259361267|XArbitraryZVertical|0.08177481470057217|0.06786392142036388|0.09625379753083152|0.9896680122859598|0.1185832321643829|-0.1749241501092911|-0.9774147272109985|0|0|0|-1|-1|3
2021-04-08 19:40:14.557 +0100|18118.377553375|0.3608245849609375|-0.35638427734375|-0.689117431640625|18118.372563375|0.2043878003961773|0.1168604348666116|0.1555840429672841|-1.341534018516541|-0.0310545302927494|1.129747152328491|0.1296253800392151|-0.1539712995290756|0.266049325466156|XArbitraryZVertical|0.07123677904694152|0.06583111490197942|0.106048566975003|0.989618882306061|0.1151863113045692|-0.154957115650177|-0.9811831712722778|0|0|0|-1|-1|3
2021-04-08 19:40:14.576 +0100|18118.397514375|0.457305908203125|-0.4235687255859375|-0.61334228515625|18118.392524375|0.2361729427512061|0.1098219504597105|0.1229689906115476|-2.304659843444824|-0.2459341287612915|1.618817687034607|0.2831479907035828|-0.2484486550092697|0.3338056206703186|XArbitraryZVertical|0.05447216204535119|0.06162633140907726|0.1207612275359747|0.9892683523658006|0.1087737083435059|-0.1226593181490898|-0.9864699840545654|0|0|0|-1|-1|3
2021-04-08 19:40:14.596 +0100|18118.417474375|0.4518280029296875|-0.3715667724609375|-0.58001708984375|18118.412484375|0.2786415781758237|0.09706626500696736|0.07270835948335246|-3.127874135971069|-0.5811801552772522|2.04744029045105|0.3747621774673462|-0.362962543964386|0.3720422983169556|XArbitraryZVertical|0.02921889060051643|0.05305372937689717|0.1403615603802404|0.9882460380603648|0.09665785729885101|-0.07264431565999985|-0.9926631450653076|0|0|0|-1|-1|3
2021-04-08 19:40:14.616 +0100|18118.437435375|0.4357452392578125|-0.2079315185546875|-0.5565948486328125|18118.432445375|0.3294648835799722|0.0811194131224201|0.007136586719780126|-3.856882810592651|-0.8110284805297852|2.453843116760254|0.3653672635555267|-0.3288151323795319|0.4248478412628174|XArbitraryZVertical|-0.00313236896705896|0.04058406692477199|0.1639951970283068|0.9856211108649841|0.08102841675281525|-0.007136526051908731|-0.9966862201690674|0|0|0|-1|-1|3
2021-04-08 19:40:14.636 +0100|18118.457396375|0.4015045166015625|-0.0136871337890625|-0.457733154296875|18118.452406375|0.3882451491574563|0.0648389076239122|-0.07123585861676696|-4.501294136047363|-0.9982633590698242|2.799069881439209|0.3646767139434814|-0.2349471151828766|0.4527043104171753|XArbitraryZVertical|-0.04117200995583696|0.0249189461552922|0.1915494115500791|0.9803024511207107|0.06462915986776352|0.07117562741041183|-0.9953678250312805|0|0|0|-1|-1|3
2021-04-08 19:40:14.656 +0100|18118.477356375|0.3114013671875|0.213592529296875|-0.5399169921875|18118.472366375|0.4519306315528132|0.0496968636389914|-0.1614544239655915|-4.875604152679443|-1.23814070224762|2.977627754211426|0.3418539762496948|-0.1366896629333496|0.4990665316581726|XArbitraryZVertical|-0.08411381623975658|0.006073901174142087|0.2212960127556984|0.9715534982934315|0.04903034493327141|0.1607538908720016|-0.9857759475708008|0|0|0|-1|-1|3
2021-04-08 19:40:14.676 +0100|18118.497317375|0.16558837890625|0.4145965576171875|-0.552764892578125|18118.492327375|0.518473783615404|0.03805052795580292|-0.2596350305408052|-5.315167427062988|-1.272308707237244|3.109076499938965|0.2378308027982712|0.004473209381103516|0.41976398229599|XArbitraryZVertical|-0.1299406413840898|-0.01494469831690617|0.2517595681024467|0.9589104983189786|0.03676634281873703|0.2567278444766998|-0.9657841920852661|0|0|0|-1|-1|3
2021-04-08 19:40:14.696 +0100|18118.517278375|0.102386474609375|0.5695037841796875|-0.632904052734375|18118.512288375|0.5883366176730773|0.03456705155428252|-0.372251360065024|-6.185384273529053|-1.274352788925171|3.097170829772949|0.1064329817891121|0.09368503093719482|0.3712624311447144|XArbitraryZVertical|-0.1820016804305175|-0.03739235823145363|0.2818328396468469|0.9413010047110244|0.03219317272305489|0.3637135326862335|-0.9309543967247009|0|0|0|-1|-1|3
2021-04-08 19:40:14.716 +0100|18118.537238375|0.093963623046875|0.869964599609375|-0.5308990478515625|18118.532248375|0.6594598175913042|0.03869612533484884|-0.5013091520337304|-6.995187759399414|-1.346219539642334|2.867427825927734|0.06774317473173141|0.1551691889762878|0.2398999333381653|XArbitraryZVertical|-0.2407008480479116|-0.06256397410007053|0.3090702490167445|0.9179458525130032|0.03392625972628593|0.4805740118026733|-0.8762977123260498|0|0|0|-1|-1|3
2021-04-08 19:40:14.736 +0100|18118.557199375|0.1063995361328125|1.208358764648438|-0.5782318115234375|18118.552209375|0.7311015072256429|0.04743837119007398|-0.6418651204056989|-7.212479591369629|-1.64111590385437|2.557700395584106|0.0566522441804409|0.3472028374671936|0.2636879682540894|XArbitraryZVertical|-0.3025710214920699|-0.09171181428757511|0.332129557264736|0.8886673874683473|0.03798296302556992|0.598690390586853|-0.8000794649124146|0|0|0|-1|-1|3
2021-04-08 19:40:14.756 +0100|18118.577160375|0.0308685302734375|1.274887084960938|-0.541961669921875|18118.572170375|0.8057526487731244|0.06058282115895509|-0.7813280265264977|-6.987634181976318|-1.919627547264099|2.317790985107422|0.05724900960922241|0.5578018426895142|0.1318798065185547|XArbitraryZVertical|-0.3611333665294535|-0.1234684865027421|0.3517501265361855|0.854757350754351|0.04298622161149979|0.7042229175567627|-0.7086764574050903|0|0|0|-1|-1|3
2021-04-08 19:40:14.776 +0100|18118.597120375|-0.049652099609375|1.152252197265625|-0.497039794921875|18118.592130375|0.8857377556685977|0.08400642454962781|-0.9152762434341885|-6.74204158782959|-1.743718028068542|2.029820442199707|-0.05145257711410522|0.4497472047805786|0.09430050849914551|XArbitraryZVertical|-0.4149960033189564|-0.1551362358550524|0.3673345390523376|0.8177876491223334|0.05114773660898209|0.792730987071991|-0.6074221134185791|0|0|0|-1|-1|3
2021-04-08 19:40:14.796 +0100|18118.617081375|-0.069580078125|1.089462280273438|-0.4207611083984375|18118.612091375|0.9745689397289746|0.1252770208975655|-1.042981735738615|-6.544760227203369|-1.485272169113159|1.551230192184448|-0.1226071789860725|0.268582820892334|-0.003137558698654175|XArbitraryZVertical|-0.4647405011227|-0.1848418420202977|0.3776390524160819|0.779255098757577|0.06293042749166489|0.8639097809791565|-0.4996995329856873|0|0|0|-1|-1|3
2021-04-08 19:40:14.816 +0100|18118.637042375|-0.084503173828125|1.2042236328125|-0.3581390380859375|18118.632052375|1.0789786619303|0.1896886840291599|-1.1682952933709|-6.590740203857422|-1.446014046669006|1.217635035514832|-0.1506878137588501|0.1983398199081421|0.003836333751678467|XArbitraryZVertical|-0.5116162305771488|-0.2142463621225644|0.3817824451739331|0.7393170122643218|0.07386022806167603|0.9200841784477234|-0.3846946656703949|0|0|0|-1|-1|3
2021-04-08 19:40:14.836 +0100|18118.657002375|-0.14404296875|1.274627685546875|-0.3101806640625|18118.652012375|1.24048970075742|0.3133672994750927|-1.288543225794273|-6.319457530975342|-1.342837810516357|1.077685356140137|-0.1816214621067047|0.2747231721878052|-0.07903620600700378|XArbitraryZVertical|-0.5552723601357186|-0.2432985724245915|0.3827608775814543|0.6971173496626591|0.08585775643587112|0.9604303240776062|-0.2649568319320679|0|0|0|-1|-1|3
2021-04-08 19:40:14.856 +0100|18118.676963375|-0.1234588623046875|1.3934326171875|-0.1151123046875|18118.671973375|1.515800802851183|0.5570830485055251|-1.383777254657101|-5.042611598968506|-1.128205418586731|0.8318581581115723|-0.2606421411037445|0.3244137167930603|-0.09405672550201416|XArbitraryZVertical|-0.5910426434687659|-0.2678789279295848|0.3815212477815533|0.6582941594322266|0.098304383456707|0.9825628399848938|-0.1578189432621002|0|0|0|-1|-1|3
2021-04-08 19:40:14.876 +0100|18118.696924375|-0.0517578125|1.381439208984375|-0.1033172607421875|18118.691934375|1.969731121865222|0.9836388262736058|-1.436805927916338|-3.68256688117981|-0.9974279403686523|0.6626244187355042|-0.2246349453926086|0.4000614881515503|-0.06087768077850342|XArbitraryZVertical|-0.6170411550503599|-0.2868026747829585|0.3810591065979314|0.6259381244934199|0.1112168431282043|0.9910367131233215|-0.07400887459516525|0|0|0|-1|-1|3
2021-04-08 19:40:14.896 +0100|18118.716884375|-0.05523681640625|1.321502685546875|-0.05670166015625|18118.711894375|2.409573121213694|1.400378970465235|-1.446041605067599|-2.05804705619812|-1.115464448928833|0.5711693167686462|-0.1555581986904144|0.3822072744369507|-0.08091616630554199|XArbitraryZVertical|-0.6322334682254466|-0.2995485505928412|0.3828303606793463|0.6033179959601281|0.1226302683353424|0.9922282099723816|-0.0211030151695013|0|0|0|-1|-1|3
2021-04-08 19:40:14.916 +0100|18118.736845375|-0.1458282470703125|1.30126953125|-0.2015228271484375|18118.731855375|2.590790864896594|1.559879668242804|-1.434004520199047|-0.1891864687204361|-0.8594121336936951|0.7389634251594543|-0.2061818689107895|0.314349353313446|-0.1062830686569214|XArbitraryZVertical|-0.6371534758626106|-0.3054359684356111|0.3900444814440837|0.5904318045061546|0.1363581717014313|0.9906585812568665|-0.001488634734414518|0|0|0|-1|-1|3
2021-04-08 19:40:14.936 +0100|18118.756806375|-0.0277252197265625|1.17138671875|-0.187957763671875|18118.751816375|2.520753479338221|1.479047247750139|-1.421196299274272|1.081894397735596|-0.3064818978309631|0.5741358995437622|-0.2897273898124695|0.2940061092376709|-0.1956635713577271|XArbitraryZVertical|-0.6336112238549924|-0.3028351361685583|0.3989385822457178|0.5896403836435701|0.14841628074646|0.9888307452201843|-0.0136553943157196|0|0|0|-1|-1|3
2021-04-08 19:40:14.956 +0100|18118.776767375|0.0362548828125|1.232879638671875|-0.1730804443359375|18118.771776375|2.357788838818634|1.311866602202701|-1.405898634867353|1.790424585342407|-0.2963366806507111|0.4154075980186462|-0.1519200205802917|0.1762388944625854|-0.1245790123939514|XArbitraryZVertical|-0.6257144055549967|-0.2957468557415225|0.408179616581065|0.595319103688564|0.1586802303791046|0.9864351749420166|-0.04203056171536446|0|0|0|-1|-1|3
2021-04-08 19:40:14.976 +0100|18118.796727375|-0.00970458984375|1.446044921875|-0.142242431640625|18118.791737375|2.104467356219992|1.057299778408342|-1.381744513746252|3.330256700515747|-0.1573231518268585|0.1735226362943649|-0.1301216185092926|0.3292796611785889|-0.109542191028595|XArbitraryZVertical|-0.6103171277722256|-0.2852286913339738|0.4187031395966999|0.6089707598202454|0.1636915355920792|0.9821828603744507|-0.0923151969909668|0|0|0|-1|-1|3
2021-04-08 19:40:15.016 +0100|18118.816688375|-0.0465240478515625|1.283859252929688|-0.0862884521484375|18118.811698375|1.815304979302328|0.7729051399709792|-1.328956957721996|4.487589359283447|0.002875258680433035|0.1866431385278702|-0.1981139034032822|0.4264703392982483|0.07467640936374664|XArbitraryZVertical|-0.585440769627747|-0.26746182422106|0.431563196726549|0.6320415213226438|0.167215421795845|0.9708991050720215|-0.1714465618133545|0|0|0|-1|-1|3
2021-04-08 19:40:15.017 +0100|18118.836648375|0.0912933349609375|1.2742919921875|-0.385162353515625|18118.831658375|1.619314954835789|0.585064124173145|-1.254740254564434|4.638976097106934|-0.0342240147292614|0.2949328422546387|-0.1984300762414932|0.3459945321083069|0.1154480874538422|XArbitraryZVertical|-0.5567313695183542|-0.2459437247420916|0.444508171344608|0.6572475610207674|0.1716514527797699|0.9504686594009399|-0.2591237425804138|0|0|0|-1|-1|3
2021-04-08 19:40:15.036 +0100|18118.856609375|0.1324462890625|1.043350219726562|-0.72711181640625|18118.851619375|1.502917020535855|0.4708720092402047|-1.172701348941451|4.572302341461182|-0.4628485441207886|0.3144097924232483|-0.05231770873069763|0.2939432263374329|-0.1319409608840942|XArbitraryZVertical|-0.5258091875434593|-0.2253600927890157|0.4586694214028308|0.6799706271895007|0.1758687049150467|0.9218011498451233|-0.345475047826767|0|0|0|-1|-1|3
2021-04-08 19:40:15.056 +0100|18118.876570375|-0.0477447509765625|0.9023590087890625|-0.5196075439453125|18118.871580375|1.42693072701188|0.3921139822390022|-1.093726543438166|4.092016220092773|-0.4028785526752472|0.06869803369045258|-0.09345504641532898|0.1526565551757812|-0.2624384760856628|XArbitraryZVertical|-0.4945440958099399|-0.2079953881038459|0.4717096317357657|0.6997529400720295|0.1754716634750366|0.8883442282676697|-0.4243281185626984|0|0|0|-1|-1|3
2021-04-08 19:40:15.076 +0100|18118.896530375|-0.0299530029296875|0.82794189453125|-0.4011077880859375|18118.891540375|1.367573422517464|0.3352646646055592|-1.011973582675191|4.549479007720947|-0.1356587558984756|0.02777652069926262|-0.2311584800481796|0.02838706970214844|-0.01126211881637573|XArbitraryZVertical|-0.4626397498424703|-0.188758654250322|0.4821424080854519|0.7196341881967828|0.1744421273469925|0.8478798866271973|-0.5006692409515381|0|0|0|-1|-1|3
2021-04-08 19:40:15.096 +0100|18118.916491375|0.0706939697265625|0.374664306640625|-0.5187225341796875|18118.911501375|1.317307213267282|0.2918413440372151|-0.9276669008009125|4.155547142028809|-0.1495567858219147|-0.06457027047872543|-0.1737185120582581|-0.06657975912094116|0.1490831971168518|XArbitraryZVertical|-0.4296272615548316|-0.1680714955777912|0.4901252252307559|0.7395606052390048|0.1725441962480545|0.8002229332923889|-0.5743447542190552|0|0|0|-1|-1|3
2021-04-08 19:40:15.116 +0100|18118.936452375|-0.003173828125|0.27825927734375|-0.585601806640625|18118.931462375|1.281300075354845|0.2600286847019302|-0.8611241281879974|2.748348712921143|-0.178134098649025|-0.3376884460449219|-0.105912372469902|-0.4644006490707397|0.06673902273178101|XArbitraryZVertical|-0.40221404339064|-0.1529167398871366|0.4951969202780882|0.7547321133298542|0.1675279587507248|0.7585754990577698|-0.6296806931495667|0|0|0|-1|-1|3
2021-04-08 19:40:15.136 +0100|18118.956413375|0.02728271484375|0.5856170654296875|-0.7404327392578125|18118.951422375|1.254541215186595|0.2370773210382305|-0.8233804579937389|1.511273741722107|-0.1695836931467056|-0.367841362953186|-0.1641782075166702|-0.3876982927322388|0.07049274444580078|XArbitraryZVertical|-0.3853203269968111|-0.1454718404972948|0.4958068962668873|0.7645534677846568|0.1596469432115555|0.7334478497505188|-0.6607323884963989|0|0|0|-1|-1|3
2021-04-08 19:40:15.155 +0100|18118.976373375|0.0057830810546875|0.6378326416015625|-0.77325439453125|18118.971383375|1.235393607316001|0.2198581778433701|-0.8020138119592419|0.9622508883476257|-0.1500658094882965|-0.4337025880813599|-0.1382476985454559|-0.06824427843093872|-0.07881397008895874|XArbitraryZVertical|-0.3747922417113513|-0.1423671462614489|0.495084222722296|0.7708140023442306|0.1516302675008774|0.718757688999176|-0.6785247325897217|0|0|0|-1|-1|3
2021-04-08 19:40:15.175 +0100|18118.996334375|-0.013763427734375|0.5945587158203125|-0.7472991943359375|18118.991344375|1.219924338109337|0.2061329892283835|-0.7924402798982331|0.2365939319133759|-0.0897083654999733|-0.4298369288444519|-0.1465427875518799|-0.09144735336303711|-0.07492977380752563|XArbitraryZVertical|-0.3690295514677635|-0.1421063115521786|0.4931061737364286|0.7748996440029171|0.1437052339315414|0.7120687365531921|-0.6872459650039673|0|0|0|-1|-1|3
2021-04-08 19:40:15.195 +0100|18119.016295375|-0.009368896484375|0.731689453125|-0.726043701171875|18119.011304375|1.206179626558164|0.1956738255859828|-0.791673716591079|0.2448474913835526|0.03317984938621521|-0.4598289132118225|-0.1540863066911697|-0.08530890941619873|-0.04376959800720215|XArbitraryZVertical|-0.3671599074174762|-0.1434234660679224|0.4898093454348608|0.7776312103781342|0.1366155743598938|0.711530327796936|-0.6892465949058533|0|0|0|-1|-1|3
2021-04-08 19:40:15.215 +0100|18119.036255375|0.0350189208984375|0.7436370849609375|-0.7917633056640625|18119.031265375|1.189599051502566|0.1845263646792147|-0.7811624512163893|0.85056072473526|-0.01388209592550993|-0.4945681691169739|-0.1400693207979202|0.07056879997253418|-0.02606463432312012|XArbitraryZVertical|-0.3617368098569965|-0.1418670420669005|0.4868853212237392|0.7822806112561025|0.1302890181541443|0.7041053175926208|-0.6980404257774353|0|0|0|-1|-1|3
2021-04-08 19:40:15.235 +0100|18119.056216375|0.0154266357421875|0.552734375|-0.73297119140625|18119.051226375|1.173426012008635|0.1721839982583497|-0.763308050224766|0.9421451091766357|-0.032309889793396|-0.4547848999500275|-0.09074714779853821|-0.013671875|-0.1118457317352295|XArbitraryZVertical|-0.3531983824251601|-0.1389840263200868|0.4852202519986821|0.7877155789861841|0.1237982511520386|0.6913154721260071|-0.7118687033653259|0|0|0|-1|-1|3
2021-04-08 19:40:15.255 +0100|18119.076177375|0.0913848876953125|0.5374603271484375|-0.8004608154296875|18119.071186375|1.159965314130555|0.1612130551162001|-0.7495459521710832|0.61949622631073|-0.1419060081243515|-0.3029132485389709|-0.06978237628936768|-0.1979530453681946|-0.04084396362304688|XArbitraryZVertical|-0.3462684526777212|-0.1372764002148885|0.483661645137109|0.7920383804165296|0.1174971833825111|0.6813064813613892|-0.7225067019462585|0|0|0|-1|-1|3
2021-04-08 19:40:15.278 +0100|18119.096137375|0.0957183837890625|0.6923065185546875|-0.8478546142578125|18119.091147375|1.149986050289238|0.1506240292730616|-0.7325060481979746|1.345865368843079|-0.2235809862613678|-0.1200290992856026|-0.02100463956594467|-0.04327648878097534|-0.09175980091094971|XArbitraryZVertical|-0.3378848613650615|-0.1352496815029917|0.4837082735829334|0.7959696683318139|0.1115661188960075|0.6687349677085876|-0.7350826859474182|0|0|0|-1|-1|3
2021-04-08 19:40:15.295 +0100|18119.116098375|0.1506805419921875|0.38275146484375|-0.74761962890625|18119.111108375|1.142351491960765|0.1410655382682753|-0.6999948196822074|1.740288853645325|-0.2440822124481201|0.01051870547235012|-0.004965737462043762|-0.02577424049377441|-0.05781453847885132|XArbitraryZVertical|-0.323538976373584|-0.1292223915613353|0.4862534078549268|0.8013625968343567|0.1075358763337135|0.6442137360572815|-0.7572482228279114|0|0|0|-1|-1|3
2021-04-08 19:40:15.315 +0100|18119.13606|0.182586669921875|0.4278717041015625|-0.78533935546875|18119.131069|1.138109483050342|0.1330717089686063|-0.6708759246657789|1.148492336273193|-0.2758267819881439|0.05430471152067184|0.05786478519439697|-0.2535684704780579|0.02114999294281006|XArbitraryZVertical|-0.3105222274051503|-0.1240954176642887|0.4892415293877417|0.8054931490407271|0.1039247214794159|0.6216723322868347|-0.7763525247573853|0|0|0|-1|-1|3
2021-04-08 19:40:15.335 +0100|18119.15602|0.20538330078125|0.4565277099609375|-0.751678466796875|18119.15103|1.13699546641679|0.1270649178288266|-0.6520114296614099|0.770022451877594|-0.2445216923952103|0.1090355962514877|0.08198142051696777|-0.1545456647872925|0.005452752113342285|XArbitraryZVertical|-0.3017238604019125|-0.1213849419509094|0.4918463551339567|0.8076606268277238|0.1007278859615326|0.6067864298820496|-0.7884567975997925|0|0|0|-1|-1|3
2021-04-08 19:40:15.355 +0100|18119.175981|0.2733306884765625|0.4678497314453125|-0.7031402587890625|18119.170991|1.138136920754362|0.1228823665034621|-0.6402243587180342|0.4141653478145599|-0.2469335645437241|0.09509697556495667|0.1213822364807129|-0.1389394998550415|0.05009615421295166|XArbitraryZVertical|-0.2959872061921445|-0.1201427589047459|0.494232346673591|0.8085121555170047|0.09829913824796677|0.5973753929138184|-0.7959145903587341|0|0|0|-1|-1|3
2021-04-08 19:40:15.375 +0100|18119.195942|0.31683349609375|0.600128173828125|-0.7208709716796875|18119.190951|1.139156377868741|0.118762938533003|-0.6342472573026949|0.2234464138746262|-0.2414944916963577|0.05129817873239517|0.1927981525659561|-0.09711766242980957|0.09574300050735474|XArbitraryZVertical|-0.2925505768586085|-0.1203835170006186|0.4958986888771686|0.8087067937346213|0.09544096142053604|0.5925713181495667|-0.799843966960907|0|0|0|-1|-1|3
2021-04-08 19:40:15.395 +0100|18119.215902|0.3640594482421875|0.703033447265625|-0.7798004150390625|18119.210912|1.139968794950393|0.1141949988104377|-0.6290711471781154|0.3136451840400696|-0.2650949358940125|0.08273990452289581|0.2365555465221405|0.03955179452896118|0.07131403684616089|XArbitraryZVertical|-0.2893245237284655|-0.1209847010575104|0.4974451946275202|0.8088278223205496|0.09213460236787796|0.5883939862251282|-0.8033080697059631|0|0|0|-1|-1|3
2021-04-08 19:40:15.415 +0100|18119.235863|0.382354736328125|0.6367340087890625|-0.796051025390625|18119.230873|1.140411078403683|0.1086399145246363|-0.6227813285199665|0.2377045601606369|-0.3385074734687805|0.04816461727023125|0.284824550151825|0.1133137345314026|0.04912471771240234|XArbitraryZVertical|-0.2854277981945295|-0.1216373854940224|0.4990842994194374|0.8091047155842005|0.08807030320167542|0.5832965970039368|-0.8074706196784973|0|0|0|-1|-1|3
2021-04-08 19:40:15.435 +0100|18119.255824|0.3624267578125|0.58697509765625|-0.7400054931640625|18119.250833|1.142059101103644|0.1032890108678837|-0.6197566821428447|0.02504716441035271|-0.272793710231781|0.09417338669300079|0.29398512840271|0.02643299102783203|0.007527530193328857|XArbitraryZVertical|-0.2827924374589343|-0.1232384412459983|0.5008245106880194|0.8087123054236141|0.0839298814535141|0.5808371305465698|-0.8096814751625061|0|0|0|-1|-1|3
2021-04-08 19:40:15.455 +0100|18119.275784|0.4048004150390625|0.6138458251953125|-0.687957763671875|18119.270794|1.144394516544402|0.100023458264849|-0.6213829153683538|-0.2171757370233536|-0.2190625667572021|0.06855333596467972|0.2869279086589813|0.01464241743087769|0.09346526861190796|XArbitraryZVertical|-0.282472111658725|-0.1253170867307747|0.5020625411156105|0.8077365530076852|0.08119095116853714|0.5821601152420044|-0.8090102672576904|0|0|0|-1|-1|3
2021-04-08 19:40:15.475 +0100|18119.295745|0.3730926513671875|0.623748779296875|-0.660614013671875|18119.290755|1.148567362146779|0.09998311604520013|-0.627696162163746|-0.3659923076629639|-0.2041501551866531|0.05094105005264282|0.3278106153011322|0.008162915706634521|0.1250127553939819|XArbitraryZVertical|-0.284692459578995|-0.1275929234728418|0.5031002241205663|0.805953160190071|0.08078984171152115|0.5872816443443298|-0.8053404688835144|0|0|0|-1|-1|3
2021-04-08 19:40:15.495 +0100|18119.315706|0.363311767578125|0.7081451416015625|-0.595184326171875|18119.310716|1.155330426680182|0.1054964939913757|-0.6366081071958555|-0.3081501126289368|-0.08822407573461533|0.08818385004997253|0.2790806293487549|0.0464596152305603|0.1537270545959473|XArbitraryZVertical|-0.2891559015415032|-0.1287080474992584|0.5040948000518504|0.8035618000347746|0.08467423170804977|0.5944713950157166|-0.7996461987495422|0|0|0|-1|-1|3
2021-04-08 19:40:15.515 +0100|18119.335666|0.371978759765625|0.7085723876953125|-0.72698974609375|18119.330676|1.163784467757334|0.1121143813816928|-0.6369546278135997|0.3717382252216339|-0.2114455997943878|0.2669186890125275|0.3061164617538452|0.1381304264068604|0.1894739866256714|XArbitraryZVertical|-0.2904224961869838|-0.1273693796785734|0.5064917066057019|0.8018093172793994|0.08994126319885254|0.5947499871253967|-0.7988636493682861|0|0|0|-1|-1|3
2021-04-08 19:40:15.535 +0100|18119.355627|0.2711944580078125|0.62518310546875|-0.735931396484375|18119.350637|1.17410910722599|0.1199385623816386|-0.6269481929054402|0.5198718905448914|-0.04282005503773689|0.4169824421405792|0.2410561293363571|0.1069587469100952|0.1012762784957886|XArbitraryZVertical|-0.2878559149232638|-0.1230325458201802|0.5105836048477953|0.8008160485220494|0.09689614921808243|0.5866760611534119|-0.8040039539337158|0|0|0|-1|-1|3
2021-04-08 19:40:15.555 +0100|18119.375588|0.3155670166015625|0.7019805908203125|-0.79058837890625|18119.370598|1.189184615855411|0.1342353987976257|-0.6184738892325989|0.4974188804626465|0.03568710759282112|0.5682234168052673|0.164960652589798|0.05341756343841553|0.05938839912414551|XArbitraryZVertical|-0.2873209872192763|-0.1171723077846049|0.5154907533066064|0.79874070069333|0.1090420410037041|0.5797924399375916|-0.807434618473053|0|0|0|-1|-1|3
2021-04-08 19:40:15.575 +0100|18119.395548|0.265472412109375|0.5999908447265625|-0.7210693359375|18119.390558|1.205493362392612|0.1483537918103893|-0.6083293315568375|0.5720428824424744|-0.04281233623623848|0.623167097568512|0.1887350678443909|0.1460785865783691|0.04947537183761597|XArbitraryZVertical|-0.2861254658793644|-0.1110725204025457|0.5211133311142614|0.7963893699220824|0.1212936416268349|0.5714973211288452|-0.8115902543067932|0|0|0|-1|-1|3
2021-04-08 19:40:15.595 +0100|18119.415509|0.2224578857421875|0.5513153076171875|-0.663055419921875|18119.410519|1.221708814784694|0.1619075401315699|-0.6001974564466566|0.5231281518936157|-0.02737404406070709|0.5047925114631653|0.1204220801591873|0.02339112758636475|0.05637550354003906|XArbitraryZVertical|-0.2856708455280376|-0.1057185579244672|0.5265568501129113|0.7936962689835966|0.1330270320177078|0.5648054480552673|-0.8144314885139465|0|0|0|-1|-1|3
2021-04-08 19:40:15.615 +0100|18119.43547|0.13885498046875|0.488525390625|-0.735076904296875|18119.43048|1.238197839714021|0.1742326899698791|-0.5903291323557893|0.4993494749069214|0.05240276083350182|0.7765349149703979|0.06133954226970673|-0.04998087882995605|0.152668297290802|XArbitraryZVertical|-0.2843151816053537|-0.1003742561113594|0.5324881125109512|0.7909150037892058|0.1440138965845108|0.5566344857215881|-0.8181797862052917|0|0|0|-1|-1|3
2021-04-08 19:40:15.634 +0100|18119.45543|0.1635284423828125|0.536407470703125|-0.755828857421875|18119.45044|1.257277785932362|0.1890586228495478|-0.5801642383210698|0.5448724627494812|0.1065035462379456|0.8701353669166565|-0.02089099586009979|-0.06357192993164062|0.1393720507621765|XArbitraryZVertical|-0.2835028281388223|-0.09429335509677061|0.5391236497863562|0.7874520265841568|0.1571831703186035|0.5481613278388977|-0.8214698433876038|0|0|0|-1|-1|3
2021-04-08 19:40:15.654 +0100|18119.475391|0.1460418701171875|0.455902099609375|-0.770172119140625|18119.470401|1.277194673636516|0.2045156463708243|-0.5683488818249485|0.4890030920505524|0.0967637300491333|0.9141325950622559|-0.01587548851966858|0.008405625820159912|0.08082723617553711|XArbitraryZVertical|-0.2823446013341782|-0.08756828479477202|0.5461950116836596|0.783763020488829|0.1711648553609848|0.5382412075996399|-0.8252266645431519|0|0|0|-1|-1|3
2021-04-08 19:40:15.675 +0100|18119.495352|0.1353607177734375|0.5156402587890625|-0.744720458984375|18119.490362|1.298108638889261|0.2192323626387409|-0.5587133967494533|0.4001093804836273|0.1422809809446335|0.9098509550094604|-0.03665834665298462|-0.06293183565139771|0.04160153865814209|XArbitraryZVertical|-0.2819089710122411|-0.08189149510429215|0.5534832027572315|0.7794085832691461|0.184409886598587|0.5300956964492798|-0.8276422023773193|0|0|0|-1|-1|3
2021-04-08 19:40:15.694 +0100|18119.515313|0.1881866455078125|0.56829833984375|-0.82574462890625|18119.510322|1.318544830750242|0.2336862082882894|-0.5489319069777373|0.3665072917938232|0.11266028881073|0.9805141687393188|-0.04529121518135071|0.0003496408462524414|0.07037419080734253|XArbitraryZVertical|-0.2815097297681537|-0.07618882285977317|0.5606193416610009|0.7750185053923324|0.1975440979003906|0.5217763781547546|-0.8298950791358948|0|0|0|-1|-1|3
2021-04-08 19:40:15.714 +0100|18119.535273|0.19366455078125|0.495025634765625|-0.7798309326171875|18119.530283|1.339174361500568|0.2455279384802425|-0.5407505847766207|0.0214743185788393|0.09255412220954895|1.000974178314209|-0.01788139343261719|0.03746718168258667|0.004966437816619873|XArbitraryZVertical|-0.2810882564426681|-0.07200021236006908|0.5679677849175995|0.7702065413006253|0.2083880752325058|0.5147796273231506|-0.8316107392311096|0|0|0|-1|-1|3
2021-04-08 19:40:15.734 +0100|18119.555234|0.2681427001953125|0.64044189453125|-0.7943267822265625|18119.550244|1.362656856757266|0.2591845783278434|-0.5394796831909464|-0.3191823065280914|0.03124612756073475|1.015385150909424|-0.00761181116104126|0.005613446235656738|0.03825831413269043|XArbitraryZVertical|-0.2836988050828874|-0.06968095867744097|0.5752120731930737|0.7640620557083949|0.2198927998542786|0.5136896371841431|-0.8293191194534302|0|0|0|-1|-1|3
2021-04-08 19:40:15.754 +0100|18119.575195|0.2789306640625|0.5039825439453125|-0.8666229248046875|18119.570204|1.388522099442185|0.2710112749606892|-0.5419228833223656|-0.4638209640979767|-0.03984823450446129|1.113470315933228|0.04117518663406372|0.1040589213371277|0.02183008193969727|XArbitraryZVertical|-0.2870968058626812|-0.06964913741847348|0.5830336124495606|0.7568331109781211|0.2293486297130585|0.5157843232154846|-0.8254488706588745|0|0|0|-1|-1|3
2021-04-08 19:40:15.774 +0100|18119.595155|0.3168487548828125|0.5006256103515625|-0.8752593994140625|18119.590165|1.417398822345654|0.2832897217311833|-0.5469874199625541|-0.5622196197509766|-0.1386265307664871|1.205876708030701|0.05101680755615234|0.01246166229248047|-0.02293437719345093|XArbitraryZVertical|-0.291472567228492|-0.0708358471731132|0.5914324015066499|0.7484878188309401|0.238733097910881|0.5201165676116943|-0.8200520277023315|0|0|0|-1|-1|3
2021-04-08 19:40:15.794 +0100|18119.615116|0.4053802490234375|0.5692291259765625|-0.8146514892578125|18119.610126|1.449259729974272|0.2982245412068076|-0.5486483689875002|-0.3469327092170715|-0.04043072462081909|1.390172839164734|0.07188767194747925|-0.01515567302703857|-0.04847520589828491|XArbitraryZVertical|-0.2953738751251404|-0.07049879893305361|0.6008597735868555|0.7394267152657839|0.2506991624832153|0.5215344429016113|-0.8155683875083923|0|0|0|-1|-1|3
2021-04-08 19:40:15.814 +0100|18119.635077|0.496978759765625|0.4840240478515625|-0.770172119140625|18119.630086|1.483305544763753|0.313935551880597|-0.5413364643953902|0.1191519275307655|-0.1818850487470627|1.623328566551208|0.1785406768321991|0.05393266677856445|0.02295982837677002|XArbitraryZVertical|-0.2964797204508775|-0.06732412707790397|0.6120922053693001|0.7300072358640229|0.2646516561508179|0.5152818560600281|-0.8151344656944275|0|0|0|-1|-1|3
2021-04-08 19:40:15.834 +0100|18119.655037|0.499847412109375|0.308837890625|-0.82244873046875|18119.650047|1.519253109160201|0.3278511484086655|-0.5271209525896986|0.1142403185367584|-0.1981829106807709|1.704596638679504|0.206549346446991|-0.07482391595840454|0.02576088905334473|XArbitraryZVertical|-0.2948705414427497|-0.06275837085701781|0.625130288141361|0.7199479270176885|0.278299480676651|0.5030471682548523|-0.8182255029678345|0|0|0|-1|-1|3
2021-04-08 19:40:15.854 +0100|18119.674998|0.619140625|0.2783966064453125|-0.937744140625|18119.670008|1.559518858262666|0.3427736716683668|-0.5174864807905192|-0.2952904999256134|-0.3363761305809021|1.890739798545837|0.2536227107048035|-0.2186194658279419|-0.04893785715103149|XArbitraryZVertical|-0.2951989244145101|-0.06002815031809606|0.6387153271327467|0.7080233978958053|0.2920934855937958|0.4946973025798798|-0.8185084462165833|0|0|0|-1|-1|3
2021-04-08 19:40:15.874 +0100|18119.694959|0.5992889404296875|0.3356475830078125|-1.019989013671875|18119.689969|1.60426264628393|0.355848080551157|-0.51062606204168|-0.3059625923633575|-0.5501939058303833|2.012577295303345|0.3186297416687012|-0.1946861743927002|-0.1400271654129028|XArbitraryZVertical|-0.2958949033323247|-0.05962700977070037|0.653484614378171|0.6941533493560668|0.3039449453353882|0.4887235462665558|-0.8177816271781921|0|0|0|-1|-1|3
2021-04-08 19:40:15.894 +0100|18119.714919|0.5312652587890625|0.30712890625|-1.020843505859375|18119.709929|1.64917016432168|0.3651295422881223|-0.5009343738792466|-0.1716366410255432|-0.6870585083961487|1.998992323875427|0.2706340849399567|-0.1347706019878387|-0.2198725342750549|XArbitraryZVertical|-0.2946121503393264|-0.05956506669903618|0.668984824644714|0.679790476330897|0.31319859623909|0.4802453219890594|-0.8193113803863525|0|0|0|-1|-1|3
2021-04-08 19:40:15.914 +0100|18119.73488|0.39593505859375|0.2805633544921875|-1.0179443359375|18119.72989|1.691598703561368|0.370242986819009|-0.4882611913914249|0.01798450946807861|-0.8069957494735718|1.947730779647827|0.191212922334671|-0.1692247986793518|-0.1905930042266846|XArbitraryZVertical|-0.2912373956951021|-0.05939018103221684|0.6843934894472152|0.6657772469765171|0.319560706615448|0.4690909683704376|-0.8233071565628052|0|0|0|-1|-1|3
2021-04-08 19:40:15.934 +0100|18119.754841|0.281005859375|0.2427978515625|-1.044906616210938|18119.749851|1.731133755011507|0.3722243703502899|-0.4721541530006595|0.2053989917039871|-0.7989338040351868|1.896744966506958|0.02948173880577087|-0.1963978111743927|-0.1833657622337341|XArbitraryZVertical|-0.2859841865232908|-0.05840580966228658|0.6995034262507125|0.6523012412129807|0.3238974809646606|0.4548058211803436|-0.8296036124229431|0|0|0|-1|-1|3
2021-04-08 19:40:15.954 +0100|18119.774801|0.2799224853515625|0.26934814453125|-1.053848266601562|18119.769811|1.767331405192426|0.3725972935885957|-0.4549563076270041|0.1951555460691452|-0.8166705369949341|1.771690726280212|-0.04529738426208496|-0.1807861924171448|-0.2138307690620422|XArbitraryZVertical|-0.2800790027595614|-0.05686276320075741|0.7136248344197119|0.6395797306349428|0.3270061314105988|0.4394230544567108|-0.8366447687149048|0|0|0|-1|-1|3
2021-04-08 19:40:15.974 +0100|18119.794762|0.145111083984375|0.3585662841796875|-1.09747314453125|18119.789772|1.801329594571544|0.369733997931166|-0.4384086691299457|0.2499560564756393|-0.9243633151054382|1.698117136955261|-0.06647965312004089|-0.1384575366973877|-0.2180126309394836|XArbitraryZVertical|-0.2733728666939517|-0.05608858675988336|0.7271251698042411|0.6272245027742225|0.3271923065185547|0.4244991540908813|-0.8442426919937134|0|0|0|-1|-1|3
2021-04-08 19:40:15.994 +0100|18119.814723|-0.06195068359375|0.3044281005859375|-1.077667236328125|18119.809733|1.833358120600287|0.3631367225613897|-0.4195173546589241|0.4534701704978943|-1.057552576065063|1.698903918266296|-0.2248113751411438|-0.05667239427566528|-0.2588052749633789|XArbitraryZVertical|-0.264771635564796|-0.05506442551196174|0.740553926371423|0.6151779697493291|0.3244065046310425|0.4073196947574615|-0.8537277579307556|0|0|0|-1|-1|3
2021-04-08 19:40:16.014 +0100|18119.834684|-0.162322998046875|0.24713134765625|-1.04833984375|18119.829693|1.864508109214275|0.3540159031112214|-0.4002047232940073|0.2854786813259125|-1.079110980033875|1.665099263191223|-0.4229872226715088|-0.1032296419143677|-0.2018038630485535|XArbitraryZVertical|-0.2551896057422668|-0.05425425964959738|0.7537861663695954|0.6031097448328882|0.3192742466926575|0.3896068930625916|-0.8638694882392883|0|0|0|-1|-1|3
2021-04-08 19:40:16.034 +0100|18119.854644|-0.1060791015625|0.374542236328125|-1.0281982421875|18119.849654|1.896686464735857|0.3453113271858304|-0.3878682695378675|-0.113254189491272|-1.023196339607239|1.549846649169922|-0.4769495129585266|-0.1214407682418823|-0.1668604016304016|XArbitraryZVertical|-0.2476530838715777|-0.05596177432064874|0.7660634703576777|0.5904940679511913|0.3133457601070404|0.3782159090042114|-0.8710724711418152|0|0|0|-1|-1|3
2021-04-08 19:40:16.054 +0100|18119.874605|0.04388427734375|0.6484222412109375|-1.028579711914062|18119.869615|1.927596242918175|0.3373028295134805|-0.381092694160605|-0.1415401995182037|-0.9491613507270813|1.382178425788879|-0.3822578191757202|0.07609376311302185|-0.1473628878593445|XArbitraryZVertical|-0.2418723632213343|-0.05934416585361244|0.776921952680604|0.5782459393950425|0.3072008490562439|0.3719349801540375|-0.8759520649909973|0|0|0|-1|-1|3
2021-04-08 19:40:16.074 +0100|18119.894566|0.158294677734375|0.8271331787109375|-0.9556121826171875|18119.889575|1.953336100611496|0.3276851416432213|-0.3715444960431878|0.3202140629291534|-0.9874960780143738|1.161754727363586|-0.2109774947166443|0.3289923667907715|-0.1326122879981995|XArbitraryZVertical|-0.2348447866646179|-0.06126800862525079|0.7866079854412698|0.5677519396783069|0.2998915016651154|0.3630549907684326|-0.8821883201599121|0|0|0|-1|-1|3
2021-04-08 19:40:16.094 +0100|18119.914526|0.0092926025390625|0.9540557861328125|-0.85589599609375|18119.909536|1.969654335544545|0.3127422143929615|-0.3530174689108432|0.961603581905365|-1.014567494392395|0.8252703547477722|-0.1397998929023743|0.5378600358963013|-0.0273624062538147|XArbitraryZVertical|-0.2236581402076735|-0.05973119751950293|0.7951010346877783|0.5605566064232467|0.2886961996555328|0.3457307815551758|-0.8928184509277344|0|0|0|-1|-1|3
2021-04-08 19:40:16.114 +0100|18119.934487|-0.1407318115234375|0.6544036865234375|-0.775787353515625|18119.929497|1.974398988318839|0.2972379918621042|-0.3288639505208586|1.000701308250427|-0.6677442193031311|0.3260897099971771|-0.3212664723396301|0.5756374597549438|0.07626551389694214|XArbitraryZVertical|-0.2111024456347898|-0.05460118573495942|0.800799306823003|0.5578307833511358|0.277184933423996|0.322968065738678|-0.9049089550971985|0|0|0|-1|-1|3
2021-04-08 19:40:16.133 +0100|18119.954448|-0.1517486572265625|0.5485382080078125|-0.757781982421875|18119.949458|1.971925487678542|0.2874432649601095|-0.3166704657613366|0.1779905706644058|-0.2548844814300537|-0.1910159140825272|-0.4221596419811249|0.2737399041652679|0.1364332437515259|XArbitraryZVertical|-0.2040780879970102|-0.05203299820341232|0.8024175840783487|0.5583645158496617|0.2694049477577209|0.3114043176174164|-0.911289393901825|0|0|0|-1|-1|3
2021-04-08 19:40:16.153 +0100|18119.974408|-0.111328125|0.714202880859375|-0.7502593994140625|18119.969418|1.964398439817876|0.2836326398937847|-0.3217424213010737|-0.327122300863266|0.09342753142118454|-0.6139513850212097|-0.4132500290870667|0.2687715888023376|0.1595152020454407|XArbitraryZVertical|-0.2040760011537668|-0.05442724432328274|0.8001698919844799|0.5613545065484414|0.2654849886894226|0.3162200450897217|-0.9107813239097595|0|0|0|-1|-1|3
2021-04-08 19:40:16.173 +0100|18119.994369|-0.053955078125|0.8118438720703125|-0.7888946533203125|18119.989379|1.951037631942044|0.2833056639916273|-0.3319438668623169|-0.2057798951864243|0.292506068944931|-0.8627954125404358|-0.3596990406513214|0.4282691776752472|0.1531767249107361|XArbitraryZVertical|-0.207001625400412|-0.05734642365284733|0.7953567435082278|0.5668063364013048|0.2642716467380524|0.3258813917636871|-0.9077234268188477|0|0|0|-1|-1|3
2021-04-08 19:40:16.193 +0100|18120.01433|0.0592498779296875|0.7801513671875|-0.809600830078125|18120.00934|1.931877570727107|0.2851543931084866|-0.3396510455015787|-0.09567765146493912|0.5211866497993469|-1.087554574012756|-0.303853839635849|0.489229828119278|0.1142539978027344|XArbitraryZVertical|-0.2103348710356612|-0.05797540422968676|0.7888667800987974|0.5745322952218339|0.2652348875999451|0.3331581056118011|-0.9047961831092834|0|0|0|-1|-1|3
2021-04-08 19:40:16.213 +0100|18120.03429|0.208343505859375|0.757720947265625|-0.83001708984375|18120.0293|1.909087250307039|0.2888155113227365|-0.3491742155305942|-0.2352262884378433|0.5917829275131226|-1.234423995018005|-0.165135532617569|0.4109758138656616|0.0848650336265564|XArbitraryZVertical|-0.215000836820321|-0.0583629383160826|0.7808321889347842|0.5836690061017166|0.267629861831665|0.342121958732605|-0.9007368087768555|0|0|0|-1|-1|3
2021-04-08 19:40:16.233 +0100|18120.054251|0.2539825439453125|0.676513671875|-0.8817138671875|18120.049261|1.884661658817325|0.2918223479284397|-0.362274078316561|-0.3778157532215118|0.5796045064926147|-1.350319027900696|-0.03799012303352356|0.4130851924419403|0.03769475221633911|XArbitraryZVertical|-0.2204738235118685|-0.06009952059601011|0.7718422649659581|0.5933287654412357|0.2690244913101196|0.3544016182422638|-0.8955586552619934|0|0|0|-1|-1|3
2021-04-08 19:40:16.253 +0100|18120.074212|0.258148193359375|0.4832000732421875|-0.888275146484375|18120.069222|1.859215716625839|0.2943456045050857|-0.3813590196086253|-0.8536094427108765|0.6239475011825562|-1.473859071731567|-0.01524245738983154|0.2372236251831055|0.004193544387817383|XArbitraryZVertical|-0.2275261252807747|-0.06411758384504974|0.7617305868268829|0.6032308379226586|0.2692718207836151|0.3721821904182434|-0.8882415890693665|0|0|0|-1|-1|3
2021-04-08 19:40:16.273 +0100|18120.094173|0.268280029296875|0.462493896484375|-0.8143463134765625|18120.089182|1.835057531660664|0.2978874703559932|-0.412425578787653|-1.365306735038757|0.664125919342041|-1.569398403167725|-0.007599115371704102|0.06280592083930969|-0.004400014877319336|XArbitraryZVertical|-0.2384117701419035|-0.07251516566409659|0.7502049550391446|0.6124492692925382|0.2688916623592377|0.4008327126502991|-0.875802755355835|0|0|0|-1|-1|3
2021-04-08 19:40:16.293 +0100|18120.114133|0.3097991943359375|0.65753173828125|-0.8863067626953125|18120.109143|1.811068334303582|0.3008721701838086|-0.4479927453903291|-1.215492844581604|0.5847581624984741|-1.483045935630798|0.004742920398712158|0.06989488005638123|0.08890330791473389|XArbitraryZVertical|-0.2505280394393351|-0.08258842952931304|0.7378872888533371|0.6212385018045877|0.267108678817749|0.4331572353839874|-0.8608297109603882|0|0|0|-1|-1|3
2021-04-08 19:40:16.313 +0100|18120.13409425|0.2916717529296875|0.586029052734375|-0.9329833984375|18120.12910425|1.787260603445537|0.3012298441134845|-0.4715500605227446|-0.3261391520500183|0.5206089019775391|-1.242654800415039|0.03416299819946289|0.2440510988235474|-0.06071639060974121|XArbitraryZVertical|-0.2584149611448502|-0.08857706076786823|0.7272487375750817|0.6296706136433554|0.2643151581287384|0.4542677402496338|-0.8507516384124756|0|0|0|-1|-1|3
2021-04-08 19:40:16.333 +0100|18120.15405525|0.327972412109375|0.30169677734375|-0.901123046875|18120.14906425|1.764005265874301|0.2991780226403953|-0.4766766658941792|0.3653611242771149|0.3470155298709869|-0.8886198401451111|0.04081037640571594|0.06955289840698242|-0.07959377765655518|XArbitraryZVertical|-0.2601854670570875|-0.08818000734240304|0.7194483756999567|0.6379044303878808|0.261879175901413|0.4588288366794586|-0.8490556478500366|0|0|0|-1|-1|3
2021-04-08 19:40:16.353 +0100|18120.17401525|0.429931640625|0.0970916748046875|-0.8405303955078125|18120.16902525|1.744500309359715|0.2961188568995706|-0.4738519776748598|0.1756772249937057|0.2562909424304962|-0.8322926759719849|0.08117881417274475|-0.2330501973628998|-0.027740478515625|XArbitraryZVertical|-0.25910631772374|-0.08555352712496374|0.7139735826214566|0.6448150406565529|0.2596577405929565|0.4563172161579132|-0.8510890007019043|0|0|0|-1|-1|3
2021-04-08 19:40:16.373 +0100|18120.19397625|0.4094696044921875|0.4030303955078125|-0.8680267333984375|18120.18898625|1.730599241902524|0.2928892284853624|-0.4808593830015199|-0.3042574226856232|0.1434094160795212|-0.6401229500770569|0.2063793838024139|-0.3923046290874481|-0.01302081346511841|XArbitraryZVertical|-0.260640475979845|-0.08744202197805492|0.7089470340779863|0.6494727032375248|0.2559781670570374|0.4625412821769714|-0.8488408923149109|0|0|0|-1|-1|3
2021-04-08 19:40:16.393 +0100|18120.21393725|0.4673309326171875|0.359405517578125|-0.877197265625|18120.20894725|1.720010294980157|0.2905266655132854|-0.4850346839501897|0.136199563741684|0.1187187656760216|-0.3597208857536316|0.1701378524303436|-0.002401947975158691|-0.05269777774810791|XArbitraryZVertical|-0.2615200439715988|-0.08839959785037742|0.7052406471290057|0.6530150783381663|0.2534165978431702|0.4662390351295471|-0.8475855588912964|0|0|0|-1|-1|3
2021-04-08 19:40:16.413 +0100|18120.23389725|0.5408935546875|0.1832427978515625|-0.867156982421875|18120.22890725|1.713302977570877|0.2894497682263249|-0.4845437989574993|-0.006200769916176796|0.04244748875498772|-0.1719537228345871|0.2329361438751221|-0.1686698794364929|-0.007955610752105713|XArbitraryZVertical|-0.2612884345286043|-0.08769119373203514|0.7032541283857933|0.6553415460249919|0.2525689899921417|0.4658047258853912|-0.8480772376060486|0|0|0|-1|-1|3
2021-04-08 19:40:16.433 +0100|18120.25385825|0.50347900390625|0.146881103515625|-0.850677490234375|18120.24886825|1.711579390978978|0.289106212623553|-0.4882508993264735|-0.3027922511100769|0.02221332490444183|-0.07489801198244095|0.2799556851387024|-0.3033404648303986|-0.009194135665893555|XArbitraryZVertical|-0.2623618300301143|-0.08896508562696656|0.7022305476401659|0.6558383100444226|0.251783549785614|0.4690818786621094|-0.846502959728241|0|0|0|-1|-1|3
2021-04-08 19:40:16.453 +0100|18120.27381925|0.5032806396484375|0.182220458984375|-0.8492431640625|18120.26882925|1.714177860611232|0.2905435880330617|-0.4945891863995423|-0.3249024450778961|-0.002873227931559086|0.0855809673666954|0.2539612650871277|-0.3249504268169403|-0.01944148540496826|XArbitraryZVertical|-0.2646580255332072|-0.09120745663314353|0.7020254885601975|0.6548265233547468|0.2521432340145111|0.4746701121330261|-0.8432746529579163|0|0|0|-1|-1|3
2021-04-08 19:40:16.473 +0100|18120.29378025|0.501800537109375|0.2997283935546875|-0.83673095703125|18120.28878925|1.718676569806094|0.2921768788643815|-0.4982872486258331|-0.1204479038715363|-0.06889208406209946|0.1881320178508759|0.2529848217964172|-0.2834175229072571|0.002766072750091553|XArbitraryZVertical|-0.2661343743986973|-0.09265531848535734|0.702769681586497|0.6532246329433402|0.2530128657817841|0.4779217541217804|-0.8411749601364136|0|0|0|-1|-1|3
2021-04-08 19:40:16.493 +0100|18120.31374025|0.4508056640625|0.3744659423828125|-0.828094482421875|18120.30875025|1.723097643037728|0.2923831015859621|-0.4960041163655993|0.1889561414718628|-0.110884428024292|0.2376502156257629|0.2376049160957336|-0.134560227394104|9.441375732421875e-05|XArbitraryZVertical|-0.2653196447142459|-0.09231886308182824|0.7045003335604205|0.6517377620724967|0.2535001635551453|0.4759150147438049|-0.8421654105186462|0|0|0|-1|-1|3
2021-04-08 19:40:16.513 +0100|18120.33370125|0.4110565185546875|0.332305908203125|-0.8242340087890625|18120.32871125|1.727417766555437|0.2922168415469216|-0.4902285619090087|0.1968134492635727|-0.1072677075862885|0.2790660262107849|0.186237096786499|-0.1091633141040802|0.01903575658798218|XArbitraryZVertical|-0.2633391014165163|-0.09077279058520044|0.7067235004028203|0.650349707106158|0.2541477382183075|0.4708275496959686|-0.8448256254196167|0|0|0|-1|-1|3
2021-04-08 19:40:16.533 +0100|18120.35366225|0.3891754150390625|0.3801422119140625|-0.86041259765625|18120.34867125|1.734330561290061|0.295712303341343|-0.4831336789519828|-0.002139831893146038|-0.05346811935305595|0.3124610781669617|0.1462315917015076|-0.1376212239265442|0.009368777275085449|XArbitraryZVertical|-0.2621552299862076|-0.08787188206928094|0.709479160052083|0.6482226634270841|0.2580662667751312|0.4645564556121826|-0.8471063375473022|0|0|0|-1|-1|3
2021-04-08 19:40:16.553 +0100|18120.37362225|0.4029998779296875|0.3673248291015625|-0.8673248291015625|18120.36863225|1.743333919839109|0.3008525597445378|-0.4793382828309135|-0.08899421989917755|-0.07197671383619308|0.3778420388698578|0.130694180727005|-0.07230621576309204|-0.01436936855316162|XArbitraryZVertical|-0.2624662536104272|-0.08595470240129051|0.7122349241039908|0.6453253478749394|0.2629377543926239|0.4611921310424805|-0.8474465012550354|0|0|0|-1|-1|3
2021-04-08 19:40:16.573 +0100|18120.39358325|0.339080810546875|0.428985595703125|-0.8685760498046875|18120.38859325|1.7547369913848|0.3082826127592947|-0.4754946963103748|-0.1126948371529579|-0.09672648459672928|0.4091821908950806|0.1253796815872192|-0.08500570058822632|-0.02546679973602295|XArbitraryZVertical|-0.2635039554437984|-0.08360322703418493|0.7154530854315778|0.6416411226000163|0.2697629034519196|0.4577783346176147|-0.8471523523330688|0|0|0|-1|-1|3
2021-04-08 19:40:16.593 +0100|18120.41354425|0.303436279296875|0.4192657470703125|-0.83453369140625|18120.40855425|1.766663821022508|0.3152257813517895|-0.4718864573758212|0.02183294482529163|-0.05934156477451324|0.4904524683952332|0.04648423194885254|-0.01992037892341614|-0.0171893835067749|XArbitraryZVertical|-0.2644483696148808|-0.08157918785287291|0.7188471354517212|0.6377075676381377|0.2761485874652863|0.4545673727989197|-0.8468238115310669|0|0|0|-1|-1|3
2021-04-08 19:40:16.613 +0100|18120.43350425|0.2659912109375|0.439788818359375|-0.82684326171875|18120.42851425|1.778623334002583|0.3215882906414773|-0.4649444807697878|0.08133955299854279|-0.07695379853248596|0.5452341437339783|0.02370816469192505|-0.03278443217277527|0.01161307096481323|XArbitraryZVertical|-0.2642541771581894|-0.07847415143443283|0.7227622484582784|0.6337399692182926|0.2825214862823486|0.4483731687068939|-0.8480230569839478|0|0|0|-1|-1|3
2021-04-08 19:40:16.633 +0100|18120.45346525|0.242706298828125|0.3915557861328125|-0.8311614990234375|18120.44847525|1.791420173183969|0.3282483884144881|-0.4585383851390427|0.001114134676754475|0.002580766566097736|0.6141842603683472|-0.04117265343666077|-0.01121059060096741|0.02774935960769653|XArbitraryZVertical|-0.2643364564394067|-0.07559166904880994|0.7268029416975245|0.629420283519328|0.2890831828117371|0.4426379501819611|-0.8488242626190186|0|0|0|-1|-1|3
2021-04-08 19:40:16.652 +0100|18120.47342625|0.2633514404296875|0.4559478759765625|-0.87139892578125|18120.46843625|1.806114254949702|0.3367474269248501|-0.4539253449092556|-0.1230262219905853|0.03311710432171822|0.6429063677787781|-0.04192197322845459|-0.03630524873733521|-0.0137287974357605|XArbitraryZVertical|-0.2655767868739078|-0.07308567173724641|0.7309170543985375|0.6244100162802357|0.2969583570957184|0.4384967386722565|-0.848254919052124|0|0|0|-1|-1|3
2021-04-08 19:40:16.672 +0100|18120.49338725|0.2806854248046875|0.4277801513671875|-0.8601531982421875|18120.48839625|1.821461240340378|0.3445933734572952|-0.4521421928614398|-0.2124855071306229|0.01430927496403456|0.6671717166900635|-0.03873047232627869|0.01469069719314575|-0.02424609661102295|XArbitraryZVertical|-0.2673944800235125|-0.07199618257454088|0.7348887658674185|0.6190761574751249|0.3038681447505951|0.4368934631347656|-0.8466334939002991|0|0|0|-1|-1|3
2021-04-08 19:40:16.692 +0100|18120.51334725|0.2408905029296875|0.475555419921875|-0.8698272705078125|18120.50835725|1.837050734183074|0.3509751889973198|-0.4517648759326281|-0.2248187661170959|-0.05092032626271248|0.6583034992218018|-0.02858945727348328|-0.009261846542358398|-0.01513779163360596|XArbitraryZVertical|-0.2690800686339133|-0.07197243682505558|0.7388893230591521|0.6135621726288496|0.3093216419219971|0.4365540444850922|-0.8448317646980286|0|0|0|-1|-1|3
2021-04-08 19:40:16.712 +0100|18120.53330825|0.221527099609375|0.48779296875|-0.8547210693359375|18120.52831825|1.850993257650359|0.3556688445241234|-0.4502144578671193|-0.0503760538995266|-0.02640124410390854|0.6034171581268311|-0.08755049109458923|0.06188148260116577|-0.02397632598876953|XArbitraryZVertical|-0.2698923030820793|-0.07180589151097048|0.7427330109391248|0.6085638906904006|0.3135189116001129|0.4351586401462555|-0.8440040946006775|0|0|0|-1|-1|3
2021-04-08 19:40:16.733 +0100|18120.55326925|0.209320068359375|0.4377899169921875|-0.8719482421875|18120.54827825|1.862377163745061|0.3586690494219312|-0.4455775272305937|0.03767414018511772|-0.06002567335963249|0.561284601688385|-0.09444823861122131|0.03694725036621094|-0.003646492958068848|XArbitraryZVertical|-0.2693443203477|-0.07059487545274584|0.7464269285937013|0.6044145616013951|0.3167545795440674|0.4309791028499603|-0.8449400067329407|0|0|0|-1|-1|3
2021-04-08 19:40:16.752 +0100|18120.57322925|0.18780517578125|0.4099273681640625|-0.842742919921875|18120.56823925|1.872817707372086|0.3614166601157196|-0.4412225363497683|-0.002338903257623315|0.01333562284708023|0.5349525213241577|-0.1271533966064453|0.008242547512054443|-0.02591997385025024|XArbitraryZVertical|-0.2688324569944248|-0.06944083492346938|0.7498073914861204|0.6005798914680809|0.319735586643219|0.4270452260971069|-0.8458141684532166|0|0|0|-1|-1|3
2021-04-08 19:40:16.772 +0100|18120.59319025|0.240264892578125|0.4261322021484375|-0.875579833984375|18120.58820025|1.883813659419149|0.365655293384441|-0.4385555988015936|-0.1169425323605537|-0.002922016195952892|0.5250793099403381|-0.1178207695484161|-0.02103692293167114|0.001274168491363525|XArbitraryZVertical|-0.2693320785687177|-0.06858763866092286|0.75289793392993|0.596574339829969|0.3237238824367523|0.42463219165802|-0.8455119132995605|0|0|0|-1|-1|3
2021-04-08 19:40:16.792 +0100|18120.61315125|0.20001220703125|0.49664306640625|-0.877471923828125|18120.60816125|1.894888120235352|0.3687123922152947|-0.4381500446323033|-0.1062760055065155|0.02233023755252361|0.5184475183486938|-0.09754738211631775|0.01704996824264526|-0.04608297348022461|XArbitraryZVertical|-0.2699967207392092|-0.0690096796514066|0.7558340995394066|0.5924983976430185|0.3263691961765289|0.4242649972438812|-0.8446788787841797|0|0|0|-1|-1|3
2021-04-08 19:40:16.812 +0100|18120.63311125|0.2583465576171875|0.4727325439453125|-0.93267822265625|18120.62812125|1.905172046376069|0.3713752899889007|-0.4362658171225737|0.018247464671731|-0.02921178378164768|0.5395283102989197|-0.114825040102005|0.07944115996360779|-0.0387347936630249|XArbitraryZVertical|-0.2701553306893279|-0.06885485715643443|0.7587730713115165|0.5886753583317749|0.3289068639278412|0.4225580096244812|-0.8445501923561096|0|0|0|-1|-1|3
2021-04-08 19:40:16.832 +0100|18120.65307225|0.234588623046875|0.431884765625|-0.9137725830078125|18120.64808225|1.914781106869987|0.371774650251884|-0.4327065004161544|-0.02063267305493355|-0.07261209934949875|0.5140579342842102|-0.07218849658966064|0.03718328475952148|-0.09827655553817749|XArbitraryZVertical|-0.2690482678470669|-0.06859784776332448|0.7620318846207104|0.5849914903409308|0.3297884166240692|0.4193293750286102|-0.8458147048950195|0|0|0|-1|-1|3
2021-04-08 19:40:16.852 +0100|18120.67303325|0.2684173583984375|0.444061279296875|-0.8690032958984375|18120.66804325|1.924346653828467|0.3718724827113352|-0.4301438749199417|-0.07526516169309616|-0.08080419152975082|0.5042853951454163|-0.09168830513954163|0.01480713486671448|-0.05089324712753296|XArbitraryZVertical|-0.2680928598073603|-0.06881727621862642|0.7651612964260436|0.581307803454131|0.3302605152130127|0.4170015752315521|-0.8467807769775391|0|0|0|-1|-1|3
2021-04-08 19:40:16.872 +0100|18120.69299425|0.2579193115234375|0.449005126953125|-0.8435211181640625|18120.68800325|1.934093178251968|0.3720431808432679|-0.4278594343097221|-0.05748537927865982|-0.1074397414922714|0.4874512553215027|-0.05807489156723022|0.03842997550964355|-0.01805150508880615|XArbitraryZVertical|-0.2672341879772325|-0.06914521678808526|0.7682761035684469|0.5775438293100803|0.3307504951953888|0.414924144744873|-0.8476096391677856|0|0|0|-1|-1|3
2021-04-08 19:40:16.892 +0100|18120.71295425|0.26751708984375|0.4226837158203125|-0.862152099609375|18120.70796425|1.943426496986877|0.3714941696252259|-0.4265620718435199|-0.04250150173902512|-0.09585397690534592|0.4959324598312378|-0.0742078423500061|0.01994213461875916|0.00558006763458252|XArbitraryZVertical|-0.266366624514165|-0.07002026838146119|0.7712137685145329|0.5739123595689619|0.3304802179336548|0.4137433767318726|-0.8482919931411743|0|0|0|-1|-1|3
2021-04-08 19:40:16.912 +0100|18120.73291525|0.2972564697265625|0.432861328125|-0.8856201171875|18120.72792525|1.952764408466212|0.3714821919928084|-0.423857721547906|0.01926830597221851|-0.1133462637662888|0.4906180202960968|-0.05641412734985352|0.01201441884040833|-0.02831912040710449|XArbitraryZVertical|-0.2653483350811815|-0.07016084617435736|0.774255562067023|0.5702598476560189|0.3308750092983246|0.4112798571586609|-0.8493354320526123|0|0|0|-1|-1|3
2021-04-08 19:40:16.932 +0100|18120.75287625|0.2816925048828125|0.431427001953125|-0.9013824462890625|18120.74788525|1.961331702219166|0.3701083377590045|-0.4192812073172131|0.09495868533849716|-0.1708899885416031|0.4773308932781219|-0.02879419922828674|0.03248661756515503|-0.03973031044006348|XArbitraryZVertical|-0.2633610625026703|-0.06980986059822773|0.7774932204151318|0.5668086174663451|0.3303852081298828|0.4071040153503418|-0.8515350818634033|0|0|0|-1|-1|3
2021-04-08 19:40:16.952 +0100|18120.77283625|0.2436981201171875|0.442901611328125|-0.8800506591796875|18120.76784625|1.969483720089739|0.3685914393805382|-0.4150739095704164|0.06401881575584412|-0.1854159235954285|0.4552062451839447|-0.0595037043094635|0.02473637461662292|-0.04136306047439575|XArbitraryZVertical|-0.2614303524126097|-0.06958049207093936|0.7805617236299199|0.563503481473378|0.3297073543071747|0.4032575786113739|-0.853625476360321|0|0|0|-1|-1|3
2021-04-08 19:40:16.972 +0100|18120.79279725|0.2299346923828125|0.4024505615234375|-0.839508056640625|18120.78780725|1.97734497394712|0.3674297066894691|-0.4122289863943688|0.004417303018271923|-0.1265147924423218|0.4233991503715515|-0.09644389152526855|0.04877996444702148|-0.005474328994750977|XArbitraryZVertical|-0.2599921476158875|-0.06976040856259291|0.7833019271416837|0.5603355017603514|0.329126238822937|0.4006525874137878|-0.8550751209259033|0|0|0|-1|-1|3
2021-04-08 19:40:16.992 +0100|18120.81275825|0.25506591796875|0.4298095703125|-0.84637451171875|18120.80776825|1.985869089599738|0.3678572785680316|-0.4106677026703504|-0.08137179166078568|-0.07166581600904465|0.4321951866149902|-0.09450104832649231|-0.003759384155273438|0.02102953195571899|XArbitraryZVertical|-0.259474473720138|-0.07010355528738162|0.7858351198264567|0.5569756581888166|0.3297163546085358|0.3992215991020203|-0.8555169701576233|0|0|0|-1|-1|3
2021-04-08 19:40:17.012 +0100|18120.83271825|0.2609710693359375|0.4320831298828125|-0.8646087646484375|18120.82772825|1.994839729077217|0.3695057842204181|-0.4087409768935266|-0.01424607913941145|-0.03928790614008904|0.457669734954834|-0.07459694147109985|0.03885564208030701|0.00545346736907959|XArbitraryZVertical|-0.259334403586992|-0.07001205725202547|0.7883673555713223|0.5534628094426043|0.3314034044742584|0.3974543213844299|-0.8556879758834839|0|0|0|-1|-1|3
2021-04-08 19:40:17.032 +0100|18120.85267925|0.2650146484375|0.4168243408203125|-0.8995819091796875|18120.84768925|2.003710378759677|0.3713323860504526|-0.4049976440989113|0.0767931342124939|-0.024702038615942|0.4997794926166534|-0.06853348016738892|0.03722742199897766|-0.01855319738388062|XArbitraryZVertical|-0.2588317145663553|-0.06910393119127373|0.7910728615596812|0.549940540221854|0.333503395318985|0.3940165936946869|-0.8564615845680237|0|0|0|-1|-1|3
2021-04-08 19:40:17.052 +0100|18120.87264025|0.2431640625|0.377166748046875|-0.9234466552734375|18120.86765025|2.012674257078959|0.3725413683481399|-0.4006042030662568|0.0764891654253006|-0.02654888853430748|0.5203185677528381|-0.0739797055721283|0.01656526327133179|-0.05340945720672607|XArbitraryZVertical|-0.2579362923183577|-0.06810245656542761|0.7939513981330033|0.5463261786947486|0.3351654410362244|0.3899747729301453|-0.8576618432998657|0|0|0|-1|-1|3
2021-04-08 19:40:17.072 +0100|18120.89260125|0.2685699462890625|0.3839111328125|-0.9319610595703125|18120.88761025|2.022017142100489|0.3737504248181444|-0.3969556888976031|-0.01651903800666332|-0.0446881577372551|0.5057571530342102|-0.09155535697937012|-0.0135350227355957|-0.06986093521118164|XArbitraryZVertical|-0.2572207202093711|-0.06745415781973366|0.796816222829555|0.5425601234152698|0.336719423532486|0.3866125345230103|-0.8585748672485352|0|0|0|-1|-1|3
2021-04-08 19:40:17.092 +0100|18120.91256125|0.268463134765625|0.3760528564453125|-0.950347900390625|18120.90757125|2.031567255040728|0.3743615034669646|-0.3950646902550939|-0.02640226110816002|-0.1156627312302589|0.4895356297492981|-0.06109672784805298|-0.00121605396270752|-0.08025217056274414|XArbitraryZVertical|-0.2566893682785947|-0.06772465342591472|0.7995655922767455|0.5387198026246223|0.3375107645988464|0.3848679065704346|-0.8590478897094727|0|0|0|-1|-1|3
2021-04-08 19:40:17.112 +0100|18120.93252225|0.31341552734375|0.3575897216796875|-0.9858245849609375|18120.92753225|2.040580839697481|0.3739950753067706|-0.3913321185576684|0.1451079994440079|-0.1302939355373383|0.5163089036941528|-0.06803348660469055|-0.0131339430809021|-0.09352207183837891|XArbitraryZVertical|-0.2553515768330876|-0.0674106725752139|0.8025155931583597|0.5349955883700084|0.3377184271812439|0.3814201653003693|-0.8605027198791504|0|0|0|-1|-1|3
2021-04-08 19:40:17.132 +0100|18120.95248325|0.3571319580078125|0.349273681640625|-0.9984588623046875|18120.94749325|2.048706119566476|0.37167839463796|-0.3838760527461006|0.2822987735271454|-0.2682071030139923|0.5349000692367554|-0.004928797483444214|-0.01743096113204956|-0.1367166042327881|XArbitraryZVertical|-0.2523884192676586|-0.06592277643415356|0.8059314671283778|0.5314402858111941|0.3367474973201752|0.3745172321796417|-0.8639085292816162|0|0|0|-1|-1|3
2021-04-08 19:40:17.152 +0100|18120.97244325|0.327056884765625|0.3104400634765625|-0.9871978759765625|18120.96745325|2.056163403765592|0.3657045490080681|-0.3738871764090788|0.3378665149211884|-0.4145088791847229|0.5529739856719971|0.02343767881393433|-0.02611011266708374|-0.1262193322181702|XArbitraryZVertical|-0.2473819590038673|-0.06422287904127356|0.8099095337468163|0.5279434456061181|0.3329019248485565|0.3652368187904358|-0.8693552017211914|0|0|0|-1|-1|3
2021-04-08 19:40:17.171 +0100|18120.99240425|0.3039703369140625|0.264251708984375|-0.9542236328125|18120.98741425|2.064556865663302|0.3586816184505087|-0.3629820741543588|0.3994761109352112|-0.4197804033756256|0.6284729838371277|-0.01781743764877319|-0.05528932809829712|-0.1070569753646851|XArbitraryZVertical|-0.2417049620159681|-0.06248280229814276|0.8143147782561927|0.5239905623232106|0.328167051076889|0.3550635874271393|-0.875349223613739|0|0|0|-1|-1|3
2021-04-08 19:40:17.191 +0100|18121.01236525|0.3301849365234375|0.2034912109375|-0.891693115234375|18121.00737525|2.074552967952793|0.3518993499988723|-0.350093467191614|0.4617660939693451|-0.4774968326091766|0.7539774775505066|-0.008144110441207886|-0.09460297226905823|-0.0665861964225769|XArbitraryZVertical|-0.2356145767070791|-0.0599746255288049|0.8192707554611554|0.5193114457857615|0.3237732350826263|0.342985600233078|-0.8817776441574097|0|0|0|-1|-1|3
2021-04-08 19:40:17.211 +0100|18121.03232625|0.29168701171875|0.2058868408203125|-0.8466644287109375|18121.02733525|2.087105191525284|0.3452001819093338|-0.3345965120176845|0.5778523087501526|-0.5140956044197083|0.9017522931098938|0.007682919502258301|-0.1372717022895813|0.005949020385742188|XArbitraryZVertical|-0.2288884355839916|-0.05655971493897376|0.8250806062215502|0.5134716320045662|0.319619208574295|0.3283880949020386|-0.8888221383094788|0|0|0|-1|-1|3
2021-04-08 19:40:17.231 +0100|18121.05228625|0.286529541015625|0.2351226806640625|-0.862884521484375|18121.04729625|2.101970983457661|0.3405336680159548|-0.3164969716143192|0.6302840113639832|-0.4162504076957703|1.024380326271057|-0.03436499834060669|-0.09718909859657288|0.04274857044219971|XArbitraryZVertical|-0.2223711919367672|-0.05168105549365681|0.8314112615905133|0.5065921841984137|0.3174013793468475|0.3112394511699677|-0.8957602381706238|0|0|0|-1|-1|3
2021-04-08 19:40:17.251 +0100|18121.07224725|0.291015625|0.312347412109375|-0.8748779296875|18121.06725725|2.118841156507492|0.3375069507399797|-0.2971392676056418|0.6045880913734436|-0.3660621345043182|1.119274854660034|-0.02220526337623596|-0.03262364864349365|0.03820490837097168|XArbitraryZVertical|-0.2162645953915552|-0.04596628817553838|0.8380473725125532|0.4987921963377847|0.3166247010231018|0.292786031961441|-0.9022334218025208|0|0|0|-1|-1|3
2021-04-08 19:40:17.271 +0100|18121.09220825|0.2694091796875|0.317047119140625|-0.8036956787109375|18121.08721825|2.137134134527563|0.3358774437534196|-0.2784491089086018|0.4759549200534821|-0.252778023481369|1.153451442718506|-0.03351524472236633|0.02381071448326111|0.04171395301818848|XArbitraryZVertical|-0.2109555089098138|-0.04024236068561936|0.8446522379435669|0.4903480016537515|0.3169025778770447|0.2748648226261139|-0.9077566266059875|0|0|0|-1|-1|3
2021-04-08 19:40:17.291 +0100|18121.11216825|0.256927490234375|0.4557342529296875|-0.7474365234375|18121.10717825|2.156828945199507|0.3373478268054942|-0.2619074040452029|0.4412504434585571|-0.1360124796628952|1.18169629573822|-0.05314135551452637|0.08952629566192627|0.1246978044509888|XArbitraryZVertical|-0.2075190018446352|-0.03475553192204309|0.8509028617428757|0.4813443934064318|0.3196982741355896|0.2589233815670013|-0.9114558100700378|0|0|0|-1|-1|3
2021-04-08 19:40:17.311 +0100|18121.13212875|0.2349395751953125|0.5608673095703125|-0.713165283203125|18121.12713925|2.176299736788211|0.3406773522916189|-0.243120788952982|0.683551013469696|-0.005008443258702755|1.213728666305542|-0.07672449946403503|0.2464039921760559|0.1737827062606812|XArbitraryZVertical|-0.2045100530500453|-0.02775893129481514|0.8569681719063705|0.472240265711559|0.3242994546890259|0.240732803940773|-0.9148101806640625|0|0|0|-1|-1|3
2021-04-08 19:40:17.331 +0100|18121.15208975|0.264801025390625|0.586090087890625|-0.7109527587890625|18121.14709975|2.19591788520003|0.3462859834662919|-0.2233159970311113|0.4498141407966614|0.1122902780771255|1.257799983024597|-0.08921724557876587|0.3498244881629944|0.2032628059387207|XArbitraryZVertical|-0.202407844469161|-0.01974737418119842|0.8627649578602674|0.4629015391481661|0.3309786021709442|0.2214644849300385|-0.9172822237014771|0|0|0|-1|-1|3
2021-04-08 19:40:17.351 +0100|18121.17205075|0.25933837890625|0.7365570068359375|-0.6715240478515625|18121.16705975|2.219521392247807|0.3549723458230915|-0.2111722292874138|-0.1402629166841507|0.240720197558403|1.359112501144409|-0.0698687732219696|0.3883093297481537|0.2191343903541565|XArbitraryZVertical|-0.2033903551087926|-0.01479575823328249|0.8683359340376204|0.4521130209252367|0.3398436009883881|0.2096062302589417|-0.9168269038200378|0|0|0|-1|-1|3
2021-04-08 19:40:17.371 +0100|18121.19201075|0.0924530029296875|0.8787078857421875|-0.71795654296875|18121.18702075|2.251842921520069|0.3666709891282496|-0.2079640597128596|-0.6455929279327393|0.2348827123641968|1.77798593044281|-0.1199032068252563|0.5867292284965515|0.2800196409225464|XArbitraryZVertical|-0.2075950097544372|-0.01408914288619926|0.8745997498792539|0.4379284819234505|0.3507850170135498|0.206468254327774|-0.9134116172790527|0|0|0|-1|-1|3
2021-04-08 19:40:17.391 +0100|18121.21197175|-0.21221923828125|0.7560882568359375|-1.16156005859375|18121.20698175|2.298130165483515|0.3780202975328956|-0.2095469663999943|-1.341288566589355|-0.08025473356246948|2.429636001586914|-0.3194722533226013|0.6285156011581421|0.07343488931655884|XArbitraryZVertical|-0.2125315926378361|-0.01723132375653711|0.8831752781082955|0.4177737462397947|0.3610077202320099|0.2080167979001999|-0.9090667963027954|0|0|0|-1|-1|3
2021-04-08 19:40:17.411 +0100|18121.23193275|-0.7230377197265625|1.748504638671875|-1.15625|18121.22694275|2.369567038705711|0.3877282733722696|-0.2332561577624705|-3.590322971343994|-0.5208287835121155|3.240368604660034|-0.7107112407684326|0.6065300107002258|-0.3839833736419678|XArbitraryZVertical|-0.2202538051403697|-0.03374176227824817|0.8944474330257295|0.3877033028578028|0.3678473234176636|0.2311467230319977|-0.9006994962692261|0|0|0|-1|-1|3
2021-04-08 19:40:17.431 +0100|18121.25189275|-0.5749359130859375|4.748687744140625|-0.545013427734375|18121.24690275|2.468285152132146|0.4005815181963536|-0.27848770048525|-3.712567090988159|-0.5679129362106323|3.392433166503906|-1.175542235374451|2.152938842773438|-0.0980718731880188|XArbitraryZVertical|-0.2308999353104924|-0.06329962740710196|0.9069219054426078|0.3466572907580512|0.3749298751354218|0.2749019265174866|-0.8853567838668823|0|0|0|-1|-1|3
2021-04-08 19:40:17.451 +0100|18121.27185375|0.464263916015625|5.605560302734375|-0.0740966796875|18121.26686375|2.537047539001811|0.4139180946339886|-0.3165353328905541|-2.784364700317383|0.0662694126367569|0.6387470960617065|-0.7362058162689209|4.957217216491699|0.448039710521698|XArbitraryZVertical|-0.2396339495419931|-0.08684502221305185|0.9129723776764085|0.3186144573908971|0.3822181820869446|0.3112758994102478|-0.8700670003890991|0|0|0|-1|-1|3
2021-04-08 19:40:17.471 +0100|18121.29181475|2.145401000976562|7.557281494140625|-0.36370849609375|18121.28682475|2.528663608944774|0.4218327414708794|-0.3885344259385633|-3.209827423095703|0.9380198121070862|-4.561482906341553|0.4410616159439087|5.257718086242676|0.7968997955322266|XArbitraryZVertical|-0.2527965599864228|-0.1180015427659681|0.9025484914674952|0.3279875639067582|0.3789162337779999|0.3788324892520905|-0.8443390727043152|0|0|0|-1|-1|3
2021-04-08 19:40:17.491 +0100|18121.31177575|3.42572021484375|6.9722900390625|-0.82037353515625|18121.30678475|2.400434995798481|0.387245204253738|-0.4826668040693229|-0.8381990194320679|0.8941424489021301|-9.502629280090332|2.245169639587402|7.74465799331665|0.3845494389533997|XArbitraryZVertical|-0.259092669024579|-0.1509464296430694|0.8715378402063795|0.3879537050553538|0.3344976902008057|0.4641429781913757|-0.8201723098754883|0|0|0|-1|-1|3
2021-04-08 19:40:17.511 +0100|18121.33173575|4.468643188476562|5.040985107421875|-2.033096313476562|18121.32674575|2.154406761059509|0.2723648571191631|-0.5633900587185142|0.2438101768493652|-0.1374848335981369|-12.8142728805542|3.425734519958496|5.768251895904541|-0.2503976225852966|XArbitraryZVertical|-0.2453321690638282|-0.180748704156711|0.8202137333061462|0.4841400268118148|0.2274342626333237|0.5340554118156433|-0.814284086227417|0|0|0|-1|-1|3
2021-04-08 19:40:17.531 +0100|18121.35169675|6.056686401367188|2.93170166015625|-2.909530639648438|18121.34670675|1.835860739673121|0.07625946876228529|-0.590004975789207|1.455814838409424|-2.301417112350464|-13.66226196289062|4.689625263214111|4.077851295471191|-1.409407138824463|XArbitraryZVertical|-0.2054602654315574|-0.2086255233562426|0.7527463694434796|0.5896053585430429|0.06330548226833344|0.5563651323318481|-0.8285229206085205|0|0|0|-1|-1|3
2021-04-08 19:40:17.551 +0100|18121.37165775|6.272659301757812|0.5198974609375|-2.735504150390625|18121.36666775|1.528255367299601|-0.1565339577045712|-0.5241003184473892|3.522972583770752|-4.281280517578125|-13.43669605255127|6.495582103729248|1.321511507034302|-2.608784675598145|XArbitraryZVertical|-0.1342147055400544|-0.2332205443401826|0.6808645439108335|0.6811887196060055|-0.1349703371524811|0.5004342794418335|-0.8551892042160034|0|0|0|-1|-1|3
2021-04-08 19:40:17.571 +0100|18121.39161775|6.113235473632812|-0.940521240234375|-1.588409423828125|18121.38662775|1.271066384444676|-0.3723864775647156|-0.3832568600195253|3.552218198776245|-5.611824512481689|-12.43570899963379|6.726619720458984|0.06354254484176636|-1.537817120552063|XArbitraryZVertical|-0.04274619190024895|-0.2573516884086756|0.6010424541976289|0.7554409402526102|-0.3374434411525726|0.373943030834198|-0.863885760307312|0|0|0|-1|-1|3
2021-04-08 19:40:17.591 +0100|18121.41157875|5.003387451171875|-2.374481201171875|-0.6993865966796875|18121.40658875|1.063166003099758|-0.5449877003599449|-0.2448072461438195|-0.2519926130771637|-5.062325477600098|-11.34472179412842|6.441656589508057|-1.822476983070374|-0.4968857765197754|XArbitraryZVertical|0.03403699878970617|-0.2898671034323451|0.5128688448525501|0.807331615258069|-0.5029507875442505|0.2423693239688873|-0.8296371102333069|0|0|0|-1|-1|3
2021-04-08 19:40:17.611 +0100|18121.43153975|3.574493408203125|-2.092239379882812|-0.18341064453125|18121.42654975|0.8770035033065436|-0.6690420035777487|-0.1485159295035949|-1.838722586631775|-3.688782453536987|-8.915678977966309|5.214222431182861|-2.440053224563599|0.1944823265075684|XArbitraryZVertical|0.07556653202802466|-0.3261887433505328|0.4219957679912771|0.8425024454724359|-0.6134071350097656|0.1479705572128296|-0.7757812142372131|0|0|0|-1|-1|3
2021-04-08 19:40:17.631 +0100|18121.45150075|2.701553344726562|-2.541305541992188|0.230010986328125|18121.44650975|0.7249139056626881|-0.7449229855079372|-0.09438514424388196|-4.234957695007324|-2.045266628265381|-6.219253540039062|4.00688362121582|-2.313726425170898|0.7091171741485596|XArbitraryZVertical|0.08780297376584639|-0.3554667407467244|0.3459454634701801|0.8638610903941843|-0.6748978495597839|0.0942450687289238|-0.7318680882453918|0|0|0|-1|-1|3
2021-04-08 19:40:17.651 +0100|18121.47146075|1.987457275390625|-2.395660400390625|-0.13909912109375|18121.46647075|0.5763566598343787|-0.7837997248053129|-0.1023194434083599|-6.148370742797852|-0.5650460720062256|-3.91339111328125|3.206967830657959|-2.624692440032959|0.8885074257850647|XArbitraryZVertical|0.06309750057713376|-0.3791473155511226|0.2810416685775751|0.8793643606805004|-0.7022833228111267|0.1021410003304482|-0.7045320272445679|0|0|0|-1|-1|3
2021-04-08 19:40:17.670 +0100|18121.49142175|1.620376586914062|-2.163619995117188|-0.4474029541015625|18121.48643175|0.4501567393728911|-0.8025869220733872|-0.1431484312560554|-5.379431247711182|0.1195535063743591|-2.12614107131958|2.588921308517456|-2.493809461593628|0.4716315865516663|XArbitraryZVertical|0.02278268858150352|-0.3944745309312238|0.2321554100075066|0.8888052856192319|-0.7118003368377686|0.1426600515842438|-0.6877415776252747|0|0|0|-1|-1|3
2021-04-08 19:40:17.690 +0100|18121.51138275|1.072677612304688|-1.920867919921875|-0.4954376220703125|18121.50639275|0.3595165804596803|-0.8106288911722584|-0.1855306227267695|-4.081648349761963|0.5308359265327454|-1.064896821975708|2.221499681472778|-2.295062780380249|0.1968410015106201|XArbitraryZVertical|-0.01355960432279667|-0.4015061836000531|0.1995364074177712|0.893752962141413|-0.7122834324836731|0.184468075633049|-0.6772178411483765|0|0|0|-1|-1|3
2021-04-08 19:40:17.710 +0100|18121.53134275|0.6019134521484375|-1.540252685546875|-0.6620635986328125|18121.52635275|0.2947302599580205|-0.8096816615101056|-0.2287738006438875|-3.665552377700806|0.9266130328178406|-0.206071212887764|1.649538040161133|-2.048864841461182|0.1546077728271484|XArbitraryZVertical|-0.04631895402431838|-0.4024617226912902|0.1785495684440777|0.8966600313457559|-0.7052022218704224|0.2267834395170212|-0.671758234500885|0|0|0|-1|-1|3
2021-04-08 19:40:17.730 +0100|18121.55130375|0.409210205078125|-1.21624755859375|-0.8975677490234375|18121.54631375|0.2405070197299063|-0.8001509681270647|-0.2836853348543502|-3.910117387771606|1.388782024383545|0.5263035297393799|1.214449882507324|-1.736468076705933|-0.04384452104568481|XArbitraryZVertical|-0.08300841740829328|-0.3984115271769653|0.1640441763012917|0.8985919621908877|-0.6887847185134888|0.2798955738544464|-0.6687557101249695|0|0|0|-1|-1|3
2021-04-08 19:40:17.750 +0100|18121.57126475|0.3547821044921875|-0.8519744873046875|-1.199493408203125|18121.56627475|0.1977331949361572|-0.7815318414494912|-0.3468823688636226|-3.317923545837402|1.765637278556824|1.131207585334778|1.044829130172729|-1.449570417404175|-0.2972112894058228|XArbitraryZVertical|-0.121752183289117|-0.3890997083304056|0.1553071115066749|0.8998098377661377|-0.6624135375022888|0.3399675190448761|-0.6675556302070618|0|0|0|-1|-1|3
2021-04-08 19:40:17.770 +0100|18121.59122575|0.368408203125|-0.590576171875|-1.412628173828125|18121.58623475|0.1779856751564318|-0.7515224592996307|-0.4075195074578045|-2.348229885101318|1.933495998382568|1.763222098350525|0.9829639792442322|-1.191849231719971|-0.586233913898468|XArbitraryZVertical|-0.1555485508222589|-0.3746961224335463|0.1549298313222681|0.9007797793468493|-0.6268391609191895|0.3963331878185272|-0.6708149313926697|0|0|0|-1|-1|3
2021-04-08 19:40:17.790 +0100|18121.61118575|0.269378662109375|-0.32391357421875|-1.2978515625|18121.60619575|0.1798166834008683|-0.711646704696031|-0.4653179418067424|-1.921253323554993|1.932925820350647|2.201353788375854|0.9433712959289551|-0.9549468159675598|-0.7068638801574707|XArbitraryZVertical|-0.1848143446521572|-0.357012193020519|0.1618913032088448|0.9012087894674624|-0.5836454033851624|0.4487069547176361|-0.676771879196167|0|0|0|-1|-1|3
2021-04-08 19:40:17.810 +0100|18121.63114675|0.1811370849609375|-0.051300048828125|-1.232406616210938|18121.62615675|0.1945813083683328|-0.6665646272446274|-0.52321800639803|-1.624275922775269|1.865256190299988|2.495793104171753|0.7687722444534302|-0.7663775682449341|-0.5851421356201172|XArbitraryZVertical|-0.212550734048504|-0.3382615469974851|0.1728803244680592|0.9002854722532752|-0.5355722308158875|0.4996702075004578|-0.6808026432991028|0|0|0|-1|-1|3
2021-04-08 19:40:17.830 +0100|18121.65110775|0.276702880859375|0.2546539306640625|-1.397476196289062|18121.64611775|0.2255714970178032|-0.6142581433134262|-0.5747912759452699|-0.9101542830467224|1.727906584739685|2.703132390975952|0.6704272627830505|-0.4993624091148376|-0.5840149521827698|XArbitraryZVertical|-0.2358448094604134|-0.3184907391256906|0.1880309145843216|0.8986574906174564|-0.4837359488010406|0.5436596274375916|-0.6858817338943481|0|0|0|-1|-1|3
2021-04-08 19:40:17.850 +0100|18121.67106775|0.310272216796875|0.257171630859375|-1.234359741210938|18121.66607775|0.2713241748076152|-0.5575793950884195|-0.6172332640350296|-0.5497145056724548|1.343666672706604|2.784769773483276|0.7423211336135864|-0.3035268783569336|-0.6725325584411621|XArbitraryZVertical|-0.2538698684973466|-0.2992754026408867|0.2067004455269999|0.8962474304720217|-0.4314996004104614|0.5787811279296875|-0.6919686198234558|0|0|0|-1|-1|3
2021-04-08 19:40:17.870 +0100|18121.69102875|0.0625762939453125|0.5608367919921875|-1.074844360351562|18121.68603875|0.3242658622769574|-0.5033755096785758|-0.6550711686938978|-0.5045015811920166|0.9308399558067322|2.83629584312439|0.6521717309951782|-0.3101271986961365|-0.487564742565155|XArbitraryZVertical|-0.2694247941384806|-0.2830024900850358|0.2270941128197165|0.8920472310013009|-0.3825336098670959|0.6092156767845154|-0.6946397423744202|0|0|0|-1|-1|3
2021-04-08 19:40:17.890 +0100|18121.71098975|-0.10247802734375|0.8420257568359375|-1.183258056640625|18121.70599975|0.3854508893016214|-0.4477453804227562|-0.68437286862575|0.1790894567966461|0.8568600416183472|2.750136375427246|0.3207654356956482|0.01742613315582275|-0.3508007526397705|XArbitraryZVertical|-0.2810598268425554|-0.267929193571621|0.2490421997460005|0.8872414794567718|-0.3354442715644836|0.6321872472763062|-0.6984386444091797|0|0|0|-1|-1|3
2021-04-08 19:40:17.910 +0100|18121.73095075|-0.05743408203125|0.852081298828125|-1.317520141601562|18121.72595975|0.4553112124855229|-0.3866510235338292|-0.6964281922949509|0.8869541883468628|0.8163421750068665|2.672792911529541|0.1960177421569824|0.2383104562759399|-0.5398747324943542|XArbitraryZVertical|-0.2854640975146148|-0.2515099440927332|0.2720615305769642|0.883875342175738|-0.2892792820930481|0.6414816975593567|-0.7105060219764709|0|0|0|-1|-1|3
2021-04-08 19:40:17.930 +0100|18121.75091075|0.0470123291015625|0.7935943603515625|-1.186004638671875|18121.74592075|0.5308341389956096|-0.3227414602300127|-0.6939806137834035|1.259515166282654|0.675131618976593|2.715829610824585|0.2136728167533875|0.1892867088317871|-0.5927286148071289|XArbitraryZVertical|-0.2842633206601179|-0.233849587593779|0.2961992406015295|0.8813483602065696|-0.2438087463378906|0.6396021842956543|-0.7290174961090088|0|0|0|-1|-1|3
2021-04-08 19:40:17.950 +0100|18121.77087175|0.06549072265625|0.800506591796875|-0.9887237548828125|18121.76588175|0.6081669671007153|-0.2613928600222323|-0.687475495191487|1.017885088920593|0.5467522144317627|2.805585145950317|0.2499571144580841|0.1497755646705627|-0.3677511215209961|XArbitraryZVertical|-0.2820658464215954|-0.2171176278996607|0.3214045344421992|0.877495392837992|-0.1997249573469162|0.6345881223678589|-0.7465975880622864|0|0|0|-1|-1|3
2021-04-08 19:40:17.970 +0100|18121.79083275|0.0732574462890625|0.95281982421875|-0.9745330810546875|18121.78584275|0.686788328316262|-0.2017810837467813|-0.6824796172055758|0.8384591341018677|0.4469853639602661|2.970996618270874|0.2391424179077148|0.1982460021972656|-0.2005174160003662|XArbitraryZVertical|-0.2815596919370332|-0.20147138362548|0.3473970147007818|0.871463620829162|-0.1555239707231522|0.6307191848754883|-0.7602668404579163|0|0|0|-1|-1|3
2021-04-08 19:40:17.990 +0100|18121.81079375|0.0456085205078125|1.119186401367188|-0.887115478515625|18121.80580275|0.7651068227114378|-0.1439731836523605|-0.6795656975793736|0.604932963848114|0.3848038613796234|3.03951358795166|0.1747894287109375|0.3441560864448547|-0.1593394875526428|XArbitraryZVertical|-0.2830764062060391|-0.1869993745607657|0.3732752544256809|0.8634608431920178|-0.1116024404764175|0.6284552812576294|-0.7697979807853699|0|0|0|-1|-1|3
2021-04-08 19:40:18.010 +0100|18121.83075375|-0.002044677734375|1.148147583007812|-0.9232635498046875|18121.82576375|0.8454479697453335|-0.08703133174715567|-0.6704701655017679|1.004947423934937|0.283314973115921|3.081860303878784|0.107778824865818|0.5543819069862366|-0.1220078468322754|XArbitraryZVertical|-0.2828946007212124|-0.1723038145838011|0.4000942166244281|0.8545213016197699|-0.06810557097196579|0.6213544607162476|-0.7805640697479248|0|0|0|-1|-1|3
2021-04-08 19:40:18.030 +0100|18121.85071475|-0.0316925048828125|1.021041870117188|-1.00872802734375|18121.84572475|0.9271058668076272|-0.03231773395017492|-0.6517565721081449|1.134830474853516|0.2042023986577988|3.224286079406738|0.01943309605121613|0.5231930017471313|-0.1640436053276062|XArbitraryZVertical|-0.2794744005528895|-0.1568178784213399|0.4281681434376396|0.844970074702681|-0.02568875811994076|0.606583833694458|-0.7946044206619263|0|0|0|-1|-1|3
2021-04-08 19:40:18.050 +0100|18121.87067575|0.11981201171875|1.103225708007812|-0.8995361328125|18121.86568575|1.00880262158977|0.02282302114892099|-0.6339812338417142|0.6084563136100769|0.4214600920677185|3.274135828018188|-0.03420922160148621|0.3767905831336975|-0.1829369068145752|XArbitraryZVertical|-0.2781119045946281|-0.1411412764307068|0.4560611922829482|0.8335114419690124|0.0183863565325737|0.5923570394515991|-0.8054658174514771|0|0|0|-1|-1|3
2021-04-08 19:40:18.070 +0100|18121.89063675|0.156219482421875|1.385589599609375|-0.6981048583984375|18121.88564575|1.086620014103679|0.07432938002368633|-0.6207303299586343|0.6218060255050659|0.1014011949300766|3.070873498916626|0.1137412488460541|0.60994553565979|-0.04673218727111816|XArbitraryZVertical|-0.2795389254446646|-0.127491420799262|0.4822187308232306|0.8204079313110002|0.06040786579251289|0.5816293954849243|-0.8112078309059143|0|0|0|-1|-1|3
2021-04-08 19:40:18.090 +0100|18121.91059675|-0.0298309326171875|1.33477783203125|-0.6557464599609375|18121.90560675|1.155352643683988|0.1147634165388946|-0.5959924414824638|1.290740489959717|0.08198419213294983|2.786777257919312|0.01250096410512924|0.8639481067657471|0.1487476229667664|XArbitraryZVertical|-0.2754957539463668|-0.1141409963831002|0.5070461007999612|0.8086891840550143|0.09476891905069351|0.5613303780555725|-0.8221478462219238|0|0|0|-1|-1|3
2021-04-08 19:40:18.110 +0100|18121.93055775|-0.076416015625|1.060394287109375|-0.79595947265625|18121.92556775|1.215467791138299|0.1508389972188041|-0.5633480538868968|1.08749532699585|0.2593258619308472|2.649056673049927|-0.1875933259725571|0.7233967185020447|0.1596640348434448|XArbitraryZVertical|-0.2688731095375101|-0.09884980367648148|0.529752822594313|0.7983095575318455|0.1270470917224884|0.5340198874473572|-0.8358719348907471|0|0|0|-1|-1|3
2021-04-08 19:40:18.130 +0100|18121.95051875|0.0704803466796875|1.111679077148438|-0.873779296875|18121.94552875|1.272567793543718|0.1872396436224591|-0.5421036706345567|0.2119244188070297|0.305401623249054|2.498302698135376|-0.2044103592634201|0.5236733555793762|0.01117873191833496|XArbitraryZVertical|-0.2679273728259512|-0.08595604263094697|0.5498772030677141|0.7864232911144949|0.1594586372375488|0.5159391760826111|-0.8416529893875122|0|0|0|-1|-1|3
2021-04-08 19:40:18.149 +0100|18121.97047875|0.1132049560546875|1.124542236328125|-0.8376007080078125|18121.96548875|1.326405339508714|0.2190245324318142|-0.5322845998297282|-0.0789741575717926|0.1179220601916313|2.252202987670898|-0.09726592898368835|0.6270342469215393|-0.02560311555862427|XArbitraryZVertical|-0.270934850595819|-0.07785768673244355|0.5677583422736173|0.7734229942383956|0.187217190861702|0.5075032114982605|-0.841064989566803|0|0|0|-1|-1|3
2021-04-08 19:40:18.169 +0100|18121.99043975|0.1494140625|1.012344360351562|-0.7680816650390625|18121.98544975|1.374209051356597|0.244626327779895|-0.5222147112767046|0.1613718122243881|0.06455806642770767|2.01185154914856|-0.09837090969085693|0.6091099977493286|0.02159255743026733|XArbitraryZVertical|-0.2728484619926206|-0.07139600977759906|0.583873830596795|0.7612803827829036|0.2099133878946304|0.4988008737564087|-0.8409126400947571|0|0|0|-1|-1|3
2021-04-08 19:40:18.189 +0100|18122.01040075|0.197845458984375|0.8225860595703125|-0.7489013671875|18122.00541075|1.415318202226684|0.2644544901452346|-0.5061649784533385|0.4628631472587585|-0.1116798147559166|1.864520907402039|-0.05201730132102966|0.4890815019607544|0.08912408351898193|XArbitraryZVertical|-0.2715812829267055|-0.06435280678700483|0.5987702561174805|0.7507173793341699|0.2286080420017242|0.4848266839981079|-0.8442046642303467|0|0|0|-1|-1|3
2021-04-08 19:40:18.209 +0100|18122.03036175|0.146484375|0.619659423828125|-0.778167724609375|18122.02537075|1.452016162808147|0.2787409549025652|-0.4870509193129258|0.4575720429420471|-0.1986678093671799|1.780347466468811|-0.05587875843048096|0.2895472645759583|0.1058339476585388|XArbitraryZVertical|-0.2680786836700948|-0.05770546274858362|0.6130033579756261|0.740966204960864|0.2431506663560867|0.4680217802524567|-0.8496078252792358|0|0|0|-1|-1|3
2021-04-08 19:40:18.229 +0100|18122.05032175|0.1958770751953125|0.4942474365234375|-0.859710693359375|18122.04533175|1.488163894376883|0.2919322582011078|-0.4718083713420647|0.07100400328636169|-0.1779780387878418|1.752953290939331|-0.115490198135376|0.127289891242981|0.04541277885437012|XArbitraryZVertical|-0.2659064603599416|-0.05257184189970501|0.626524771720965|0.7307507826437772|0.2563601434230804|0.4544978439807892|-0.8530598878860474|0|0|0|-1|-1|3
2021-04-08 19:40:18.249 +0100|18122.07028275|0.1580810546875|0.4793853759765625|-0.9232330322265625|18122.06529275|1.526492391381816|0.3035848973422747|-0.463213248986569|-0.1879871040582657|-0.3755382001399994|1.771574974060059|-0.05947798490524292|0.03999197483062744|-0.02878028154373169|XArbitraryZVertical|-0.2656947529724373|-0.05050441107558385|0.6399962120915076|0.7192083811911907|0.2674408853054047|0.4468250572681427|-0.8537111878395081|0|0|0|-1|-1|3
2021-04-08 19:40:18.269 +0100|18122.09024375|0.0726470947265625|0.42132568359375|-1.080459594726562|18122.08525375|1.56518670822356|0.3120811137183635|-0.4530434023660972|0.177776962518692|-0.4633141160011292|1.857480883598328|-0.1423975825309753|0.04049181938171387|-0.08284831047058105|XArbitraryZVertical|-0.2641006825490739|-0.04905586924052124|0.6540099270302548|0.7071884173184594|0.2760654389858246|0.437703937292099|-0.8556886911392212|0|0|0|-1|-1|3
2021-04-08 19:40:18.289 +0100|18122.11020475|0.2375946044921875|0.2292327880859375|-1.330307006835938|18122.10521375|1.603568227098135|0.3208666657193849|-0.4335721852395489|0.5484986901283264|-0.3463852405548096|2.083797216415405|-0.2098658084869385|-0.05694013833999634|-0.273349940776825|XArbitraryZVertical|-0.2597659094443373|-0.04408853601187088|0.6688712777959422|0.6951181926738192|0.2862064242362976|0.4201151430606842|-0.8611557483673096|0|0|0|-1|-1|3
2021-04-08 19:40:18.309 +0100|18122.130166125|0.456695556640625|0.26300048828125|-1.486297607421875|18122.12517475|1.645837272054794|0.3285567411098994|-0.4082618918162039|0.5909063816070557|-0.6459783911705017|2.37712550163269|0.008592277765274048|-0.1785083115100861|-0.516352653503418|XArbitraryZVertical|-0.2534156917697149|-0.03770512737527592|0.6857003230688238|0.6813031841468675|0.2961572110652924|0.3970146775245667|-0.8687176108360291|0|0|0|-1|-1|3
2021-04-08 19:40:18.329 +0100|18122.150127125|0.6577301025390625|0.4098968505859375|-1.529876708984375|18122.145137125|1.692224924176183|0.3299087032281594|-0.3807856825662861|0.5889633297920227|-1.051091551780701|2.554095983505249|0.2084493935108185|-0.06906774640083313|-0.6248810291290283|XArbitraryZVertical|-0.2444690501787788|-0.03287999708282077|0.7046005901423906|0.6653510117808038|0.3007526099681854|0.3716499805450439|-0.878307580947876|0|0|0|-1|-1|3
2021-04-08 19:40:18.349 +0100|18122.170088125|0.616180419921875|0.3867340087890625|-1.517044067382812|18122.165098125|1.74021151935564|0.3204616650743239|-0.3529509311445134|0.6204665303230286|-1.551077246665955|2.559802055358887|0.3767621517181396|0.06494611501693726|-0.6462796330451965|XArbitraryZVertical|-0.2318045670485193|-0.03121018593669106|0.7248261423928791|0.6480122914000424|0.2955868542194366|0.3456683456897736|-0.8905851244926453|0|0|0|-1|-1|3
2021-04-08 19:40:18.369 +0100|18122.190048125|0.617401123046875|0.4430694580078125|-1.504776000976562|18122.185058125|1.786758859850341|0.3024472386490612|-0.323899532575271|0.8746160268783569|-1.814090847969055|2.518028259277344|0.3275409340858459|0.08194214105606079|-0.6071886420249939|XArbitraryZVertical|-0.2157586984592529|-0.03101765731737739|0.7449971537074423|0.6304487445408378|0.2823691368103027|0.3182657361030579|-0.9049721956253052|0|0|0|-1|-1|3
2021-04-08 19:40:18.389 +0100|18122.210009125|0.5945587158203125|0.4130706787109375|-1.228851318359375|18122.205019125|1.829889299126489|0.2773551525456626|-0.2885578120974123|1.316880106925964|-1.969735026359558|2.468806982040405|0.350042462348938|0.142493337392807|-0.5468838214874268|XArbitraryZVertical|-0.1952552785036262|-0.02943126290851188|0.7646443709595993|0.6134560440351613|0.2624921202659607|0.2845699489116669|-0.9220183491706848|0|0|0|-1|-1|3
2021-04-08 19:40:18.409 +0100|18122.229970125|0.5337371826171875|0.483154296875|-0.90533447265625|18122.224980125|1.872419993888173|0.2482967616199567|-0.2463165669998751|1.695023775100708|-2.048389196395874|2.598322629928589|0.350669801235199|0.1965660750865936|-0.2228120565414429|XArbitraryZVertical|-0.171235560653047|-0.02531377679996032|0.7840476186918311|0.5960763972475641|0.2383357733488083|0.2438333630561829|-0.9400752186775208|0|0|0|-1|-1|3
2021-04-08 19:40:18.429 +0100|18122.249931125|0.36920166015625|0.464752197265625|-0.5415496826171875|18122.244940125|1.917595545613874|0.2185167294950535|-0.1999194570189406|1.652864933013916|-1.912042617797852|2.776387929916382|0.2868808209896088|0.2696257829666138|0.1465958952903748|XArbitraryZVertical|-0.1457946439893514|-0.01886204426752881|0.8033080228346313|0.5771348147222926|0.2124641239643097|0.1985903978347778|-0.9567762613296509|0|0|0|-1|-1|3
2021-04-08 19:40:18.449 +0100|18122.269891125|0.2131805419921875|0.4654541015625|-0.2028045654296875|18122.264901125|1.969054033883419|0.1930619604045918|-0.157365609242673|1.492148160934448|-1.523639321327209|3.135854721069336|0.1363736987113953|0.2995515465736389|0.5228530764579773|XArbitraryZVertical|-0.1233225517144495|-0.01201257523791775|0.822375906511109|0.5552885808437015|0.1894941031932831|0.156716912984848|-0.9692944884300232|0|0|0|-1|-1|3
2021-04-08 19:40:18.469 +0100|18122.289852125|0.2058258056640625|0.4029541015625|-0.0788726806640625|18122.284862125|2.030124507180606|0.1779028460004842|-0.120026765833722|0.9687860012054443|-0.748809814453125|3.527350187301636|0.0001659393310546875|0.3410614728927612|0.8305755257606506|XArbitraryZVertical|-0.1068469242509614|-0.003968512340772859|0.8418206432306481|0.5290616934774616|0.1756927222013474|0.1197387799620628|-0.977135956287384|0|0|0|-1|-1|3
2021-04-08 19:40:18.489 +0100|18122.309813125|0.485076904296875|0.55938720703125|-0.1885833740234375|18122.304823125|2.101600541218529|0.1794408338580835|-0.09927332666185983|-0.2721029818058014|0.08935502171516418|3.836337327957153|0.07786309719085693|0.3104203045368195|0.8963052034378052|XArbitraryZVertical|-0.1022150998881275|0.001580497841245035|0.8610571475708181|0.4981267219363631|0.1776006668806076|0.09911035001277924|-0.9790991544723511|0|0|0|-1|-1|3
2021-04-08 19:40:18.509 +0100|18122.329774125|0.56103515625|0.7109222412109375|-0.362030029296875|18122.324783125|2.184788622344387|0.1922421292543985|-0.1063713799811297|-1.892113327980042|0.3301131427288055|4.146717548370361|0.3636249303817749|0.5365444421768188|0.7871878147125244|XArbitraryZVertical|-0.1094380204315481|-0.00285469761177871|0.8800356461679368|0.4621173945086426|0.1899803131818771|0.1061709001660347|-0.9760303497314453|0|0|0|-1|-1|3
2021-04-08 19:40:18.529 +0100|18122.349734125|0.20867919921875|0.9155120849609375|-0.7194671630859375|18122.344744125|2.280356280109303|0.2144071117823189|-0.1372463652088585|-3.406986713409424|0.8041133284568787|4.457241535186768|0.2773013412952423|0.5548648238182068|0.5381662249565125|XArbitraryZVertical|-0.1254601254998213|-0.0173923024964428|0.8983021253977391|0.4207265488240037|0.210767388343811|0.1368158906698227|-0.9679145216941833|0|0|0|-1|-1|3
2021-04-08 19:40:18.549 +0100|18122.369695125|-0.3057403564453125|1.392669677734375|-0.763092041015625|18122.364705125|2.39068703612104|0.2495323374272019|-0.1971311345428982|-4.969085693359375|0.7584294676780701|4.786972045898438|-0.0935920923948288|0.7469224333763123|0.1339763998985291|XArbitraryZVertical|-0.1510167137688472|-0.04542869864961368|0.9141390097819969|0.3734704057753977|0.2421679943799973|0.1958568394184113|-0.9502604007720947|0|0|0|-1|-1|3
2021-04-08 19:40:18.569 +0100|18122.389656125|-0.92657470703125|2.782913208007812|-0.217437744140625|18122.384666125|2.51657376597197|0.2929935970104713|-0.2682136056342439|-4.878917694091797|0.8715419173240662|5.102724552154541|-0.7902412414550781|1.341618657112122|0.2369655966758728|XArbitraryZVertical|-0.1783229590053917|-0.08139018662587584|0.9269193703135818|0.3199954079687535|0.2784930467605591|0.265009343624115|-0.9231531023979187|0|0|0|-1|-1|3
2021-04-08 19:40:18.589 +0100|18122.409617125|-0.322296142578125|4.37457275390625|0.1937408447265625|18122.404626125|2.634608660885713|0.3531644887761038|-0.3156358119692556|-2.940989255905151|1.698155999183655|3.964225769042969|-1.236847281455994|2.918506145477295|0.7596832513809204|XArbitraryZVertical|-0.2067403596921945|-0.1062681631458649|0.9342224336199453|0.2705440110190459|0.3287825286388397|0.3104209303855896|-0.8919309973716736|0|0|0|-1|-1|3
2021-04-08 19:40:18.609 +0100|18122.429577125|0.8034515380859375|6.65277099609375|0.6500396728515625|18122.424587125|2.700653052063557|0.4123734979732624|-0.3233412984321366|0.172232449054718|2.032253503799438|1.315699815750122|-0.4404703080654144|4.48344087600708|1.179791688919067|XArbitraryZVertical|-0.231624315623786|-0.1095561293938453|0.935464423531825|0.2434216684402129|0.3800159394741058|0.3177364766597748|-0.8686952590942383|0|0|0|-1|-1|3
2021-04-08 19:40:18.629 +0100|18122.449538125|2.347549438476562|7.376144409179688|0.2161712646484375|18122.444548125|2.672453502528346|0.4463389190040237|-0.3043823906049657|1.667030334472656|2.175768375396729|-3.124378204345703|0.7218904495239258|7.03206729888916|1.458469748497009|XArbitraryZVertical|-0.2471351263920133|-0.09294993164317686|0.9297326070092552|0.256675063661608|0.4118233025074005|0.2997040152549744|-0.8605690598487854|0|0|0|-1|-1|3
2021-04-08 19:40:18.649 +0100|18122.469499125|3.543792724609375|7.39532470703125|-0.277130126953125|18122.464509125|2.568580301943864|0.4479147337597151|-0.357453667143448|-2.211499452590942|1.225006461143494|-8.084227561950684|2.334950685501099|6.741204738616943|0.9266388416290283|XArbitraryZVertical|-0.2586288299610224|-0.104507906731329|0.9092253284540253|0.3090288065625591|0.4057118594646454|0.3498899936676025|-0.8443784713745117|0|0|0|-1|-1|3
2021-04-08 19:40:18.669 +0100|18122.489459125|4.868942260742188|6.437637329101562|-0.860870361328125|18122.484469125|2.384019091362713|0.3941322112400605|-0.4875791256253992|-2.2124342918396|0.9509710669517517|-12.23818778991699|3.422583341598511|6.915361404418945|0.4041897058486938|XArbitraryZVertical|-0.2640687008132587|-0.1496684127592249|0.8667125764520818|0.3958240833773823|0.33925861120224|0.468488484621048|-0.8157341480255127|0|0|0|-1|-1|3
2021-04-08 19:40:18.688 +0100|18122.509420125|6.734329223632812|4.485214233398438|-2.44537353515625|18122.504430125|2.098388795621346|0.2492672365245816|-0.6070027863416122|-1.443104028701782|-0.5278545022010803|-14.50075721740723|5.123639583587646|5.300716400146484|-0.3980544805526733|XArbitraryZVertical|-0.2506140196931342|-0.1980016241979845|0.8024660644787969|0.5040202109950128|0.2026248574256897|0.5704082250595093|-0.795975923538208|0|0|0|-1|-1|3
2021-04-08 19:40:18.708 +0100|18122.529381125|9.28350830078125|3.102493286132812|-3.919464111328125|18122.524391125|1.734524815603818|0.004492901606611629|-0.6627057461272358|0.8348487615585327|-1.911275744438171|-15.03292083740234|7.319045066833496|3.810300588607788|-1.919013738632202|XArbitraryZVertical|-0.2120759170076591|-0.2467034173045531|0.7206052547006598|0.6122820766121632|0.003541879123076797|0.6152521371841431|-0.7883224487304688|0|0|0|-1|-1|3
2021-04-08 19:40:18.728 +0100|18122.549342125|9.254852294921875|-0.2820587158203125|-2.363433837890625|18122.544352125|1.35360363726632|-0.2600454451957219|-0.5634105303098749|4.818264484405518|-2.452261924743652|-16.57344818115234|9.632880210876465|1.719513773918152|-2.921664237976074|XArbitraryZVertical|-0.1368857228082494|-0.2697323852948807|0.6246366071644232|0.7199554644014753|-0.217382937669754|0.5340726971626282|-0.8170135021209717|0|0|0|-1|-1|3
2021-04-08 19:40:18.748 +0100|18122.569302125|6.751983642578125|-3.095001220703125|-0.437957763671875|18122.564312125|1.058943814662771|-0.4599215760635477|-0.3476833682284716|4.814415454864502|-4.354580402374268|-15.25968170166016|9.093175888061523|-1.488668918609619|-0.9368272423744202|XArbitraryZVertical|-0.03196201333273573|-0.2788254803432305|0.5183968627905375|0.80777452145966|-0.4173182249069214|0.3407207131385803|-0.8424695730209351|0|0|0|-1|-1|3
2021-04-08 19:40:18.768 +0100|18122.589263125|4.859161376953125|-3.181564331054688|-0.3330535888671875|18122.584273125|0.8394035755580782|-0.6056214224324495|-0.1621900656405721|0.2669632136821747|-4.257430076599121|-12.28230476379395|6.648777484893799|-3.511530637741089|0.627062976360321|XArbitraryZVertical|0.0505053825628087|-0.3029354669339602|0.4097299072435869|0.8589532617096205|-0.5618019700050354|0.1614799201488495|-0.811358630657196|0|0|0|-1|-1|3
2021-04-08 19:40:18.788 +0100|18122.609224125|3.81195068359375|-3.718719482421875|-0.6031036376953125|18122.604234125|0.650234926239506|-0.6920503407123019|-0.06735736806250348|-4.013040542602539|-2.376336574554443|-8.357368469238281|5.257962226867676|-3.230376005172729|0.2594805955886841|XArbitraryZVertical|0.07825640490077472|-0.3313295388754423|0.3111391704032311|0.8872931860167272|-0.6366701722145081|0.06730644404888153|-0.7681933641433716|0|0|0|-1|-1|3
2021-04-08 19:40:18.808 +0100|18122.629185125|2.5352783203125|-3.562042236328125|-0.4290313720703125|18122.624194125|0.4724396917008433|-0.7337370905996791|-0.06570302187344021|-6.937138080596924|-0.8972394466400146|-5.165917873382568|4.129294872283936|-3.893444061279297|0.229020357131958|XArbitraryZVertical|0.05409109408297978|-0.3557201519342002|0.2297921509980269|0.9042859957174575|-0.6682049036026001|0.06565576046705246|-0.7410746812820435|0|0|0|-1|-1|3
2021-04-08 19:40:18.828 +0100|18122.649145125|1.864028930664062|-3.020065307617188|-0.5199432373046875|18122.644155125|0.3215929007333069|-0.7620666994551402|-0.1185317490886502|-6.791091442108154|-0.7638029456138611|-2.486275911331177|3.016963958740234|-3.504590511322021|0.2526368498802185|XArbitraryZVertical|0.005161183912061929|-0.3752412316606091|0.1701036772684016|0.9111707995477072|-0.6855735778808594|0.1182543858885765|-0.7183347344398499|0|0|0|-1|-1|3
2021-04-08 19:40:18.848 +0100|18122.669106125|1.381134033203125|-2.214675903320312|-0.79345703125|18122.664116125|0.2107387340997283|-0.7939724250007987|-0.1821231423820504|-5.372915267944336|-0.7208498120307922|-0.942761242389679|2.417077779769897|-3.050929069519043|0.1503162980079651|XArbitraryZVertical|-0.0429023586813945|-0.3917235477693904|0.1315577026404479|0.9096179203050406|-0.7013492584228516|0.1811180114746094|-0.6894240975379944|0|0|0|-1|-1|3
2021-04-08 19:40:18.868 +0100|18122.689067125|1.170806884765625|-1.454803466796875|-1.109832763671875|18122.684077125|0.1368071259970472|-0.8206942067283474|-0.2413331308703414|-4.038417816162109|-0.3928412795066833|0.1140794530510902|2.03754997253418|-2.213056325912476|-0.2392412424087524|XArbitraryZVertical|-0.08305412982625522|-0.4026452738708147|0.110128408149616|0.9049036432630055|-0.7104170918464661|0.2389973402023315|-0.6619575619697571|0|0|0|-1|-1|3
2021-04-08 19:40:18.888 +0100|18122.709028125|0.7354888916015625|-1.202560424804688|-1.010086059570312|18122.704037125|0.08425460813880088|-0.8372961245106306|-0.2981587648580374|-3.701943159103394|0.1764094531536102|0.5888863801956177|1.802574872970581|-1.632092833518982|-0.4704302549362183|XArbitraryZVertical|-0.1186495718004263|-0.4073748784699415|0.09837776648752654|0.9001610500374531|-0.7100610136985779|0.2937607169151306|-0.6399359703063965|0|0|0|-1|-1|3
2021-04-08 19:40:18.908 +0100|18122.728988125|0.3661956787109375|-0.9633026123046875|-0.9427337646484375|18122.723998125|0.03857664001550075|-0.8398889521115114|-0.3588286459830992|-3.480221748352051|1.035016298294067|1.113980412483215|1.302432060241699|-1.546275615692139|-0.3446513414382935|XArbitraryZVertical|-0.1551801556045268|-0.4042334973480931|0.09007221582957142|0.8968843684546982|-0.6971465945243835|0.3511777222156525|-0.6250287890434265|0|0|0|-1|-1|3
2021-04-08 19:40:18.928 +0100|18122.748949125|0.3260650634765625|-0.5625762939453125|-1.108444213867188|18122.743959125|0.0138371984176394|-0.8214406817413299|-0.4193638870789531|-2.208046674728394|1.69980251789093|1.825148582458496|1.000428915023804|-1.257047414779663|-0.3602630496025085|XArbitraryZVertical|-0.1881313641064317|-0.3918356807031779|0.08930976863818209|0.8961558232294364|-0.6686877012252808|0.4071795344352722|-0.6221427917480469|0|0|0|-1|-1|3
2021-04-08 19:40:18.948 +0100|18122.768910125|0.4120025634765625|-0.287628173828125|-1.251144409179688|18122.763920125|0.02209849470824352|-0.7786851948984643|-0.4713158599569908|-1.01250159740448|2.180789232254028|2.384767770767212|0.9686640501022339|-0.9471611976623535|-0.5157049894332886|XArbitraryZVertical|-0.2119173836626787|-0.3714531935648223|0.09855961299268881|0.8985541897954455|-0.6257686614990234|0.4540590643882751|-0.6342270970344543|0|0|0|-1|-1|3
2021-04-08 19:40:18.968 +0100|18122.788871125|0.54107666015625|0.0089263916015625|-1.328094482421875|18122.783880125|0.05048797309569648|-0.719232050239452|-0.5195081372626339|-0.9217633605003357|2.35665488243103|2.762953758239746|1.019777536392212|-0.7328262329101562|-0.6206874251365662|XArbitraryZVertical|-0.2317517433119033|-0.3460691720268965|0.1131920678317681|0.9020615195265905|-0.571886420249939|0.4964532256126404|-0.6530545353889465|0|0|0|-1|-1|3
2021-04-08 19:40:18.988 +0100|18122.808831125|0.4820709228515625|0.369720458984375|-1.359786987304688|18122.803841125|0.08875655908250821|-0.6535801668592461|-0.5702815013294279|-0.7823417782783508|2.163720369338989|3.022010564804077|1.055725574493408|-0.4200713634490967|-0.6729110479354858|XArbitraryZVertical|-0.2524776016016393|-0.3195585784634225|0.1305266373454501|0.9039360468702153|-0.5118109583854675|0.5398690104484558|-0.6682747602462769|0|0|0|-1|-1|3
2021-04-08 19:40:19.008 +0100|18122.828792125|0.3282012939453125|0.532684326171875|-1.367904663085938|18122.823802125|0.1449487284011866|-0.5818390816294223|-0.6126964273160886|0.006235793232917786|1.85329258441925|3.227668046951294|0.8883627653121948|-0.1299756765365601|-0.6818556785583496|XArbitraryZVertical|-0.2683454311228017|-0.2936807112575971|0.1524143120565705|0.9047167432217134|-0.4495963454246521|0.5750755071640015|-0.6834847331047058|0|0|0|-1|-1|3
2021-04-08 19:40:19.028 +0100|18122.848753125|0.183502197265625|0.47174072265625|-1.276473999023438|18122.843763125|0.218289935804696|-0.5040255212127548|-0.6409832717400313|0.4714178442955017|1.65371835231781|3.289478063583374|0.6682655215263367|-0.08128976821899414|-0.6406456828117371|XArbitraryZVertical|-0.277488055911201|-0.2684805662034169|0.1782034478508773|0.9050759028697597|-0.3870919346809387|0.5979838371276855|-0.7018371224403381|0|0|0|-1|-1|3
2021-04-08 19:40:19.048 +0100|18122.868714125|0.1435089111328125|0.563140869140625|-1.16827392578125|18122.863723125|0.2981963145412758|-0.4251360116381681|-0.6607301450199696|0.5965856909751892|1.372853755950928|3.33817458152771|0.5088862180709839|-0.168746292591095|-0.5274420976638794|XArbitraryZVertical|-0.2839249643944278|-0.2444504222767337|0.2050281324863952|0.9042090950882797|-0.325643390417099|0.6136934757232666|-0.7192612290382385|0|0|0|-1|-1|3
2021-04-08 19:40:19.068 +0100|18122.888674125|0.0470123291015625|0.9832611083984375|-1.238601684570312|18122.883684125|0.3857245629450659|-0.3469801517493902|-0.6709143571028845|1.115200161933899|0.9897516965866089|3.437321662902832|0.3825485706329346|0.03998064994812012|-0.4528166055679321|XArbitraryZVertical|-0.2870052636862928|-0.2221274234192957|0.2340417280359298|0.90194904714436|-0.2663528323173523|0.6217024326324463|-0.7365747690200806|0|0|0|-1|-1|3
2021-04-08 19:40:19.088 +0100|18122.908635125|-0.0788726806640625|1.133468627929688|-1.42681884765625|18122.903645125|0.4814326899167475|-0.2727754760710855|-0.6651776673066293|1.672753691673279|0.5404655337333679|3.507993936538696|0.2305706143379211|0.444676399230957|-0.5205726623535156|XArbitraryZVertical|-0.283495364444948|-0.2019211547265898|0.2663531906057583|0.8988405255717626|-0.2119700461626053|0.6171989440917969|-0.7577164769172668|0|0|0|-1|-1|3
2021-04-08 19:40:19.108 +0100|18122.928596125|-0.1490478515625|0.7304840087890625|-1.16546630859375|18122.923606125|0.5733837164600297|-0.2083856162805253|-0.6531869043628831|1.063501238822937|0.2866494655609131|3.304091215133667|0.05658291280269623|0.4809951782226562|-0.5936036705970764|XArbitraryZVertical|-0.2781994127682457|-0.1847154088993144|0.2983851974347044|0.8941206573227709|-0.1642945557832718|0.6077203750610352|-0.7769706249237061|0|0|0|-1|-1|3
2021-04-08 19:40:19.128 +0100|18122.948556125|-0.185821533203125|0.8759765625|-0.8897857666015625|18122.943566125|0.6552595296428831|-0.1539069487390216|-0.6544931094245864|0.1472402662038803|0.1874670386314392|3.172735214233398|-0.03912948817014694|0.07207566499710083|-0.288347065448761|XArbitraryZVertical|-0.2800120000693899|-0.1720576652905731|0.3272172028137335|0.8859561742476938|-0.1216216161847115|0.6087571978569031|-0.7839788794517517|0|0|0|-1|-1|3
2021-04-08 19:40:19.148 +0100|18122.968517125|-0.1351318359375|1.321487426757812|-0.916107177734375|18122.963527125|0.735297619390044|-0.1022364474351667|-0.6551055119466574|0.8677821159362793|0.07951884716749191|3.125483989715576|-0.10356305539608|0.4016070365905762|-0.07912194728851318|XArbitraryZVertical|-0.282446656487284|-0.1606310975500823|0.3552086090877698|0.876497928233413|-0.0809306800365448|0.6092429161071777|-0.7888430953025818|0|0|0|-1|-1|3
2021-04-08 19:40:19.167 +0100|18122.988478125|-0.140289306640625|1.305801391601562|-1.017166137695312|18122.983488125|0.8145422442606317|-0.05515859655129306|-0.6324347129192386|1.685814619064331|-0.1498820036649704|3.036554098129272|-0.07981465756893158|0.7880867719650269|-0.1209811568260193|XArbitraryZVertical|-0.2750477182383884|-0.147196244645442|0.3841964053320778|0.8689506529233472|-0.04446785524487495|0.5911103487014771|-0.8053640127182007|0|0|0|-1|-1|3
2021-04-08 19:40:19.187 +0100|18123.008439125|-0.2053985595703125|1.1395263671875|-1.068344116210938|18123.003449125|0.8890320321616031|-0.01554374335763375|-0.6039593788678282|1.19492506980896|-0.1583697646856308|2.917701244354248|-0.1461111903190613|0.6583371162414551|-0.2141146659851074|XArbitraryZVertical|-0.2653092513932553|-0.1345880632262083|0.4126367251042208|0.8609460425912495|-0.01279343944042921|0.5679058432579041|-0.8229941129684448|0|0|0|-1|-1|3
2021-04-08 19:40:19.207 +0100|18123.028400125|-0.1365509033203125|1.153396606445312|-1.006088256835938|18123.023409125|0.9570135950967535|0.02082050775029751|-0.5882993215006038|0.4590725302696228|-0.04888546094298363|2.763512134552002|-0.2217253148555756|0.5716102719306946|-0.2210893630981445|XArbitraryZVertical|-0.2619361501498119|-0.1246464865422416|0.4379741657836102|0.8509004463226869|0.01731903105974197|0.5549470782279968|-0.8317053914070129|0|0|0|-1|-1|3
2021-04-08 19:40:19.227 +0100|18123.048360125|-0.08648681640625|1.292526245117188|-0.9347686767578125|18123.043370125|1.021241456752611|0.05543414248927|-0.5791411213280421|0.446887880563736|0.01275185775011778|2.63279390335083|-0.1764973700046539|0.6544015407562256|-0.1597895622253418|XArbitraryZVertical|-0.262002025977484|-0.1163236975404834|0.4612880054872294|0.8396649993811695|0.04637090861797333|0.5473052859306335|-0.8356474637985229|0|0|0|-1|-1|3
2021-04-08 19:40:19.247 +0100|18123.068321125|0.0208740234375|1.361434936523438|-0.9302978515625|18123.063331125|1.08069540555864|0.08766047113382909|-0.5610168289167164|0.985224723815918|-0.04457582533359528|2.464283227920532|-0.1228644102811813|0.8138396739959717|-0.07355868816375732|XArbitraryZVertical|-0.258833729315558|-0.1061761996719867|0.4834506013455627|0.8294621080432139|0.07412837445735931|0.53204745054245|-0.8434634208679199|0|0|0|-1|-1|3
2021-04-08 19:40:19.267 +0100|18123.088282125|0.09844970703125|1.127853393554688|-0.89056396484375|18123.083292125|1.132203830962015|0.1134016087225441|-0.5358448267417539|0.9282699227333069|-0.1099590957164764|2.188783884048462|-0.05817398428916931|0.7763747572898865|-0.08312356472015381|XArbitraryZVertical|-0.2523818798681048|-0.09563463067069006|0.5037178262502234|0.8206252742975714|0.09729811549186707|0.5105676651000977|-0.8543148040771484|0|0|0|-1|-1|3
2021-04-08 19:40:19.287 +0100|18123.108243125|0.0703125|1.079849243164062|-0.857635498046875|18123.103252125|1.177923185980692|0.1331249526614812|-0.5173883921630522|0.4613253772258759|-0.1726625263690948|1.966035962104797|-0.01399454474449158|0.6148095726966858|0.001759588718414307|XArbitraryZVertical|-0.2479650935320593|-0.08832516405176928|0.5216758138614733|0.8115211563671513|0.1153593063354492|0.4946120381355286|-0.8614239692687988|0|0|0|-1|-1|3
2021-04-08 19:40:19.307 +0100|18123.128203125|0.0242462158203125|1.022247314453125|-0.8033905029296875|18123.123213125|1.21754958866485|0.149614335793811|-0.5054997480824922|0.2103796899318695|-0.1358450204133987|1.651271104812622|-0.07166765630245209|0.5950406789779663|0.01753324270248413|XArbitraryZVertical|-0.2459505247014893|-0.08324144241706986|0.5368134355421936|0.8027518903825502|0.1304146349430084|0.4842447340488434|-0.8651583790779114|0|0|0|-1|-1|3
2021-04-08 19:40:19.327 +0100|18123.14816329167|0.0096588134765625|0.8780517578125|-0.7611846923828125|18123.14317329167|1.252170796676814|0.1640172404955544|-0.500348258646965|-0.1964193135499954|-0.1211755275726318|1.449832439422607|-0.129548579454422|0.4955351650714874|0.08779329061508179|XArbitraryZVertical|-0.2464477289712206|-0.08027138121985389|0.5493934886734976|0.7943469159498229|0.1432669013738632|0.4797311425209045|-0.8656400442123413|0|0|0|-1|-1|3
2021-04-08 19:40:19.347 +0100|18123.16812429167|-0.0026702880859375|0.9086761474609375|-0.7308197021484375|18123.16313429167|1.284799991149932|0.176565884184436|-0.500890393370506|-0.2643049359321594|-0.1712448745965958|1.366891384124756|-0.1443211734294891|0.3942599892616272|0.09639811515808105|XArbitraryZVertical|-0.2488343723775742|-0.07951397102032449|0.5606717135339401|0.7857521242979879|0.1540722399950027|0.4802067279815674|-0.8635179400444031|0|0|0|-1|-1|3
2021-04-08 19:40:19.367 +0100|18123.18808529167|-0.00970458984375|0.746002197265625|-0.7217864990234375|18123.18309429167|1.315835159370793|0.1869178910329593|-0.4999748058830887|-0.1602564454078674|-0.2710548639297485|1.348947644233704|-0.1616342961788177|0.4119089841842651|0.1246685981750488|XArbitraryZVertical|-0.2501891043982862|-0.07906451092872818|0.571609363371832|0.777442726683543|0.1630846112966537|0.4794034361839294|-0.8623084425926208|0|0|0|-1|-1|3
2021-04-08 19:40:19.387 +0100|18123.20804529167|0.0619659423828125|0.580718994140625|-0.7663116455078125|18123.20305529167|1.3461854781231|0.1955862340499079|-0.4965887794981524|-0.02700228802859783|-0.3309658765792847|1.311493396759033|-0.1736287474632263|0.2161985635757446|0.1272055506706238|XArbitraryZVertical|-0.250235129830688|-0.07846973924902012|0.5826406547790193|0.769256113507225|0.1708676666021347|0.4764291346073151|-0.8624497652053833|0|0|0|-1|-1|3
2021-04-08 19:40:19.407 +0100|18123.22800629167|0.100433349609375|0.5393218994140625|-0.819854736328125|18123.22301629167|1.37477322356245|0.2014289166609839|-0.4892931749451658|0.3363471031188965|-0.4328199625015259|1.326366543769836|-0.1002844870090485|0.09907510876655579|0.1040776968002319|XArbitraryZVertical|-0.2481573892270215|-0.07751297749731521|0.5936829826330741|0.7615446098940454|0.1765944510698318|0.4700021147727966|-0.8648192882537842|0|0|0|-1|-1|3
