loggingTime(txt)|accelerometerTimestamp_sinceReboot(s)|accelerometerAccelerationX(G)|accelerometerAccelerationY(G)|accelerometerAccelerationZ(G)|motionTimestamp_sinceReboot(s)|motionYaw(rad)|motionRoll(rad)|motionPitch(rad)|motionRotationRateX(rad/s)|motionRotationRateY(rad/s)|motionRotationRateZ(rad/s)|motionUserAccelerationX(G)|motionUserAccelerationY(G)|motionUserAccelerationZ(G)|motionAttitudeReferenceFrame(txt)|motionQuaternionX(R)|motionQuaternionY(R)|motionQuaternionZ(R)|motionQuaternionW(R)|motionGravityX(G)|motionGravityY(G)|motionGravityZ(G)|motionMagneticFieldX(µT)|motionMagneticFieldY(µT)|motionMagneticFieldZ(µT)|motionHeading(°)|motionMagneticFieldCalibrationAccuracy(Z)|label
2021-04-22 21:03:37.317 +0100|138388.0524545|0.3072967529296875|0.27655029296875|-0.9340057373046875|138388.0324935|0.9618773816990214|0.229224114018851|-0.2339570954445841|-0.04443551227450371|0.0387861430644989|0.1733388155698776|0.06288900971412659|-0.008561000227928162|0.004960298538208008|XArbitraryZVertical|-0.1553366979477804|0.04705730614940891|0.4446024310718167|0.8809000335294612|0.2210317105054855|0.2318286150693893|-0.9473122358322144|0|0|0|-1|-1|3
2021-04-22 21:03:37.326 +0100|138388.0724165|0.30169677734375|0.227752685546875|-0.90863037109375|138388.0524545|0.9654949619020183|0.2315084640857967|-0.2321378708796985|0.2037200927734375|-0.02465808019042015|0.2276743203401566|0.06218558549880981|0.07746806740760803|-0.0006771087646484375|XArbitraryZVertical|-0.1551419024121166|0.04820885779884821|0.4461584240194841|0.8800850891678971|0.2232915312051773|0.2300585806369781|-0.9472137689590454|0|0|0|-1|-1|3
2021-04-22 21:03:37.327 +0100|138388.0923785|0.2765350341796875|0.1884765625|-0.87835693359375|138388.0724165|0.9693257560692643|0.232418821531872|-0.2271056301993546|0.2262921780347824|-0.05617935955524445|0.2475508004426956|0.08143004775047302|0.02670416235923767|0.03567999601364136|XArbitraryZVertical|-0.1532565877274868|0.04949809919535915|0.4481624367838943|0.8793253309170436|0.2244175523519516|0.2251584231853485|-0.9481247067451477|0|0|0|-1|-1|3
2021-04-22 21:03:37.342 +0100|138388.1123395|0.32257080078125|0.2621002197265625|-0.9223175048828125|138388.0923785|0.9750382266477915|0.2336278355495428|-0.2254215527808796|-0.2095896452665329|-0.009598171338438988|0.2932847440242767|0.06776054203510284|-0.02184084057807922|0.05924350023269653|XArbitraryZVertical|-0.1529407969868605|0.04998996815371578|0.4507097359122905|0.878049563764096|0.2256511449813843|0.2235172688961029|-0.9482202529907227|0|0|0|-1|-1|3
2021-04-22 21:03:37.362 +0100|138388.1323015|0.3361053466796875|0.272003173828125|-0.924102783203125|138388.1123395|0.9816714815405242|0.23614338722481|-0.2291639196147303|-0.2287914007902145|-0.02297144755721092|0.2544271051883698|0.05098587274551392|-0.001408591866493225|0.04338765144348145|XArbitraryZVertical|-0.1552926266805877|0.04969264249543156|0.4531340333491772|0.8764042486611424|0.2278384417295456|0.2271633744239807|-0.9468296766281128|0|0|0|-1|-1|3
2021-04-22 21:03:37.382 +0100|138388.1522625|0.3046417236328125|0.26434326171875|-0.9288787841796875|138388.1323015|0.9885651926380178|0.2370679907959975|-0.2328619998672585|-0.1393342763185501|-0.1223759055137634|0.3062604665756226|0.1226970851421356|0.03301647305488586|0.02520269155502319|XArbitraryZVertical|-0.1572674133056077|0.04867410797528419|0.455788643066245|0.8747312129320511|0.2285149246454239|0.2307632118463516|-0.9457955956459045|0|0|0|-1|-1|3
2021-04-22 21:03:37.402 +0100|138388.1722245|0.312225341796875|0.2742919921875|-0.93035888671875|138388.1522625|0.9955995624333167|0.2375028910456104|-0.2341740664723415|-0.09938108921051025|-0.145529642701149|0.3086845874786377|0.08712467551231384|0.04486255347728729|0.01756018400192261|XArbitraryZVertical|-0.158101552373913|0.04799364335356312|0.4587241105139633|0.8730823719136043|0.2288547903299332|0.232039675116539|-0.9454010128974915|0|0|0|-1|-1|3
2021-04-22 21:03:37.422 +0100|138388.1921865|0.3209228515625|0.2565765380859375|-0.930389404296875|138388.1722245|1.0027686749753|0.2377500711541276|-0.2343545092358181|-0.07572439312934875|-0.1593394130468369|0.3270955979824066|0.07792870700359344|0.03830885887145996|0.01593703031539917|XArbitraryZVertical|-0.1584070612685465|0.04749045695931033|0.4618168446797473|0.8714225609088331|0.2290786057710648|0.2322151809930801|-0.945303738117218|0|0|0|-1|-1|3
2021-04-22 21:03:37.442 +0100|138388.2121475|0.3086700439453125|0.25042724609375|-0.922698974609375|138388.1921865|1.010230951140775|0.2372460274678483|-0.2334754956267054|-0.04408825188875198|-0.1895207464694977|0.3793769180774689|0.08534584939479828|0.04046092927455902|0.0141141414642334|XArbitraryZVertical|-0.1580895657457846|0.0468949625700491|0.4651748190199774|0.869724776898526|0.2286499887704849|0.2313601076602936|-0.9456170797348022|0|0|0|-1|-1|3
2021-04-22 21:03:37.462 +0100|138388.2321085|0.3965606689453125|0.2620391845703125|-0.938720703125|138388.2121475|1.019509801655427|0.2374915840158547|-0.233094347092997|-0.06605616956949234|-0.2100247889757156|0.4557548761367798|0.0888313353061676|0.01496811211109161|0.01949948072433472|XArbitraryZVertical|-0.1582002711865865|0.04636153489520385|0.4692157044655166|0.8675598578923334|0.2289029210805893|0.2309892922639847|-0.9456465840339661|0|0|0|-1|-1|3
2021-04-22 21:03:37.482 +0100|138388.2520695|0.2737579345703125|0.1637115478515625|-0.910614013671875|138388.2321085|1.026054137015983|0.2357365858942968|-0.2322923354216734|0.02899286523461342|-0.3560839593410492|0.3033787608146667|0.09331676363945007|0.04188680648803711|0.02029317617416382|XArbitraryZVertical|-0.157594920599746|0.04528258136143469|0.4722542619501008|0.8660770144105681|0.2272861450910568|0.2302088886499405|-0.9462266564369202|0|0|0|-1|-1|3
2021-04-22 21:03:37.501 +0100|138388.2720315|0.2973480224609375|0.122955322265625|-0.882080078125|138388.2520695|1.035952025119173|0.231795824836432|-0.2311395966194281|-0.1003135070204735|-0.3749914169311523|0.5819458961486816|0.1250322163105011|-0.03154569864273071|0.02879387140274048|XArbitraryZVertical|-0.1563875714454961|0.04308839647672845|0.476934943472727|0.8638400212076408|0.223616361618042|0.2290869653224945|-0.9473726153373718|0|0|0|-1|-1|3
2021-04-22 21:03:37.521 +0100|138388.2919935|0.3695831298828125|0.132537841796875|-0.8471527099609375|138388.2720315|1.049645141599927|0.2301422161603576|-0.2348600586117038|-0.5005170702934265|-0.3077638149261475|0.6513898968696594|0.03095462918281555|-0.08274252712726593|0.04984086751937866|XArbitraryZVertical|-0.1578555814100241|0.04036402587295493|0.482676208526371|0.860509320410481|0.2218535095453262|0.2327068895101547|-0.946904718875885|0|0|0|-1|-1|3
2021-04-22 21:03:37.541 +0100|138388.3119545|0.3759918212890625|0.1753387451171875|-0.8079681396484375|138388.2919935|1.067198315725717|0.2286860413269885|-0.2445376380937032|-0.7538526654243469|-0.4412491619586945|0.7553370594978333|0.1255517303943634|-0.1468156427145004|0.07172888517379761|XArbitraryZVertical|-0.1619224538109296|0.03586922126279092|0.4895606691341593|0.8560519487436783|0.2199535667896271|0.2421077489852905|-0.944989025592804|0|0|0|-1|-1|3
2021-04-22 21:03:37.562 +0100|138388.3319165|0.3800201416015625|0.1394805908203125|-0.7711944580078125|138388.3119545|1.087613842464036|0.2256299597582797|-0.2564491201969079|-0.8048508763313293|-0.553613543510437|0.8482379913330078|0.1619992405176163|-0.09942588210105896|0.1120756864547729|XArbitraryZVertical|-0.1664997649646263|0.02980452170178048|0.4975690197647905|0.8507730238344786|0.2164040207862854|0.2536474168300629|-0.9427790641784668|0|0|0|-1|-1|3
2021-04-22 21:03:37.582 +0100|138388.3518775|0.4008331298828125|0.0187835693359375|-0.692657470703125|138388.3319165|1.10878007700288|0.219548498546597|-0.2678967428738265|-0.8066844344139099|-0.6101105809211731|0.9057825803756714|0.1605245918035507|-0.08345898985862732|0.1582233309745789|XArbitraryZVertical|-0.1700173845470467|0.02243085218367522|0.5061296332160157|0.8452360002822998|0.2100203931331635|0.264703780412674|-0.9411818981170654|0|0|0|-1|-1|3
2021-04-22 21:03:37.601 +0100|138388.3718395|0.4022216796875|-0.0003509521484375|-0.6243133544921875|138388.3518775|1.132632133047399|0.2128764410542257|-0.2831389322100429|-1.240024566650391|-0.6948813796043396|1.025569796562195|0.1942046880722046|-0.2036559581756592|0.1917597651481628|XArbitraryZVertical|-0.1748245498860059|0.01348109138250177|0.5155037727136969|0.8387554183833532|0.202860102057457|0.2793709635734558|-0.9385092854499817|0|0|0|-1|-1|3
2021-04-22 21:03:37.621 +0100|138388.3918015|0.4216156005859375|0.069183349609375|-0.584228515625|138388.3718395|1.162047358306328|0.2072221567418834|-0.3090239352097384|-1.839931011199951|-0.7353920936584473|1.206499338150024|0.2008547484874725|-0.3026174604892731|0.2784728407859802|XArbitraryZVertical|-0.1840455722798209|0.001405364019824338|0.5261274252782026|0.8302502182770717|0.1959964483976364|0.3041289448738098|-0.9322504997253418|0|0|0|-1|-1|3
2021-04-22 21:03:37.641 +0100|138388.4117625|0.4030303955078125|0.098968505859375|-0.5460357666015625|138388.3918015|1.198768563935641|0.2036266856565031|-0.3430476341222622|-2.175305128097534|-0.8215216994285583|1.496057033538818|0.2250425070524216|-0.3325583934783936|0.3384917974472046|XArbitraryZVertical|-0.1966969138300143|-0.01310110895457882|0.5386536081991029|0.8191404347971675|0.1904397159814835|0.3363586962223053|-0.9222773909568787|0|0|0|-1|-1|3
2021-04-22 21:03:37.661 +0100|138388.4317245|0.3399200439453125|0.111846923828125|-0.5112152099609375|138388.4117625|1.241689628566008|0.2008883063020354|-0.3802887326374313|-2.342983484268188|-0.9544315934181213|1.692902803421021|0.235904797911644|-0.2702203392982483|0.3382291793823242|XArbitraryZVertical|-0.2102369721615934|-0.02929908124663627|0.5529435084077144|0.8057267775002093|0.1852842271327972|0.3711885809898376|-0.909883975982666|0|0|0|-1|-1|3
2021-04-22 21:03:37.681 +0100|138388.4516865|0.236236572265625|0.3241729736328125|-0.4720611572265625|138388.4317245|1.289755797060057|0.2001808972370601|-0.4251407405245939|-2.96670389175415|-0.9859011173248291|1.717330932617188|0.1884231865406036|-0.3134643137454987|0.3839089274406433|XArbitraryZVertical|-0.2264723010937162|-0.04812268194522697|0.5677829779559902|0.7899476374736832|0.1811454445123672|0.4124490022659302|-0.8927890062332153|0|0|0|-1|-1|3
2021-04-22 21:03:37.701 +0100|138388.4716475|0.057891845703125|0.5191650390625|-0.649169921875|138388.4516865|1.340730391948041|0.2021384685018076|-0.4833077633287646|-3.673838138580322|-1.055841207504272|1.593025088310242|0.1306264698505402|-0.288516640663147|0.3812897205352783|XArbitraryZVertical|-0.2474274309806443|-0.07115188219720266|0.5812215172322334|0.7719447311821873|0.1777696460485458|0.4647106230258942|-0.8674341440200806|0|0|0|-1|-1|3
2021-04-22 21:03:37.722 +0100|138388.4916095|-0.09161376953125|0.720947265625|-0.7547607421875|138388.4716475|1.391056242968006|0.2061679588228448|-0.552533649884668|-3.972017288208008|-1.049004197120667|1.287735104560852|-0.038612961769104|-0.0823095440864563|0.2601280808448792|XArbitraryZVertical|-0.2717329850872341|-0.09785463482928196|0.5916715748806142|0.7526689034167381|0.1742490828037262|0.5248455405235291|-0.8331713080406189|0|0|0|-1|-1|3
2021-04-22 21:03:37.754 +0100|138388.5115705|-0.202423095703125|1.032196044921875|-0.745391845703125|138388.4916095|1.438527667567212|0.2116499363070542|-0.6262491674709255|-3.938191413879395|-1.01701807975769|1.053549885749817|-0.1772720515727997|0.0157431960105896|0.06266027688980103|XArbitraryZVertical|-0.2966408261975398|-0.1262073839400538|0.5988123186231223|0.7331438124920399|0.1702080368995667|0.5861098170280457|-0.7921518087387085|0|0|0|-1|-1|3
2021-04-22 21:03:37.768 +0100|138388.5315325|-0.136077880859375|0.899169921875|-0.712738037109375|138388.5115705|1.478771083555295|0.2188932207120642|-0.6908745033323894|-2.934472322463989|-0.6912083029747009|0.6414200067520142|-0.3342697620391846|0.2423057556152344|0.004909157752990723|XArbitraryZVertical|-0.3179485883449251|-0.1508611651224076|0.6029073695294075|0.7159974854146379|0.1673546582460403|0.6372113823890686|-0.7522991895675659|0|0|0|-1|-1|3
2021-04-22 21:03:37.781 +0100|138388.5514945|-0.1183624267578125|0.953948974609375|-0.472015380859375|138388.5315325|1.5034709755122|0.2236046494047264|-0.7295743837567168|-1.218535661697388|-0.470808207988739|0.4150798916816711|-0.359332263469696|0.3892495632171631|-0.07233977317810059|XArbitraryZVertical|-0.3301591094238867|-0.1659672562524527|0.6049130433604702|0.7053582452096016|0.1653023511171341|0.6665524244308472|-0.7268996834754944|0|0|0|-1|-1|3
2021-04-22 21:03:37.801 +0100|138388.5714555|-0.046844482421875|1.21588134765625|-0.74090576171875|138388.5514945|1.516214118559102|0.2265481766301974|-0.7476189910642902|-0.9378910064697266|-0.02244483307003975|-0.09463290125131607|-0.2523429393768311|0.1787179112434387|0.2195165157318115|XArbitraryZVertical|-0.335808954833639|-0.1730501538752833|0.605994588154247|0.7000405312873846|0.1647125780582428|0.6798946857452393|-0.7145719528198242|0|0|0|-1|-1|3
2021-04-22 21:03:37.821 +0100|138388.5914175|-0.130706787109375|1.2279052734375|-1.223709106445312|138388.5714555|1.510416445004763|0.2257194733904408|-0.7640516835878006|-0.4473446607589722|0.1702719926834106|-0.5599794983863831|-0.2479464560747147|0.2927823662757874|0.1189306974411011|XArbitraryZVertical|-0.3413498886304038|-0.1778164593330611|0.6014109928863862|0.7001189362269368|0.161597803235054|0.6918525695800781|-0.703723132610321|0|0|0|-1|-1|3
2021-04-22 21:03:37.841 +0100|138388.6113785|0.0962371826171875|0.5029449462890625|-1.175033569335938|138388.5914175|1.490531418449417|0.2129360097267457|-0.7561063110089915|1.76820707321167|-0.1100470125675201|-0.5045669674873352|-0.2831394076347351|0.8031796813011169|-0.2220228910446167|XArbitraryZVertical|-0.3367048692939904|-0.1763203410071116|0.5978831624426879|0.7057456857932881|0.153745710849762|0.6860939264297485|-0.7110819220542908|0|0|0|-1|-1|3
2021-04-22 21:03:37.861 +0100|138388.6313405|-0.1251373291015625|0.2220001220703125|-0.3896484375|138388.6113785|1.476787774349088|0.1923171464785007|-0.7189235279699954|1.741481900215149|-0.8953323364257812|0.2501738369464874|-0.1090249866247177|0.1468607187271118|-0.6075184941291809|XArbitraryZVertical|-0.3194445471628235|-0.1692167726468966|0.6021925183285023|0.7118181345641004|0.1438311040401459|0.6585749983787537|-0.7386417388916016|0|0|0|-1|-1|3
2021-04-22 21:03:37.881 +0100|138388.6513025|0.0934600830078125|1.010238647460938|-0.4540252685546875|138388.6313405|1.485841045576994|0.1830382263856368|-0.6956640951235742|-0.03015173226594925|-0.3264860510826111|0.4895615577697754|-0.1799739301204681|-0.4864758849143982|0.357650101184845|XArbitraryZVertical|-0.3081105719231113|-0.1663287790211652|0.6103278152851971|0.7105650345401137|0.13972207903862|0.6408953666687012|-0.7548052072525024|0|0|0|-1|-1|3
2021-04-22 21:03:37.901 +0100|138388.6712635|0.197479248046875|1.42193603515625|-0.69964599609375|138388.6513025|1.492175359957336|0.1860900162752866|-0.7121631329815792|-1.088360786437988|0.09882263094186783|-0.2612819671630859|-0.1628908812999725|-0.08190840482711792|0.3878183364868164|XArbitraryZVertical|-0.3139993174379194|-0.1716498586472675|0.609654816555923|0.707291913514325|0.1400492787361145|0.6534726619720459|-0.7438815236091614|0|0|0|-1|-1|3
2021-04-22 21:03:37.921 +0100|138388.6912255|0.2156829833984375|0.9912109375|-0.806671142578125|138388.6712635|1.484468592775748|0.1817584891178151|-0.7230420949304379|0.3153758943080902|-0.1308244168758392|-0.3856738805770874|0.009975910186767578|0.7190844416618347|0.1677285432815552|XArbitraryZVertical|-0.3169639473981667|-0.1755312235783862|0.605978479487165|0.708175799661276|0.1355327367782593|0.6616686582565308|-0.7374452948570251|0|0|0|-1|-1|3
2021-04-22 21:03:37.941 +0100|138388.7111875|0.19061279296875|0.7172698974609375|-0.8723602294921875|138388.6912255|1.473782550758796|0.1680915740721899|-0.7089831516424736|0.9270855188369751|-0.5247923135757446|-0.1728171855211258|0.09283332526683807|0.5858004689216614|0.005803942680358887|XArbitraryZVertical|-0.3090553631408972|-0.1741307052608058|0.606402992664693|0.7116452034586495|0.1269856244325638|0.6510623097419739|-0.7483265399932861|0|0|0|-1|-1|3
2021-04-22 21:03:37.961 +0100|138388.7311485|0.1068572998046875|0.75567626953125|-0.7868194580078125|138388.7111875|1.470052361475573|0.1510285366583231|-0.6963646215638242|0.26649209856987|-0.9235843420028687|0.118074044585228|0.09716033935546875|0.1732038855552673|-0.1014622449874878|XArbitraryZVertical|-0.2999341867175566|-0.1755458851920888|0.6094755738835813|0.7125748018699266|0.1154259741306305|0.6414329409599304|-0.7584462761878967|0|0|0|-1|-1|3
2021-04-22 21:03:37.981 +0100|138388.7511105|0.0626678466796875|0.930816650390625|-0.7085723876953125|138388.7311485|1.47700326061629|0.1353428583299597|-0.6991653914897217|-0.5796390175819397|-1.058876991271973|0.3368445634841919|0.03938256949186325|0.05048269033432007|-0.0833396315574646|XArbitraryZVertical|-0.2954628580000054|-0.1830615396642481|0.6138897656989084|0.7087522110064122|0.1032727062702179|0.6435791254043579|-0.7583803534507751|0|0|0|-1|-1|3
2021-04-22 21:03:38.001 +0100|138388.7710715|0.027923583984375|0.9129791259765625|-0.6491851806640625|138388.7511105|1.488987790663397|0.1217329128456273|-0.713093528340094|-0.8034586906433105|-1.068701386451721|0.3851971030235291|-0.008164413273334503|0.2011247277259827|-0.003222048282623291|XArbitraryZVertical|-0.2948450188411201|-0.1941496575237522|0.6181935789911505|0.702288477822282|0.09184446185827255|0.654176652431488|-0.750744640827179|0|0|0|-1|-1|3
2021-04-22 21:03:38.021 +0100|138388.7910335|0.0084686279296875|0.7801971435546875|-0.6352081298828125|138388.7710715|1.502400471762057|0.1099816319719094|-0.7258353581468888|-0.5930194854736328|-0.9877532720565796|0.4769593179225922|-0.04033032059669495|0.2852604389190674|0.06401395797729492|XArbitraryZVertical|-0.2941389814083701|-0.2043749812469404|0.6228354641565651|0.6955496033406158|0.08209450542926788|0.6637604832649231|-0.7434262633323669|0|0|0|-1|-1|3
2021-04-22 21:03:38.041 +0100|138388.8109955|-0.0095977783203125|0.7193603515625|-0.6396484375|138388.7910335|1.518057440771788|0.1016077360227788|-0.736477900373855|-0.641692578792572|-0.8976754546165466|0.5593537092208862|-0.05733758956193924|0.1630955338478088|0.09575265645980835|XArbitraryZVertical|-0.2934313348408569|-0.2130471266833429|0.6279901228541046|0.6885764135278789|0.07514550536870956|0.6716827750205994|-0.7370179295539856|0|0|0|-1|-1|3
2021-04-22 21:03:38.061 +0100|138388.8309565|-0.0592041015625|0.6949462890625|-0.6300506591796875|138388.8109955|1.535631660908867|0.09622968106999344|-0.7495148569682438|-0.7739542126655579|-0.8383408188819885|0.5976700186729431|-0.07088175415992737|0.05902749300003052|0.08449888229370117|XArbitraryZVertical|-0.2941275854374593|-0.2217487885143956|0.6329462851295824|0.6809520460728967|0.0703333392739296|0.681283712387085|-0.7286328673362732|0|0|0|-1|-1|3
2021-04-22 21:03:38.081 +0100|138388.8509185|-0.1146392822265625|0.693267822265625|-0.6221771240234375|138388.8309565|1.553712543697133|0.09236273749508966|-0.7638921743955308|-0.7517692446708679|-0.7922989130020142|0.5709319710731506|-0.09861689805984497|0.02028393745422363|0.08076596260070801|XArbitraryZVertical|-0.2955474955049462|-0.2304693292742621|0.6375605503913794|0.6730916504512359|0.06660488247871399|0.6917374134063721|-0.7190711498260498|0|0|0|-1|-1|3
2021-04-22 21:03:38.101 +0100|138388.8708795|-0.126190185546875|0.6942138671875|-0.6626739501953125|138388.8509185|1.570461016215624|0.0889942179443589|-0.7767015035609081|-0.6321055293083191|-0.7133321762084961|0.4925525784492493|-0.1528356373310089|-0.01472717523574829|0.0952189564704895|XArbitraryZVertical|-0.2966413551305791|-0.238328427907929|0.6417821513034427|0.6658221832923188|0.06338954716920853|0.700930655002594|-0.7104069590568542|0|0|0|-1|-1|3
2021-04-22 21:03:38.121 +0100|138388.8908415|-0.1454010009765625|0.663848876953125|-0.69219970703125|138388.8708795|1.584002465405842|0.08446591323994962|-0.7873702247631921|-0.5535126924514771|-0.7152824401855469|0.3817059397697449|-0.1842315495014191|-0.01123380661010742|0.05571943521499634|XArbitraryZVertical|-0.2969568532544604|-0.2453957537882736|0.6453497907684513|0.659637355141758|0.05953767523169518|0.7084998488426208|-0.7031950950622559|0|0|0|-1|-1|3
2021-04-22 21:03:38.141 +0100|138388.9108035|-0.18341064453125|0.69921875|-0.687042236328125|138388.8908415|1.594098201903377|0.07670460856874861|-0.798606839559679|-0.6562157273292542|-0.7814546227455139|0.2339463233947754|-0.1894043684005737|-0.03515565395355225|0.01596701145172119|XArbitraryZVertical|-0.2967542834262299|-0.2531992919416647|0.6481242829084843|0.6540352969868761|0.05346476659178734|0.7163847684860229|-0.695654034614563|0|0|0|-1|-1|3
2021-04-22 21:03:38.161 +0100|138388.9307645|-0.1933746337890625|0.7231903076171875|-0.6642608642578125|138388.9108035|1.600639618340532|0.06530501689407496|-0.8120620583198909|-0.6661431789398193|-0.8259440660476685|0.124821700155735|-0.2075711488723755|-0.05512893199920654|-0.007798492908477783|XArbitraryZVertical|-0.2964602235915723|-0.2623792343551898|0.6499045765370947|0.6487623945407401|0.04489815235137939|0.7257074117660522|-0.686536967754364|0|0|0|-1|-1|3
2021-04-22 21:03:38.181 +0100|138388.9507265|-0.2127685546875|0.7484893798828125|-0.6751556396484375|138388.9307645|1.604544747913026|0.05115725086490961|-0.8218559596997473|-0.2840641736984253|-0.884452223777771|0.1094525009393692|-0.2275639772415161|-0.01440799236297607|0.0003616213798522949|XArbitraryZVertical|-0.2944205971664258|-0.2707957567530472|0.6517694062202732|0.644346844785483|0.03481589257717133|0.732410728931427|-0.6799723505973816|0|0|0|-1|-1|3
2021-04-22 21:03:38.201 +0100|138388.9706885|-0.2435150146484375|0.728851318359375|-0.7008819580078125|138388.9507265|1.608339584220572|0.03536730747468027|-0.8228177188673724|0.1584582328796387|-0.9821914434432983|0.1393908709287643|-0.2260605096817017|0.002973437309265137|0.0200655460357666|XArbitraryZVertical|-0.2890450960390009|-0.276742495691611|0.6551470187723699|0.6408190197802442|0.02405035682022572|0.7330652475357056|-0.6797330379486084|0|0|0|-1|-1|3
2021-04-22 21:03:38.221 +0100|138388.9906495|-0.2795257568359375|0.7313995361328125|-0.7733612060546875|138388.9706885|1.613050862109758|0.01842581467363118|-0.8170361706179002|0.3397881984710693|-1.049173712730408|0.2027198672294617|-0.238560825586319|-0.0002383589744567871|-0.003337264060974121|XArbitraryZVertical|-0.2809928148917219|-0.280906615996888|0.6599226657761007|0.63768062636446|0.0126096410676837|0.7291206121444702|-0.6842690110206604|0|0|0|-1|-1|3
2021-04-22 21:03:38.256 +0100|138389.0106115|-0.282196044921875|0.7836151123046875|-0.880157470703125|138388.9906495|1.619499483082001|0.001949611483634154|-0.8108757744007662|0.2329331338405609|-1.065680980682373|0.2467239052057266|-0.2687675654888153|-0.004980623722076416|-0.04891467094421387|XArbitraryZVertical|-0.2726727911413526|-0.2849881485429014|0.6651449804713562|0.6340454197339026|0.001343016163446009|0.7248907685279846|-0.6888626217842102|0|0|0|-1|-1|3
2021-04-22 21:03:38.273 +0100|138389.0305725|-0.2695159912109375|0.8274993896484375|-0.9578094482421875|138389.0106115|1.625002476318764|-0.01659510926097497|-0.8079783368592847|0.0593813955783844|-1.057597756385803|0.2746170461177826|-0.275108277797699|0.02851247787475586|-0.1372278928756714|XArbitraryZVertical|-0.2647732180234175|-0.2906235229410286|0.6697859029101958|0.6299366051407544|-0.01146605331450701|0.7228917479515076|-0.690866231918335|0|0|0|-1|-1|3
2021-04-22 21:03:38.283 +0100|138389.0505345|-0.276611328125|0.799224853515625|-0.9824981689453125|138389.0305725|1.631487040640149|-0.03426097849969145|-0.8078817607343491|-0.01221790537238121|-1.057847023010254|0.3100824356079102|-0.2548011243343353|0.0928187370300293|-0.2388936281204224|XArbitraryZVertical|-0.2578544846712014|-0.2969818908042291|0.6741422602552778|0.6251761377367974|-0.02367077209055424|0.7228250503540039|-0.6906256675720215|0|0|0|-1|-1|3
2021-04-22 21:03:38.301 +0100|138389.0704965|-0.27569580078125|0.7742919921875|-0.99334716796875|138389.0505345|1.64077414925939|-0.04829689235817876|-0.808952951803382|-0.06885739415884018|-1.006798028945923|0.3298867046833038|-0.2349852621555328|0.1045453548431396|-0.302567720413208|XArbitraryZVertical|-0.2520543899861902|-0.3028907119181513|0.67867533257026|0.6197787908391866|-0.03332428261637688|0.7235648632049561|-0.6894515752792358|0|0|0|-1|-1|3
2021-04-22 21:03:38.320 +0100|138389.0904575|-0.2192230224609375|0.7841644287109375|-1.043869018554688|138389.0704965|1.649233610303595|-0.06086077787117736|-0.8117311840309136|-0.1480326801538467|-0.8691799640655518|0.2458111494779587|-0.2447283565998077|0.05171185731887817|-0.3027306199073792|XArbitraryZVertical|-0.2473647158751048|-0.3087490995234519|0.6824771189619357|0.6145810735003812|-0.04186118766665459|0.7254797220230103|-0.6869693994522095|0|0|0|-1|-1|3
2021-04-22 21:03:38.340 +0100|138389.1104195|-0.1880340576171875|0.741943359375|-1.065093994140625|138389.0904575|1.6535518468689|-0.07463132120109708|-0.8140556277323221|-0.05303547531366348|-0.8498634099960327|0.05319873243570328|-0.1960003674030304|0.05884206295013428|-0.3366719484329224|XArbitraryZVertical|-0.2427186344607637|-0.3142698285090837|0.685173978084674|0.6106217237382499|-0.05119098350405693|0.7270775437355042|-0.6846442818641663|0|0|0|-1|-1|3
2021-04-22 21:03:38.360 +0100|138389.1303805|-0.1815185546875|0.7525482177734375|-1.052688598632812|138389.1104195|1.651978316388027|-0.09320819942584607|-0.8140899728359222|0.02905348315834999|-0.9031790494918823|-0.1511686146259308|-0.1353963613510132|0.03727304935455322|-0.3713046312332153|XArbitraryZVertical|-0.236606607700699|-0.3197532175969928|0.6869160606181204|0.6082118755631003|-0.06389764696359634|0.7271011471748352|-0.6835503578186035|0|0|0|-1|-1|3
2021-04-22 21:03:38.380 +0100|138389.1503425|-0.2088623046875|0.810943603515625|-1.012008666992188|138389.1303805|1.646013237596808|-0.1167566231468952|-0.8137169027192397|-0.02110986784100533|-1.027499079704285|-0.2464833408594131|-0.09589573740959167|0.004524469375610352|-0.3831053972244263|XArbitraryZVertical|-0.2293569950420084|-0.3260867264147575|0.687895754594693|0.6065165233294397|-0.08000656962394714|0.7268449664115906|-0.6821256279945374|0|0|0|-1|-1|3
2021-04-22 21:03:38.400 +0100|138389.1703045|-0.2478179931640625|0.811492919921875|-0.93853759765625|138389.1503425|1.637828952608502|-0.1437069619016488|-0.8126298141504589|0.04713905975222588|-1.072730660438538|-0.3291992545127869|-0.1037975773215294|0.06304126977920532|-0.3470229506492615|XArbitraryZVertical|-0.2210814416295201|-0.332973257383677|0.688586430836105|0.6050625162314404|-0.09847190976142883|0.7260979413986206|-0.6805036067962646|0|0|0|-1|-1|3
2021-04-22 21:03:38.420 +0100|138389.1902655|-0.20074462890625|0.787139892578125|-0.9349517822265625|138389.1703045|1.627469509767841|-0.1725074535044306|-0.8086507982053879|0.2553609311580658|-1.030951499938965|-0.4272164404392242|-0.1149362549185753|0.1016258597373962|-0.3073828816413879|XArbitraryZVertical|-0.2116097537158054|-0.3392756698642058|0.6890403137297074|0.6044310585945132|-0.1185222044587135|0.7233562469482422|-0.6802266836166382|0|0|0|-1|-1|3
2021-04-22 21:03:38.440 +0100|138389.2102275|-0.24462890625|0.7059173583984375|-0.8705902099609375|138389.1902655|1.615107407274447|-0.2016510519191513|-0.8001477055776912|0.4149811267852783|-1.027549386024475|-0.598873496055603|-0.08344018459320068|0.08597773313522339|-0.2711120843887329|XArbitraryZVertical|-0.2008827763120887|-0.3440977175494889|0.6892565779721697|0.6051184786265257|-0.1395202279090881|0.717458963394165|-0.6824857592582703|0|0|0|-1|-1|3
2021-04-22 21:03:38.460 +0100|138389.2301894167|-0.28411865234375|0.6467132568359375|-0.8141632080078125|138389.2102275|1.59911986138331|-0.233695874371595|-0.7882217206437667|0.4646715521812439|-1.013818740844727|-0.7500656247138977|-0.04870441555976868|0.02693819999694824|-0.2263057827949524|XArbitraryZVertical|-0.1886360529610463|-0.3484911493894982|0.688767505975312|0.6070996320200808|-0.1632849276065826|0.7091005444526672|-0.6859407424926758|0|0|0|-1|-1|3
2021-04-22 21:03:38.480 +0100|138389.2501504167|-0.2809600830078125|0.61474609375|-0.771026611328125|138389.2301894167|1.580020217426542|-0.266220939240596|-0.775382238309116|0.4224370121955872|-0.8914695978164673|-0.8870217204093933|-0.0878252387046814|-0.02628254890441895|-0.1550596356391907|XArbitraryZVertical|-0.1764529472843647|-0.3526565955332427|0.6871375031832803|0.6101965468814562|-0.1878847926855087|0.6999890804290771|-0.688995361328125|0|0|0|-1|-1|3
2021-04-22 21:03:38.500 +0100|138389.2701124167|-0.28948974609375|0.6239471435546875|-0.7505645751953125|138389.2501504167|1.557658964282306|-0.2982816890424419|-0.7619202977580943|0.4586158692836761|-0.7694587111473083|-1.022732734680176|-0.06958597898483276|-0.06981289386749268|-0.09124267101287842|XArbitraryZVertical|-0.1648017161499633|-0.3564528319365857|0.6841695790941836|0.6145679540063781|-0.2126243263483047|0.6903120875358582|-0.6915635466575623|0|0|0|-1|-1|3
2021-04-22 21:03:38.520 +0100|138389.2900734167|-0.3271331787109375|0.58892822265625|-0.716583251953125|138389.2701124167|1.534739227757061|-0.3285954461815276|-0.7445597420914956|0.6943158507347107|-0.7039241790771484|-1.100591063499451|-0.04202224314212799|-0.05435657501220703|-0.06369435787200928|XArbitraryZVertical|-0.1525003611846139|-0.3587803083589283|0.6807999416615083|0.6201063690268842|-0.2373194396495819|0.67764812707901|-0.6960406899452209|0|0|0|-1|-1|3
2021-04-22 21:03:38.540 +0100|138389.3100354167|-0.352752685546875|0.576416015625|-0.7034759521484375|138389.2900734167|1.513124207469309|-0.3566142988843429|-0.7224312248577122|0.8246919512748718|-0.6488590836524963|-1.147396206855774|-0.04727494716644287|-0.04681485891342163|-0.03434938192367554|XArbitraryZVertical|-0.1390359442592237|-0.3594002085400068|0.6775309321172092|0.6264603535544296|-0.2618976533412933|0.6612105369567871|-0.7030010223388672|0|0|0|-1|-1|3
2021-04-22 21:03:38.560 +0100|138389.3299974167|-0.341644287109375|0.569305419921875|-0.681732177734375|138389.3100354167|1.492296209735245|-0.3825089487496874|-0.6990334007297213|0.7841001749038696|-0.5871443748474121|-1.165622472763062|-0.05964207649230957|-0.06661897897720337|-0.006605684757232666|XArbitraryZVertical|-0.1256399364091599|-0.3593632372507137|0.6739442954344829|0.6331445541160978|-0.2857091128826141|0.6434780955314636|-0.7101453542709351|0|0|0|-1|-1|3
2021-04-22 21:03:38.580 +0100|138389.3499584167|-0.3032989501953125|0.5500335693359375|-0.64630126953125|138389.3299974167|1.472879042368115|-0.4056596005296777|-0.6761254424445471|0.7599815726280212|-0.5064952969551086|-1.096005439758301|-0.04584327340126038|-0.0554015040397644|0.02540057897567749|XArbitraryZVertical|-0.1130369450228852|-0.3589884123797267|0.6701460599562282|0.6397298743617237|-0.3078086972236633|0.6257755756378174|-0.7166999578475952|0|0|0|-1|-1|3
2021-04-22 21:03:38.600 +0100|138389.3699204167|-0.2740325927734375|0.530792236328125|-0.6142425537109375|138389.3499584167|1.456633444447525|-0.4253321770714185|-0.6532720314054734|0.8175829648971558|-0.4549051225185394|-0.9943440556526184|0.00825268030166626|-0.0466759204864502|0.06149661540985107|XArbitraryZVertical|-0.1010000987976536|-0.3579465326686634|0.6667601001172326|0.6458362036104515|-0.3276639878749847|0.6077879667282104|-0.7233465313911438|0|0|0|-1|-1|3
2021-04-22 21:03:38.620 +0100|138389.3898824167|-0.2429656982421875|0.5288238525390625|-0.5676422119140625|138389.3699204167|1.444754572947497|-0.4411667438093523|-0.6300943780501324|0.8910056948661804|-0.4247824549674988|-0.8503584861755371|0.05819651484489441|-0.05179059505462646|0.103521466255188|XArbitraryZVertical|-0.0892932118645773|-0.3559786110607785|0.6642607446053678|0.6512016896747115|-0.3449997901916504|0.5892210006713867|-0.7306119203567505|0|0|0|-1|-1|3
2021-04-22 21:03:38.640 +0100|138389.4098434167|-0.20965576171875|0.542755126953125|-0.5288543701171875|138389.3898824167|1.437162048174778|-0.4537112496377093|-0.6067148317695211|0.9639930129051208|-0.3954552412033081|-0.7160839438438416|0.1005881726741791|-0.04529929161071777|0.1479702591896057|XArbitraryZVertical|-0.07779737835114382|-0.3531897877949938|0.6627358489575033|0.6557330496114777|-0.3600782155990601|0.5701717138290405|-0.7384091019630432|0|0|0|-1|-1|3
2021-04-22 21:03:38.660 +0100|138389.4298054167|-0.19879150390625|0.6199798583984375|-0.493865966796875|138389.4098434167|1.433964550164479|-0.4633375025983665|-0.5822845123092439|1.119933366775513|-0.3927436172962189|-0.6022864580154419|0.1471200585365295|-0.02322989702224731|0.197390079498291|XArbitraryZVertical|-0.06606782499448834|-0.3493716465817823|0.6623229219216769|0.65947164666598|-0.3732849061489105|0.5499334335327148|-0.7471489906311035|0|0|0|-1|-1|3
2021-04-22 21:03:38.680 +0100|138389.4497664167|-0.193878173828125|0.592010498046875|-0.4694976806640625|138389.4298054167|1.436971731175003|-0.4702330374743977|-0.5544801653346628|1.491722345352173|-0.4558524191379547|-0.4206730425357819|0.1829698383808136|0.06872928142547607|0.2415870428085327|XArbitraryZVertical|-0.05288807065305622|-0.3438800757264286|0.6636907228457231|0.6621662351049222|-0.3852089047431946|0.5265014171600342|-0.7578986883163452|0|0|0|-1|-1|3
2021-04-22 21:03:38.699 +0100|138389.4697284167|-0.1606903076171875|0.564117431640625|-0.497314453125|138389.4497664167|1.44715794425511|-0.4749347057326517|-0.5235665648533048|1.617625713348389|-0.5313533544540405|-0.2049590498209|0.2036571502685547|0.1122264266014099|0.2897672653198242|XArbitraryZVertical|-0.03807439277880118|-0.336831091814904|0.6671946044909245|0.6632847770315786|-0.3960238099098206|0.4999721050262451|-0.7701902985572815|0|0|0|-1|-1|3
2021-04-22 21:03:38.719 +0100|138389.4896904167|-0.0899200439453125|0.5335540771484375|-0.58599853515625|138389.4697284167|1.462517464279226|-0.4783093206103053|-0.4946834337000423|1.549699306488037|-0.5577635765075684|0.09378992021083832|0.2216294407844543|0.09929850697517395|0.2925623059272766|XArbitraryZVertical|-0.02367009371955765|-0.3297971050818141|0.6722228961270509|0.6624124344689312|-0.4051002562046051|0.4747530519962311|-0.7813472151756287|0|0|0|-1|-1|3
2021-04-22 21:03:38.740 +0100|138389.5096514167|0.02752685546875|0.560760498046875|-0.7359619140625|138389.4896904167|1.48400186986604|-0.4785074390492397|-0.471032773975068|1.435197234153748|-0.4452905058860779|0.5343286395072937|0.2747226059436798|0.09052059054374695|0.2533558011054993|XArbitraryZVertical|-0.01138328358426237|-0.323052806361543|0.6791521686770502|0.6589840279755371|-0.4103113114833832|0.4538068175315857|-0.7910146117210388|0|0|0|-1|-1|3
2021-04-22 21:03:38.759 +0100|138389.5296134167|0.1891326904296875|0.52813720703125|-0.855621337890625|138389.5096514167|1.514674863170393|-0.4725888930135963|-0.452670904961365|1.473457455635071|-0.3220292925834656|1.072782874107361|0.3801424503326416|0.1058750152587891|0.1402833461761475|XArbitraryZVertical|-0.001815200504648776|-0.3156572577766547|0.6890394977587768|0.6523664165534954|-0.4093469083309174|0.4373689889907837|-0.800714373588562|0|0|0|-1|-1|3
2021-04-22 21:03:38.779 +0100|138389.5495754167|0.2903900146484375|0.4470062255859375|-0.8572540283203125|138389.5296134167|1.55580056763067|-0.4601070210734842|-0.4389128983385167|1.364597082138062|-0.234874814748764|1.617764830589294|0.5000545978546143|0.1210196316242218|-0.00685584545135498|XArbitraryZVertical|0.005189158543994572|-0.3073025682212562|0.702272126703522|0.6421464730707332|-0.4019549190998077|0.4249556660652161|-0.8110764026641846|0|0|0|-1|-1|3
2021-04-22 21:03:38.799 +0100|138389.5695364167|0.2044525146484375|0.3926239013671875|-0.867431640625|138389.5495754167|1.604411035963355|-0.4449179271085152|-0.4315662948857102|1.230084896087646|-0.2933727502822876|2.006073951721191|0.6546717882156372|0.05880305171012878|-0.05005031824111938|XArbitraryZVertical|0.009762764278496368|-0.2999378672802734|0.7177521385805283|0.6283103899456413|-0.3909226357936859|0.4182940125465393|-0.8198839426040649|0|0|0|-1|-1|3
2021-04-22 21:03:38.819 +0100|138389.5894984167|-0.0385894775390625|0.271514892578125|-0.873779296875|138389.5695364167|1.658159968953903|-0.4288702566465907|-0.4265108180068633|1.371932506561279|-0.3331810534000397|2.213851451873779|0.6419731378555298|0.02522280812263489|-0.04274839162826538|XArbitraryZVertical|0.01364060742039214|-0.2929708010390563|0.7345283831514912|0.6119233812062203|-0.3785901963710785|0.4136967360973358|-0.8279640674591064|0|0|0|-1|-1|3
2021-04-22 21:03:38.839 +0100|138389.6094594167|-0.3950347900390625|0.125946044921875|-0.8379364013671875|138389.5894984167|1.718324646337007|-0.4101527264708199|-0.418062944442616|1.645848035812378|-0.2357648909091949|2.444667100906372|0.4717239737510681|-0.05792230367660522|-0.03963619470596313|XArbitraryZVertical|0.01817932094310039|-0.2839532909833664|0.7528855407250524|0.5934674058885927|-0.3644079566001892|0.4059909880161285|-0.838080108165741|0|0|0|-1|-1|3
2021-04-22 21:03:38.859 +0100|138389.6294214167|-0.7239532470703125|0.1288299560546875|-1.000106811523438|138389.6094594167|1.783916244607421|-0.3852305240323554|-0.4044744597980775|1.955667614936829|0.157950296998024|2.556451559066772|0.1381617486476898|-0.2057453691959381|0.01315897703170776|XArbitraryZVertical|0.02216484144845415|-0.2711849595065366|0.7724832839878297|0.5737919559108258|-0.3454514443874359|0.3935356736183167|-0.8519348502159119|0|0|0|-1|-1|3
2021-04-22 21:03:38.879 +0100|138389.6493834167|-0.779022216796875|0.181243896484375|-1.34869384765625|138389.6294214167|1.852000760376154|-0.3503453134935288|-0.3844649968436752|2.129573822021484|0.7007470726966858|2.610513925552368|-0.2585992813110352|-0.2657337188720703|-0.01600050926208496|XArbitraryZVertical|0.02365036151165708|-0.2531731955302453|0.7925073205128634|0.5543251142530304|-0.3181667029857635|0.3750632405281067|-0.8706879615783691|0|0|0|-1|-1|3
2021-04-22 21:03:38.899 +0100|138389.6693444167|-0.60986328125|0.294647216796875|-1.496170043945312|138389.6493834167|1.920520595756885|-0.3077590323067679|-0.3637885670861377|1.81863009929657|0.9766980409622192|2.766029119491577|-0.5169029831886292|-0.184506744146347|-0.2742720246315002|XArbitraryZVertical|0.02102929181567698|-0.2328844195148589|0.8121977996771931|0.5344692977612999|-0.2830990254878998|0.3558174073696136|-0.8906452059745789|0|0|0|-1|-1|3
2021-04-22 21:03:38.919 +0100|138389.6893064167|-0.6312408447265625|0.4448089599609375|-1.350616455078125|138389.6693444167|1.985066624615763|-0.2673587193897939|-0.3524032517813782|1.059034109115601|0.7489790320396423|2.666095495223999|-0.4404647946357727|-0.127899557352066|-0.5626486539840698|XArbitraryZVertical|0.01492941955659014|-0.2172014072683157|0.8298613475670951|0.5137420378400029|-0.2479496896266937|0.3451543748378754|-0.9052013158798218|0|0|0|-1|-1|3
2021-04-22 21:03:38.939 +0100|138389.7092674167|-0.7230072021484375|0.4010467529296875|-1.142593383789062|138389.6893064167|2.043669541676374|-0.235100399225909|-0.3444723943013455|1.209667205810547|0.5126977562904358|2.488287925720215|-0.3760796189308167|0.0418165922164917|-0.532317042350769|XArbitraryZVertical|0.009754804893163143|-0.2054859022810172|0.8451331490392332|0.4933866967935864|-0.2192562371492386|0.3377000987529755|-0.9153607487678528|0|0|0|-1|-1|3
2021-04-22 21:03:38.959 +0100|138389.7292294167|-0.7602996826171875|0.3657379150390625|-1.0284423828125|138389.7092674167|2.09896026669716|-0.2069119793543797|-0.3282033901240462|1.411023020744324|0.5087539553642273|2.213146448135376|-0.4849082231521606|0.1148367822170258|-0.3085845708847046|XArbitraryZVertical|0.00742537189253728|-0.1916483879018505|0.85934245793772|0.474074310546923|-0.1944730281829834|0.3223428428173065|-0.9264315366744995|0|0|0|-1|-1|3
2021-04-22 21:03:38.979 +0100|138389.7491914167|-0.7181243896484375|0.3885650634765625|-0.92181396484375|138389.7292294167|2.144503701341877|-0.1816131576950556|-0.3109209711449946|1.105211138725281|0.5941841006278992|1.684664607048035|-0.5810333490371704|0.06798103451728821|-0.1342997550964355|XArbitraryZVertical|0.004954497058201239|-0.1782645443777567|0.870826349295306|0.4581036219212201|-0.1719562858343124|0.3059355914592743|-0.9363943934440613|0|0|0|-1|-1|3
2021-04-22 21:03:38.999 +0100|138389.7691524167|-0.6498565673828125|0.3601837158203125|-0.7987213134765625|138389.7491914167|2.17676817498227|-0.1595913410224259|-0.2968362682896686|0.844270646572113|0.631807804107666|1.122988939285278|-0.5949975252151489|0.09155210852622986|-0.0382310152053833|XArbitraryZVertical|0.00145496058664931|-0.1671541791334389|0.8788197662550942|0.4469154977234117|-0.1519648879766464|0.2924962937831879|-0.9441147446632385|0|0|0|-1|-1|3
2021-04-22 21:03:39.019 +0100|138389.7891144167|-0.6151123046875|0.290191650390625|-0.6855316162109375|138389.7891144167|2.209111443985985|-0.1267463207669313|-0.2697994493432911|0.7494713068008423|0.5307996869087219|0.335878998041153|-0.509084939956665|0.06091538071632385|0.2171096801757812|XArbitraryZVertical|-0.00427938134803087|-0.1481053374677593|0.8872011093277474|0.4369448219550383|-0.1218343749642372|0.266538143157959|-0.9560930132865906|0|0|0|-1|-1|3
2021-04-22 21:03:39.051 +0100|138389.8090764167|-0.5970306396484375|0.2720794677734375|-0.5967864990234375||||||||||||||||||||||||3
2021-04-22 21:03:39.060 +0100|138389.8290374167|-0.564422607421875|0.3038482666015625|-0.5325927734375|138389.8090764167|2.2158849250061|-0.1152731078316373|-0.2564517348319855|0.6766003966331482|0.4424042701721191|0.1634738445281982|-0.4924412071704865|0.0146605372428894|0.3203734755516052|XArbitraryZVertical|-0.005881297418835264|-0.1397395415697724|0.8892514771493474|0.4355115007861424|-0.1112564504146576|0.2536499202251434|-0.9608765244483948|0|0|0|-1|-1|3
2021-04-22 21:03:39.079 +0100|138389.8489994167|-0.4496917724609375|0.3127899169921875|-0.492095947265625|138389.8290374167|2.219833108148959|-0.1060214021026227|-0.2429191629388568|0.7096625566482544|0.39534592628479|0.06893526017665863|-0.4868673384189606|0.05169911682605743|0.4063365459442139|XArbitraryZVertical|-0.006701293039220194|-0.1317580768526105|0.8906693999585304|0.4350898319899729|-0.1027159243822098|0.2405371069908142|-0.9651898145675659|0|0|0|-1|-1|3
2021-04-22 21:03:39.099 +0100|138389.8689614167|-0.3138580322265625|0.2872467041015625|-0.4480743408203125|138389.8489994167|2.221299626398337|-0.09822661979854518|-0.2306471043776588|0.4861437082290649|0.3412269353866577|-0.05538234114646912|-0.4203658103942871|0.08717299997806549|0.4592585563659668|XArbitraryZVertical|-0.007342726212802644|-0.1246318614369225|0.8914714451366227|0.4355363464357922|-0.09547174721956253|0.2286075353622437|-0.9688259959220886|0|0|0|-1|-1|3
2021-04-22 21:03:39.119 +0100|138389.8889224167|-0.212158203125|0.3055419921875|-0.41497802734375|138389.8689614167|2.219174677420508|-0.09285576782047276|-0.2257949398497504|-0.0862567126750946|0.24595807492733|-0.1990092843770981|-0.2923663556575775|0.07531304657459259|0.4883772730827332|XArbitraryZVertical|-0.008784856671670841|-0.1213009734117856|0.8911822107679376|0.4370392834832151|-0.09036876261234283|0.2238811999559402|-0.9704177975654602|0|0|0|-1|-1|3
2021-04-22 21:03:39.139 +0100|138389.9088844167|-0.1446533203125|0.4378509521484375|-0.4349822998046875|138389.8889224167|2.212885446084276|-0.08958096405004126|-0.2343110645705699|-0.8172670602798462|0.2405828535556793|-0.3452944755554199|-0.1700013279914856|0.04617780447006226|0.5428099036216736|XArbitraryZVertical|-0.01253521868988317|-0.1243208274624477|0.8894355472752969|0.4396494617207384|-0.08701663464307785|0.2321729362010956|-0.9687743782997131|0|0|0|-1|-1|3
2021-04-22 21:03:39.158 +0100|138389.9288454167|-0.075897216796875|0.662841796875|-0.61370849609375|138389.9088844167|2.202343530172751|-0.08674986655832159|-0.2535359800488841|-1.14509105682373|0.309721976518631|-0.4983597695827484|-0.08844508975744247|0.09250944852828979|0.5433555245399475|XArbitraryZVertical|-0.01880501953989051|-0.1321010713867076|0.886231637328042|0.4436092935968958|-0.08387131989002228|0.2508284747600555|-0.9643913507461548|0|0|0|-1|-1|3
2021-04-22 21:03:39.179 +0100|138389.9488074167|0.07525634765625|0.7751617431640625|-0.77410888671875|138389.9288454167|2.18935391688294|-0.08246799373542467|-0.274441075250541|-0.9765121936798096|0.47292160987854|-0.5368114113807678|-0.04270109534263611|0.2919334769248962|0.432770311832428|XArbitraryZVertical|-0.02634912209339295|-0.1401891538651244|0.8822618278519236|0.4486277181179139|-0.07929182797670364|0.2710089683532715|-0.959305465221405|0|0|0|-1|-1|3
2021-04-22 21:03:39.198 +0100|138389.9687694167|0.2929840087890625|0.7981109619140625|-0.9054107666015625|138389.9488074167|2.178933906318265|-0.07347089019873543|-0.2905900088301147|-0.7695842981338501|0.7219449281692505|-0.327422559261322|0.06376713514328003|0.4411587715148926|0.2527314424514771|XArbitraryZVertical|-0.03477259651541251|-0.1450713720940774|0.8789107610993157|0.4530574458639536|-0.07032731175422668|0.2865175604820251|-0.9554903507232666|0|0|0|-1|-1|3
2021-04-22 21:03:39.218 +0100|138389.9887304167|0.509735107421875|0.816436767578125|-0.9831085205078125|138389.9687694167|2.173482072960517|-0.05880946874204263|-0.3062661073329484|-0.8956183195114136|0.8747120499610901|-0.08420528471469879|0.2311209589242935|0.4913918375968933|0.1118364930152893|XArbitraryZVertical|-0.04523671992643383|-0.1484749417352926|0.8764663060361841|0.4557585015266544|-0.05604051053524017|0.3015006184577942|-0.9518176913261414|0|0|0|-1|-1|3
2021-04-22 21:03:39.238 +0100|138390.0086924167|0.5944976806640625|0.794525146484375|-0.9603271484375|138389.9887304167|2.172261670669973|-0.04198799640518989|-0.3282810586817925|-1.321319699287415|0.8103986978530884|0.04083074629306793|0.4465192258358002|0.4927539229393005|-0.005927085876464844|XArbitraryZVertical|-0.05779028706296866|-0.1542026256563455|0.8743438578839171|0.4565137555580684|-0.03973407298326492|0.322416365146637|-0.9457636475563049|0|0|0|-1|-1|3
2021-04-22 21:03:39.258 +0100|138390.0286544167|0.5281219482421875|0.78033447265625|-0.9168701171875|138390.0086924167|2.171367059506866|-0.02787615581905422|-0.3587529744169816|-1.703423023223877|0.6396523118019104|-0.04877343773841858|0.5996770262718201|0.4567086696624756|-0.04287976026535034|XArbitraryZVertical|-0.07105709346534048|-0.1642104737298027|0.8715037583550012|0.4565820187077521|-0.02609805203974247|0.3511068820953369|-0.9359716176986694|0|0|0|-1|-1|3
2021-04-22 21:03:39.278 +0100|138390.0486154167|0.3977203369140625|0.6985626220703125|-0.959197998046875|138390.0286544167|2.168154464210363|-0.0165779347095854|-0.3939286344589645|-1.749613165855408|0.6388071179389954|-0.1501712501049042|0.5934183597564697|0.3925632238388062|-0.008450806140899658|XArbitraryZVertical|-0.08434351652937216|-0.1767638586437112|0.8675115730695354|0.457235591210339|-0.01530750095844269|0.3838191032409668|-0.9232814311981201|0|0|0|-1|-1|3
2021-04-22 21:03:39.298 +0100|138390.0685774167|0.312652587890625|0.532073974609375|-0.9862060546875|138390.0486154167|2.164043314536972|-0.004696264404994911|-0.4246308947102144|-1.309320211410522|0.7049167156219482|-0.2018136829137802|0.4606249034404755|0.3461636900901794|-0.01008379459381104|XArbitraryZVertical|-0.09691733401936886|-0.187127265885962|0.8633137042908334|0.4585630587975421|-0.004279177635908127|0.4119844734668732|-0.911180853843689|0|0|0|-1|-1|3
2021-04-22 21:03:39.318 +0100|138390.0885384167|0.325439453125|0.5461273193359375|-1.016555786132812|138390.0685774167|2.15863107303806|0.007330096577963492|-0.44919257163391|-1.225062131881714|0.7411386966705322|-0.2930864989757538|0.342595636844635|0.1762658059597015|-0.07905405759811401|XArbitraryZVertical|-0.1082546558715759|-0.1946638394512133|0.8591010104068995|0.460795624650555|0.006602877285331488|0.4342383444309235|-0.900773823261261|0|0|0|-1|-1|3
2021-04-22 21:03:39.338 +0100|138390.1085004167|0.4052734375|0.6131439208984375|-1.070556640625|138390.0885384167|2.151640850763031|0.01989636744540769|-0.474569247597236|-1.244982719421387|0.8116178512573242|-0.3555068373680115|0.2814074754714966|0.05720484256744385|-0.1008139252662659|XArbitraryZVertical|-0.1201612013305902|-0.2022485701946288|0.8541699151978988|0.4637355920505147|0.0176964458078146|0.4569553434848785|-0.8893135786056519|0|0|0|-1|-1|3
2021-04-22 21:03:39.358 +0100|138390.1284624167|0.4003753662109375|0.5869140625|-1.080459594726562|138390.1085004167|2.144412177662133|0.03197748979908364|-0.4966428542644459|-0.9269940853118896|0.7183581590652466|-0.3372744023799896|0.3415053486824036|0.1205845177173615|-0.1652228832244873|XArbitraryZVertical|-0.1311235993503617|-0.208417299803764|0.849330376878573|0.4669120697805987|0.02810940705239773|0.4764766693115234|-0.8787376880645752|0|0|0|-1|-1|3
2021-04-22 21:03:39.378 +0100|138390.1484234167|0.3520050048828125|0.595703125|-1.0587158203125|138390.1284624167|2.137692773130734|0.04183149404063858|-0.5130945647440437|-0.7308146357536316|0.5991141796112061|-0.3124412894248962|0.3768054246902466|0.115356057882309|-0.2130285501480103|XArbitraryZVertical|-0.139792164633405|-0.2126603075758403|0.8452162835905621|0.4699396427413641|0.03643421083688736|0.4908756613731384|-0.870467483997345|0|0|0|-1|-1|3
2021-04-22 21:03:39.398 +0100|138390.1683854167|0.301513671875|0.6063232421875|-0.9862823486328125|138390.1484234167|2.131222587316524|0.04989037830394068|-0.5273187078323381|-0.662240207195282|0.5327775478363037|-0.3207888007164001|0.3301662504673004|0.07536470890045166|-0.2004075050354004|XArbitraryZVertical|-0.1471631476749668|-0.2163351385923438|0.8414356153413836|0.4727878894642359|0.04309536144137383|0.5032181143760681|-0.8630842566490173|0|0|0|-1|-1|3
2021-04-22 21:03:39.418 +0100|138390.1883474167|0.2513885498046875|0.628204345703125|-0.916534423828125|138390.1683854167|2.124581761099807|0.05663953246673875|-0.5397394133658372|-0.5537805557250977|0.4915539622306824|-0.3099084496498108|0.2804187834262848|0.09724783897399902|-0.1725550889968872|XArbitraryZVertical|-0.1535890196471167|-0.2194923594205827|0.8378453247472675|0.4756563092860045|0.04856183379888535|0.5139124393463135|-0.8564670085906982|0|0|0|-1|-1|3
2021-04-22 21:03:39.438 +0100|138390.2083084167|0.21630859375|0.6561126708984375|-0.876434326171875|138390.1883474167|2.117895636245481|0.06313750198936255|-0.5505947491585387|-0.4790731072425842|0.5152288675308228|-0.3444060683250427|0.2214072197675705|0.08277815580368042|-0.09133315086364746|XArbitraryZVertical|-0.1595568573999345|-0.2219996720763283|0.8343905762419291|0.4785921099502961|0.05377089232206345|0.5231941938400269|-0.8505154848098755|0|0|0|-1|-1|3
2021-04-22 21:03:39.458 +0100|138390.2282704167|0.204864501953125|0.6589813232421875|-0.8444671630859375|138390.2083084167|2.109914707094294|0.06958766944601441|-0.5594342310450233|-0.3495530486106873|0.5469412803649902|-0.3787572085857391|0.1712938994169235|0.1169831156730652|-0.04756206274032593|XArbitraryZVertical|-0.165184207968714|-0.2235219370624181|0.8308267630640335|0.4821609443326317|0.05893182381987572|0.5307067632675171|-0.8455042243003845|0|0|0|-1|-1|3
2021-04-22 21:03:39.478 +0100|138390.248231|0.1943359375|0.70703125|-0.8353118896484375|138390.2282704167|2.100794325424381|0.07586310084677167|-0.5664972014255374|-0.2979852855205536|0.5589431524276733|-0.4505966901779175|0.1433104127645493|0.1226678490638733|-0.01470458507537842|XArbitraryZVertical|-0.1704542898827916|-0.2242002829233987|0.8271793345922204|0.4862654179140541|0.06395084410905838|0.536679744720459|-0.8413591384887695|0|0|0|-1|-1|3
2021-04-22 21:03:39.498 +0100|138390.268193|0.1978302001953125|0.6869659423828125|-0.8160552978515625|138390.248231|2.090115139109083|0.08091262117720981|-0.5725292286569347|-0.2063640058040619|0.5192958116531372|-0.4869395196437836|0.1329322159290314|0.1532171964645386|0.003631472587585449|XArbitraryZVertical|-0.1751520988954619|-0.2245661853182278|0.8233441023757808|0.4909138773093413|0.06793557852506638|0.5417596697807312|-0.8377835154533386|0|0|0|-1|-1|3
2021-04-22 21:03:39.518 +0100|138390.288155|0.2076568603515625|0.662567138671875|-0.80120849609375|138390.268193|2.078904003510968|0.084316558994118|-0.5772134540386173|-0.2142897248268127|0.4268769919872284|-0.4930676221847534|0.1247106343507767|0.1547485589981079|0.00305473804473877|XArbitraryZVertical|-0.1789174129049736|-0.2246859769822489|0.8196580027621256|0.4956467047240596|0.07057245075702667|0.5456909537315369|-0.8350095152854919|0|0|0|-1|-1|3
2021-04-22 21:03:39.538 +0100|138390.308116|0.18951416015625|0.6525421142578125|-0.767120361328125|138390.288155|2.067144748789187|0.08477210725035804|-0.5827410642671054|-0.241264820098877|0.2453768849372864|-0.5366773009300232|0.1344286799430847|0.1200650334358215|0.02165645360946655|XArbitraryZVertical|-0.1817467506148024|-0.22580657221174|0.815952767346581|0.5002006293217147|0.07069634646177292|0.5503146648406982|-0.8319590091705322|0|0|0|-1|-1|3
2021-04-22 21:03:39.558 +0100|138390.328078|0.153656005859375|0.6213531494140625|-0.7396697998046875|138390.308116|2.054483330145596|0.08039608573963247|-0.5873324242005535|-0.1077729389071465|0.009542287327349186|-0.551978588104248|0.1375564336776733|0.1069141030311584|0.03642886877059937|XArbitraryZVertical|-0.1825069884025909|-0.227650265838099|0.8125568183384455|0.5045968348401135|0.06685138493776321|0.5541424751281738|-0.82973313331604|0|0|0|-1|-1|3
2021-04-22 21:03:39.578 +0100|138390.34804|0.1156463623046875|0.5897064208984375|-0.6985931396484375|138390.328078|2.04117317810494|0.07086642638620652|-0.5884234377443242|0.08475375920534134|-0.2167584449052811|-0.5634399056434631|0.1141372323036194|0.07194870710372925|0.07196241617202759|XArbitraryZVertical|-0.1804283350292979|-0.2293057473265873|0.8099040774882259|0.508841870044095|0.05889855697751045|0.5550503134727478|-0.8297289609909058|0|0|0|-1|-1|3
2021-04-22 21:03:39.598 +0100|138390.368001|0.108154296875|0.54779052734375|-0.71514892578125|138390.34804|2.027358188566123|0.0572841861546417|-0.5846253500510873|0.3323124945163727|-0.3666715025901794|-0.5624781847000122|0.08458107709884644|0.05252903699874878|0.1073467135429382|XArbitraryZVertical|-0.1755801407864535|-0.229991481864301|0.8080806764705348|0.5131094214051766|0.04774424433708191|0.5518869757652283|-0.8325510621070862|0|0|0|-1|-1|3
2021-04-22 21:03:39.618 +0100|138390.387963|0.0980682373046875|0.502532958984375|-0.7187652587890625|138390.368001|2.015063738295234|0.04429987973426421|-0.579545777621683|0.4094648957252502|-0.499844878911972|-0.598084568977356|0.07616722583770752|0.01535975933074951|0.1297903060913086|XArbitraryZVertical|-0.1704762069793407|-0.2302010891960066|0.8066881483667259|0.5169136577734476|0.03705409914255142|0.5476439595222473|-0.8358906507492065|0|0|0|-1|-1|3
2021-04-22 21:03:39.638 +0100|138390.407925|0.09136962890625|0.4979095458984375|-0.7727813720703125|138390.387963|2.002198923556622|0.0287198560376936|-0.5742158029571244|0.3871850967407227|-0.6313107013702393|-0.627051055431366|0.07662920653820038|-0.02276009321212769|0.1202782988548279|XArbitraryZVertical|-0.1643214466720974|-0.2310028186174001|0.8053197001832059|0.5206693758302753|0.02411041036248207|0.543176531791687|-0.8392723202705383|0|0|0|-1|-1|3
2021-04-22 21:03:39.658 +0100|138390.427886|0.0472564697265625|0.487213134765625|-0.80224609375|138390.407925|1.989415012576931|0.01031394712913565|-0.5687554030253542|0.42642542719841|-0.7982199788093567|-0.6081340312957764|0.08899778127670288|-0.04142177104949951|0.09856975078582764|XArbitraryZVertical|-0.1569835637425777|-0.2325781039746311|0.8041196886996261|0.5240756885351493|0.008690088987350464|0.5385838150978088|-0.8425271511077881|0|0|0|-1|-1|3
2021-04-22 21:03:39.678 +0100|138390.447848|0.0116729736328125|0.5135650634765625|-0.81939697265625|138390.427886|1.977186690528538|-0.01140939057031521|-0.5628807508290716|0.4003904461860657|-0.9474758505821228|-0.5774588584899902|0.08188517391681671|-0.04331386089324951|0.05431514978408813|XArbitraryZVertical|-0.1481395443650212|-0.2349925338102571|0.8032496381455866|0.5268997771493876|-0.00964895635843277|0.5336247086524963|-0.8456663489341736|0|0|0|-1|-1|3
2021-04-22 21:03:39.698 +0100|138390.467809|-0.0166015625|0.51385498046875|-0.8620758056640625|138390.447848|1.966488554518726|-0.03390831954156236|-0.5574633671442668|0.4006879925727844|-0.9545901417732239|-0.4817917048931122|0.05292484164237976|-0.03288030624389648|0.03954887390136719|XArbitraryZVertical|-0.138927514195273|-0.2379981598201132|0.8026483308457532|0.5289724843843271|-0.02876908145844936|0.5290353298187256|-0.8481120467185974|0|0|0|-1|-1|3
2021-04-22 21:03:39.718 +0100|138390.487771|-0.069091796875|0.442626953125|-0.910614013671875|138390.467809|1.958371499039829|-0.05576371540063229|-0.5493710410365255|0.4791245460510254|-0.9401302933692932|-0.3248776495456696|0.04967093840241432|0.003224611282348633|0.01131755113601685|XArbitraryZVertical|-0.128941104332685|-0.2400218135179039|0.8028323598800226|0.5303055430258833|-0.04753361269831657|0.5221509337425232|-0.8515274524688721|0|0|0|-1|-1|3
2021-04-22 21:03:39.738 +0100|138390.507733|-0.1121063232421875|0.3937530517578125|-0.94866943359375|138390.487771|1.953034623501538|-0.07757839078546083|-0.5398016152735775|0.4075096249580383|-0.9764518737792969|-0.2034490406513214|0.02526795864105225|-0.03119277954101562|-0.03022158145904541|XArbitraryZVertical|-0.1182125935280231|-0.2416825344723182|0.8037454542974205|0.5306682839788879|-0.0664808452129364|0.5139658451080322|-0.8552306890487671|0|0|0|-1|-1|3
2021-04-22 21:03:39.758 +0100|138390.527694|-0.1463775634765625|0.347015380859375|-0.9420166015625|138390.507733|1.950763924811691|-0.09779380419003524|-0.5338934859470863|0.1779512017965317|-1.055901885032654|-0.1252428293228149|-0.007852643728256226|-0.0963824987411499|-0.0803077220916748|XArbitraryZVertical|-0.1087358156028116|-0.2445749495577814|0.8048688078240112|0.5296660138637593|-0.08404994755983353|0.508888840675354|-0.8567192554473877|0|0|0|-1|-1|3
2021-04-22 21:03:39.778 +0100|138390.547656|-0.1994171142578125|0.3053131103515625|-0.9143829345703125|138390.527694|1.94935155112491|-0.1202751718266854|-0.5315878858051571|0.06334971636533737|-1.115877747535706|-0.006132148206233978|-0.02488225698471069|-0.1382654309272766|-0.09966850280761719|XArbitraryZVertical|-0.09922038093962413|-0.2495343187925174|0.8058810402666946|0.5276778248319401|-0.1034278050065041|0.5069027543067932|-0.8557758927345276|0|0|0|-1|-1|3
2021-04-22 21:03:39.797 +0100|138390.567618|-0.2718048095703125|0.2498779296875|-0.8773193359375|138390.547656|1.950618502167586|-0.1418349101815538|-0.5301396892373|0.1109343692660332|-1.098864197731018|0.08159877359867096|-0.05071107298135757|-0.1800006031990051|-0.08203834295272827|XArbitraryZVertical|-0.08996372301859876|-0.2546958267519956|0.8073652608008274|0.5245933182049787|-0.1219562888145447|0.5056538581848145|-0.8540731072425842|0|0|0|-1|-1|3
2021-04-22 21:03:39.817 +0100|138390.587579|-0.35406494140625|0.2062225341796875|-0.9013671875|138390.567618|1.953780587065533|-0.1612570752742511|-0.5269073555999294|0.2634180784225464|-0.987267017364502|0.141130805015564|-0.09279967844486237|-0.2228025197982788|-0.03974628448486328|XArbitraryZVertical|-0.08081003325845998|-0.2586379295704254|0.8093036613487483|0.5211563608192571|-0.1387818902730942|0.5028625726699829|-0.853152334690094|0|0|0|-1|-1|3
2021-04-22 21:03:39.838 +0100|138390.607541|-0.4177093505859375|0.142425537109375|-0.9671630859375|138390.587579|1.959308928934308|-0.1762954744650384|-0.520563524168418|0.4329171180725098|-0.7985131740570068|0.2274459004402161|-0.1629101783037186|-0.2744074761867523|-0.0314515233039856|XArbitraryZVertical|-0.07223561144023638|-0.2602610945760995|0.8118493111804196|0.5176360647923254|-0.1521521955728531|0.497369110584259|-0.8540923595428467|0|0|0|-1|-1|3
2021-04-22 21:03:39.857 +0100|138390.627503|-0.4497833251953125|0.0516510009765625|-0.9981536865234375|138390.607541|1.967631968842358|-0.1863276287475195|-0.5121018323472268|0.4888343811035156|-0.6185458302497864|0.340495228767395|-0.2294119149446487|-0.3085375428199768|-0.07508885860443115|XArbitraryZVertical|-0.06472851817174322|-0.2598002032407004|0.8150277771866967|0.5138520656634449|-0.1614866554737091|0.490010529756546|-0.8566281199455261|0|0|0|-1|-1|3
2021-04-22 21:03:39.877 +0100|138390.647464|-0.489654541015625|0.07806396484375|-1.0107421875|138390.627503|1.978137159046201|-0.1919890616081107|-0.5060804982237593|0.2490499168634415|-0.4660056531429291|0.4380504786968231|-0.2690792679786682|-0.3911551833152771|-0.1262366771697998|XArbitraryZVertical|-0.05939373751369705|-0.2591947228851039|0.8183687133200925|0.5094735656310651|-0.1668937653303146|0.4847527742385864|-0.8585809469223022|0|0|0|-1|-1|3
2021-04-22 21:03:39.897 +0100|138390.667426|-0.5106964111328125|0.111663818359375|-1.008041381835938|138390.647464|1.988784594177433|-0.1946157049371647|-0.5055511524447925|0.03505957871675491|-0.3158866763114929|0.4669769108295441|-0.2978114783763885|-0.4332946538925171|-0.1460797190666199|XArbitraryZVertical|-0.05679023867164969|-0.2599600831107329|0.8211865537364054|0.5048250649371303|-0.1691979765892029|0.4842897355556488|-0.8583912253379822|0|0|0|-1|-1|3
2021-04-22 21:03:39.917 +0100|138390.687388|-0.52606201171875|0.1056060791015625|-1.007568359375|138390.667426|2.000261663201802|-0.1939457273782972|-0.5065232594853878|0.0775785967707634|-0.1755977869033813|0.5350098609924316|-0.3342592716217041|-0.3912678062915802|-0.1546075940132141|XArbitraryZVertical|-0.05583650019272973|-0.2605019279145561|0.8239741127096515|0.50008781277741|-0.1685320138931274|0.4851399958133698|-0.8580420613288879|0|0|0|-1|-1|3
2021-04-22 21:03:39.937 +0100|138390.707349|-0.50933837890625|0.071868896484375|-0.989715576171875|138390.687388|2.013291651597172|-0.1899529762878756|-0.5061667374794183|0.1614171713590622|-0.05880614370107651|0.5734559297561646|-0.3541944026947021|-0.3735151886940002|-0.1504911184310913|XArbitraryZVertical|-0.05569405484090584|-0.2597290884231738|0.8271337810290429|0.495266540666483|-0.165137380361557|0.4848282039165497|-0.858877956867218|0|0|0|-1|-1|3
2021-04-22 21:03:39.957 +0100|138390.727311|-0.4537200927734375|0.09234619140625|-0.940582275390625|138390.707349|2.026914620456329|-0.1836673324073023|-0.5052721105607225|0.1120702102780342|0.02588610723614693|0.5795149207115173|-0.3653154373168945|-0.3973755240440369|-0.1439322829246521|XArbitraryZVertical|-0.05629661516719381|-0.2582017876339633|0.8303880429660512|0.490528713094014|-0.159814715385437|0.4840455651283264|-0.860325038433075|0|0|0|-1|-1|3
2021-04-22 21:03:39.977 +0100|138390.747272|-0.4194793701171875|0.1678924560546875|-0.88763427734375|138390.727311|2.039883392553292|-0.1764758738488764|-0.505924270818839|0.04188434407114983|0.05403444170951843|0.5483971834182739|-0.3288220763206482|-0.4127013683319092|-0.1040841937065125|XArbitraryZVertical|-0.05778875216531636|-0.2570795476210243|0.8332948732701304|0.4859941733396607|-0.1535681784152985|0.4846161305904388|-0.8611411452293396|0|0|0|-1|-1|3
2021-04-22 21:03:39.997 +0100|138390.767234|-0.3720855712890625|0.220550537109375|-0.8593597412109375|138390.747272|2.052244742978451|-0.169132132321533|-0.5061447271515025|0.145193800330162|0.08400352299213409|0.5236207246780396|-0.2851651310920715|-0.3571080565452576|-0.04937410354614258|XArbitraryZVertical|-0.05932615545988983|-0.2557542653987825|0.8360518630670547|0.4817546199190846|-0.1472221165895462|0.4848089516162872|-0.8621402978897095|0|0|0|-1|-1|3
2021-04-22 21:03:40.017 +0100|138390.787196|-0.3440704345703125|0.2377777099609375|-0.8393707275390625|138390.767234|2.064805407619149|-0.1611547363201201|-0.5031993431184716|0.320704847574234|0.09373072534799576|0.5201941132545471|-0.2571203708648682|-0.282050609588623|-0.009040653705596924|XArbitraryZVertical|-0.06031080902125568|-0.2530140177000075|0.8390798205475001|0.4777987204573392|-0.1405683755874634|0.4822307825088501|-0.8646930456161499|0|0|0|-1|-1|3
2021-04-22 21:03:40.037 +0100|138390.807157|-0.3072662353515625|0.2395172119140625|-0.8148956298828125|138390.787196|2.077730803433163|-0.1533938039405183|-0.4974845387891361|0.3902287483215332|0.06204528361558914|0.5034934878349304|-0.2204171717166901|-0.2449319064617157|0.02192479372024536|XArbitraryZVertical|-0.06049515664514459|-0.2492121658256906|0.8424164114568289|0.473886386721086|-0.1342722773551941|0.477216511964798|-0.8684672713279724|0|0|0|-1|-1|3
2021-04-22 21:03:40.057 +0100|138390.827119|-0.2820281982421875|0.2619781494140625|-0.787445068359375|138390.807157|2.087996451027379|-0.1506354556689633|-0.4879443604516629|0.2940733432769775|0.005101412534713745|0.4654193222522736|-0.1927018165588379|-0.2305145859718323|0.04425525665283203|XArbitraryZVertical|-0.05798540985321869|-0.2449280457774042|0.8455829068447618|0.4707839358602541|-0.132553443312645|0.4688111245632172|-0.8732959032058716|0|0|0|-1|-1|3
2021-04-22 21:03:40.077 +0100|138390.847081|-0.23291015625|0.2993927001953125|-0.78851318359375|138390.827119|2.095664146651677|-0.1531839317962185|-0.4773101723046934|0.1924630552530289|-0.07902709394693375|0.4429284632205963|-0.1588245630264282|-0.2154950797557831|0.07497626543045044|XArbitraryZVertical|-0.05331082395867081|-0.2413328097378828|0.8483539363453036|0.4682010373952907|-0.1355316489934921|0.4593916535377502|-0.8778328895568848|0|0|0|-1|-1|3
2021-04-22 21:03:40.097 +0100|138390.867042|-0.163787841796875|0.349853515625|-0.8059234619140625|138390.847081|2.103820667707089|-0.1568790794980505|-0.4693023982182473|0.231196865439415|-0.1869892627000809|0.4953168332576752|-0.1271794587373734|-0.1678708493709564|0.09550034999847412|XArbitraryZVertical|-0.04876699575399905|-0.2390733460937486|0.8510129577608024|0.4650192629429709|-0.1393447369337082|0.4522642195224762|-0.8809314370155334|0|0|0|-1|-1|3
2021-04-22 21:03:40.117 +0100|138390.887004|-0.1285400390625|0.4012603759765625|-0.8316192626953125|138390.867042|2.11373661998671|-0.1621403057773852|-0.4613921873624875|0.3027988970279694|-0.3509020209312439|0.5275250673294067|-0.04847204685211182|-0.1289567053318024|0.08324337005615234|XArbitraryZVertical|-0.04338614619288501|-0.2372194903830006|0.8540685704944337|0.4608813033476483|-0.1445505619049072|0.4451951384544373|-0.8836891055107117|0|0|0|-1|-1|3
2021-04-22 21:03:40.137 +0100|138390.906966|-0.1164093017578125|0.4557037353515625|-0.859039306640625|138390.887004|2.126547119710057|-0.1648167407385403|-0.4562326205521689|0.4104694724082947|-0.4706598222255707|0.5310662388801575|0.005720123648643494|-0.05807709693908691|0.06939089298248291|XArbitraryZVertical|-0.03945989933827161|-0.2359371218049449|0.8574687941160053|0.4555479948137656|-0.1472900956869125|0.4405691921710968|-0.8855531811714172|0|0|0|-1|-1|3
2021-04-22 21:03:40.157 +0100|138390.926927|-0.0576171875|0.4912872314453125|-0.9058380126953125|138390.906966|2.140570788420876|-0.1683737741215606|-0.4489093080905803|0.5156412124633789|-0.4825102090835571|0.5934502482414246|0.02713647484779358|-0.006660759449005127|0.04789423942565918|XArbitraryZVertical|-0.03450698763711177|-0.2339207465473368|0.8612820095096556|0.4497596869220357|-0.1509757488965988|0.43398317694664|-0.8881807327270508|0|0|0|-1|-1|3
2021-04-22 21:03:40.177 +0100|138390.946889|0.01556396484375|0.55938720703125|-0.9825439453125|138390.926927|2.156241730273993|-0.1710597319413332|-0.4414406020658698|0.4243674874305725|-0.4584830105304718|0.6804971694946289|0.06203620135784149|0.04535278677940369|0.006709456443786621|XArbitraryZVertical|-0.02973318210418307|-0.2316146660270807|0.8653991963421687|0.4433450475098858|-0.1539082825183868|0.4272423982620239|-0.8909411430358887|0|0|0|-1|-1|3
2021-04-22 21:03:40.197 +0100|138390.96685|0.129974365234375|0.595123291015625|-1.03179931640625|138390.946889|2.173145504476331|-0.1724331804237957|-0.4371558484483255|0.2745351493358612|-0.3998322188854218|0.7607386112213135|0.1288799941539764|0.09421363472938538|-0.04975193738937378|XArbitraryZVertical|-0.02617241911890807|-0.2303320801658651|0.8694620700122911|0.4362317523840726|-0.1554444879293442|0.4233644902706146|-0.8925243020057678|0|0|0|-1|-1|3
2021-04-22 21:03:40.217 +0100|138390.986812|0.2256622314453125|0.5605010986328125|-1.013534545898438|138390.96685|2.191878454998303|-0.1723260134031394|-0.434710671095376|0.2803926169872284|-0.3972913026809692|0.8765337467193604|0.2275179028511047|0.1691077053546906|-0.1176878213882446|XArbitraryZVertical|-0.02349673894007851|-0.2294969333632268|0.8736958142549212|0.4282930482329921|-0.155525878071785|0.4211480021476746|-0.893558144569397|0|0|0|-1|-1|3
2021-04-22 21:03:40.237 +0100|138391.006774|0.2584228515625|0.563018798828125|-0.94879150390625|138390.986812|2.213120191229028|-0.1716992379264972|-0.4322553946520614|0.2980459034442902|-0.4385239779949188|0.9680913686752319|0.3414376080036163|0.1630198061466217|-0.1340457201004028|XArbitraryZVertical|-0.02077813411117985|-0.2285443044511545|0.8783777645196083|0.4192711998070272|-0.1551419943571091|0.4189198315143585|-0.8946715593338013|0|0|0|-1|-1|3
2021-04-22 21:03:40.257 +0100|138391.026735|0.282073974609375|0.552032470703125|-0.8986968994140625|138391.006774|2.235833822891058|-0.1713389559653692|-0.4291224401880885|0.371624618768692|-0.4675805270671844|1.023842811584473|0.4026938676834106|0.1379125416278839|-0.08842003345489502|XArbitraryZVertical|-0.01764750384029833|-0.2273333556282532|0.8833219025928278|0.4095736682915981|-0.1550426632165909|0.4160729646682739|-0.8960162401199341|0|0|0|-1|-1|3
2021-04-22 21:03:40.277 +0100|138391.046697|0.3105010986328125|0.5659332275390625|-0.873779296875|138391.026735|2.260891504678136|-0.1698409185436673|-0.4232748146444938|0.5996257066726685|-0.4195680618286133|1.129759907722473|0.4263572096824646|0.1454800665378571|-0.02887552976608276|XArbitraryZVertical|-0.01420223512157241|-0.2246846765181044|0.8888266669451859|0.3991271046928462|-0.1541088372468948|0.4107484519481659|-0.8986302018165588|0|0|0|-1|-1|3
2021-04-22 21:03:40.297 +0100|138391.066659|0.3209686279296875|0.5434112548828125|-0.857025146484375|138391.046697|2.288430317440056|-0.166661384547916|-0.4129771651947183|0.8310555219650269|-0.3839048743247986|1.188863158226013|0.4454025626182556|0.1660141944885254|0.01322412490844727|XArbitraryZVertical|-0.01037109338258236|-0.2197110058109136|0.895015202282355|0.388030301623734|-0.151944488286972|0.4013379812240601|-0.9032390117645264|0|0|0|-1|-1|3
2021-04-22 21:03:40.317 +0100|138391.08662|0.3116912841796875|0.559356689453125|-0.848480224609375|138391.066659|2.317917316338563|-0.1621476120508712|-0.3995929696630693|0.9120997786521912|-0.3300140202045441|1.257065653800964|0.4706507921218872|0.1610662937164307|0.04620510339736938|XArbitraryZVertical|-0.006448090400663791|-0.2130506703924745|0.9016409249724946|0.376313214857463|-0.148719847202301|0.3890434205532074|-0.909135639667511|0|0|0|-1|-1|3
2021-04-22 21:03:40.336 +0100|138391.106582|0.2859039306640625|0.547943115234375|-0.8603363037109375|138391.08662|2.348601928740738|-0.1563837472996096|-0.3852188529981004|0.9620288014411926|-0.2692671120166779|1.323907136917114|0.4608627259731293|0.1753395199775696|0.06291395425796509|XArbitraryZVertical|-0.002978617644541732|-0.2056389822283067|0.9083709456680533|0.3640962218810915|-0.1443333774805069|0.3757619559764862|-0.9154074788093567|0|0|0|-1|-1|3
2021-04-22 21:03:40.357 +0100|138391.126544|0.2657012939453125|0.551361083984375|-0.8675994873046875|138391.106582|2.380703554353031|-0.1495324314329602|-0.3702483583406064|0.9731879234313965|-0.2445981204509735|1.404613256454468|0.4394342303276062|0.194442480802536|0.06660968065261841|XArbitraryZVertical|1.084800239340409e-05|-0.1976935434590709|0.9151907175222993|0.3512025951172029|-0.1388808339834213|0.3618469834327698|-0.9218345284461975|0|0|0|-1|-1|3
2021-04-22 21:03:40.376 +0100|138391.146505|0.2730255126953125|0.564361572265625|-0.886962890625|138391.126544|2.414370171946107|-0.1425120984204514|-0.3553914138174158|0.9506282210350037|-0.2521691620349884|1.509331464767456|0.4047927558422089|0.2008552551269531|0.06161189079284668|XArbitraryZVertical|0.002786906189702819|-0.1897080095089788|0.9220431947417655|0.3374013676406087|-0.1331547796726227|0.3479573428630829|-0.9280062317848206|0|0|0|-1|-1|3
2021-04-22 21:03:40.396 +0100|138391.166467|0.304901123046875|0.55743408203125|-0.88507080078125|138391.146505|2.450071898543831|-0.13579240765132|-0.3411268515991507|0.9367678761482239|-0.298803836107254|1.61467444896698|0.3942537307739258|0.2248224020004272|0.05703961849212646|XArbitraryZVertical|0.005509098618348073|-0.1819837979238968|0.9289326632259057|0.3223906120109134|-0.1275749057531357|0.334549218416214|-0.9337030649185181|0|0|0|-1|-1|3
2021-04-22 21:03:40.416 +0100|138391.186429|0.3033905029296875|0.553558349609375|-0.86895751953125|138391.166467|2.487472916018357|-0.1304324248551752|-0.3272781074830909|0.9155403971672058|-0.4010841250419617|1.70844566822052|0.4134282171726227|0.2412006855010986|0.05144131183624268|XArbitraryZVertical|0.008665785388921977|-0.1746028855427686|0.9357647107435563|0.3062406637461677|-0.1231592819094658|0.3214668035507202|-0.9388774633407593|0|0|0|-1|-1|3
2021-04-22 21:03:40.436 +0100|138391.20639|0.2938232421875|0.5191497802734375|-0.8712921142578125|138391.186429|2.526230326963175|-0.1269919019090256|-0.3136800860041647|0.9094415307044983|-0.4768217206001282|1.774931669235229|0.4230078458786011|0.2475907206535339|0.06372272968292236|XArbitraryZVertical|0.01252204840689423|-0.1675434520325576|0.9424452837720964|0.2890836981030183|-0.1204708516597748|0.308561235666275|-0.9435448050498962|0|0|0|-1|-1|3
2021-04-22 21:03:40.456 +0100|138391.226352|0.2657623291015625|0.472320556640625|-0.9003753662109375|138391.20639|2.566380678582404|-0.125039598070487|-0.2996232203322133|0.9675878882408142|-0.5267975330352783|1.859337210655212|0.4224576354026794|0.2466789484024048|0.08415752649307251|XArbitraryZVertical|0.01698803725714269|-0.1603659446603816|0.9489777212958197|0.27099019759466|-0.1191577389836311|0.2951602339744568|-0.9479883313179016|0|0|0|-1|-1|3
2021-04-22 21:03:40.476 +0100|138391.2463156667|0.306427001953125|0.4174957275390625|-0.985931396484375|138391.226352|2.608283275115252|-0.123035763802057|-0.2849804427277514|0.9784632921218872|-0.4651365578174591|1.949002265930176|0.3947083950042725|0.2092172801494598|0.07182770967483521|XArbitraryZVertical|0.02135593157108658|-0.1527664082537248|0.9553757908703483|0.2519200179705421|-0.1177757158875465|0.281138688325882|-0.9524127244949341|0|0|0|-1|-1|3
2021-04-22 21:03:40.496 +0100|138391.2662766667|0.321868896484375|0.342376708984375|-1.036026000976562|138391.2463156667|2.652480299649275|-0.1193916980162187|-0.2701253578574146|1.020856857299805|-0.4067576825618744|2.107841491699219|0.3953075706958771|0.1884389519691467|0.01580607891082764|XArbitraryZVertical|0.02481328246545046|-0.144726857831436|0.9616413962481715|0.2316989791242232|-0.1147890910506248|0.2668522596359253|-0.9568768739700317|0|0|0|-1|-1|3
2021-04-22 21:03:40.516 +0100|138391.2862386667|0.298370361328125|0.3215484619140625|-1.037857055664062|138391.2662766667|2.699983484402559|-0.1160801439091165|-0.2553960656292421|0.9693413376808167|-0.5058797001838684|2.288823366165161|0.4351533055305481|0.1264448761940002|-0.05860167741775513|XArbitraryZVertical|0.02829346401740882|-0.1366511712081102|0.9677653458568517|0.2096577660617348|-0.1120628267526627|0.2526286542415619|-0.961051881313324|0|0|0|-1|-1|3
2021-04-22 21:03:40.536 +0100|138391.3061996667|0.28045654296875|0.4048919677734375|-1.023147583007812|138391.2862386667|2.751059448084322|-0.1145209151921987|-0.2422159969844356|0.9298852682113647|-0.5758529901504517|2.488506078720093|0.419819563627243|0.07043235003948212|-0.08851379156112671|XArbitraryZVertical|0.03232783201054088|-0.1293447310636241|0.973556124943909|0.1855086857666106|-0.1109350621700287|0.2398545295000076|-0.9644497036933899|0|0|0|-1|-1|3
2021-04-22 21:03:40.556 +0100|138391.3261616667|0.237091064453125|0.365875244140625|-1.040847778320312|138391.3061996667|2.806245967651554|-0.1129783305693978|-0.2271618441201986|1.232142925262451|-0.5438060760498047|2.671005249023438|0.4024909734725952|0.1347562372684479|-0.06209933757781982|XArbitraryZVertical|0.03642415551314312|-0.1209308274052271|0.9791281135646538|0.159239845194996|-0.1098418384790421|0.2252131849527359|-0.9680980443954468|0|0|0|-1|-1|3
2021-04-22 21:03:40.576 +0100|138391.3461236667|0.2418212890625|0.3168487548828125|-1.084503173828125|138391.3261616667|2.865067627955842|-0.1102774717310441|-0.2058594450834929|1.467586874961853|-0.4459357857704163|2.798851728439331|0.3650095760822296|0.2031224817037582|-0.05815809965133667|XArbitraryZVertical|0.04015651027618769|-0.1091681772944139|0.984498067629636|0.1312761659906019|-0.1077303737401962|0.2044085264205933|-0.9729395508766174|0|0|0|-1|-1|3
2021-04-22 21:03:40.596 +0100|138391.3660846667|0.263031005859375|0.347412109375|-1.123886108398438|138391.3461236667|2.925546440253086|-0.1059514168309546|-0.1847193113889666|1.258497476577759|-0.3014024794101715|2.880882024765015|0.3397489786148071|0.1449113637208939|-0.07960772514343262|XArbitraryZVertical|0.04248842907864639|-0.09724664831553262|0.9890718037182011|0.1023479641876451|-0.1039542108774185|0.1836706250905991|-0.977475643157959|0|0|0|-1|-1|3
2021-04-22 21:03:40.616 +0100|138391.3860466667|0.2412109375|0.4191436767578125|-1.140960693359375|138391.3660846667|2.986876662972437|-0.100106627877817|-0.1683982038996716|0.9903724193572998|-0.2113383710384369|2.955130577087402|0.3541417121887207|0.1557752639055252|-0.1292192935943604|XArbitraryZVertical|0.04321491130487488|-0.08759596854863273|0.9925583380613348|0.07271553812271961|-0.09852581471204758|0.1676034331321716|-0.980918824672699|0|0|0|-1|-1|3
2021-04-22 21:03:40.636 +0100|138391.4060086667|0.1511077880859375|0.5331268310546875|-1.123504638671875|138391.3860466667|3.04805766306944|-0.09416860138519238|-0.1569475255294725|0.7385644912719727|-0.1856210380792618|2.932633399963379|0.3522280156612396|0.2101197093725204|-0.1428574919700623|XArbitraryZVertical|0.04320989137441587|-0.08041436636207275|0.9949014136693461|0.04286924179051135|-0.09287376701831818|0.1563039869070053|-0.9833328723907471|0|0|0|-1|-1|3
2021-04-22 21:03:40.656 +0100|138391.4259696667|-0.066253662109375|0.7076416015625|-1.086212158203125|138391.4060086667|3.10670905103034|-0.08944079775373111|-0.1499302353280154|0.5160929560661316|-0.2353992462158203|2.776772737503052|0.2942222058773041|0.3416119813919067|-0.1587256789207458|XArbitraryZVertical|0.04326822054446176|-0.07558617139290293|0.9961014118288685|0.01402684514264149|-0.08831954002380371|0.1493691504001617|-0.9848291873931885|0|0|0|-1|-1|3
2021-04-22 21:03:40.676 +0100|138391.4459316667|-0.4453582763671875|0.8087310791015625|-1.053619384765625|138391.4259696667|-3.12195703433194|-0.08697865237418693|-0.1449338559219171|0.5300217866897583|-0.3370453715324402|2.548713207244873|0.1585295647382736|0.4654353260993958|-0.1113322377204895|XArbitraryZVertical|0.04406958042350585|-0.07190585920588327|0.9963535543809779|-0.01293026421446069|-0.08595824241638184|0.1444269865751266|-0.98577481508255|0|0|0|-1|-1|3
2021-04-22 21:03:40.696 +0100|138391.4658936667|-0.688323974609375|0.8774261474609375|-1.0396728515625|138391.4459316667|-3.072186751855199|-0.08654500723607103|-0.1378163231622033|0.5577971339225769|-0.2859463393688202|2.287217617034912|-0.1727286577224731|0.6412745714187622|-0.08160942792892456|XArbitraryZVertical|0.04551705729590692|-0.06725041089508904|0.9959895487202693|-0.03755799838033311|-0.08561744540929794|0.1373804658651352|-0.9868111610412598|0|0|0|-1|-1|3
2021-04-22 21:03:40.716 +0100|138391.4858546667|-0.6664276123046875|0.9052734375|-0.99688720703125|138391.4658936667|-3.02971051253115|-0.08469901388610662|-0.1325603833215761|0.3257932066917419|-0.09485282748937607|1.851665854454041|-0.5138612985610962|0.710966169834137|-0.03898388147354126|XArbitraryZVertical|0.04587762223796948|-0.06370683500207178|0.9951934799337679|-0.05853877733959516|-0.08385558426380157|0.1321724951267242|-0.9876733422279358|0|0|0|-1|-1|3
2021-04-22 21:03:40.736 +0100|138391.5058166667|-0.6072845458984375|0.9630126953125|-0.91705322265625|138391.4858546667|-2.996065684379052|-0.08093387460957628|-0.1306278506310898|0.1959567368030548|0.009236983954906464|1.476560592651367|-0.6182528734207153|0.7690495848655701|-0.03845292329788208|XArbitraryZVertical|0.04500382523040408|-0.06210665284186525|0.9942207092441933|-0.07511838026891215|-0.08015676587820053|0.1302566677331924|-0.98823481798172|0|0|0|-1|-1|3
2021-04-22 21:03:40.756 +0100|138391.5257786667|-0.642974853515625|1.00164794921875|-0.805755615234375|138391.5058166667|-2.969164067014616|-0.07732917465587863|-0.1280261436735647|0.277344286441803|0.008528582751750946|1.171807885169983|-0.5541781187057495|0.8000414371490479|0.02275675535202026|XArbitraryZVertical|0.04393663281147184|-0.06036247050397862|0.9932893690182891|-0.08833050764388885|-0.07661988586187363|0.1276766955852509|-0.9888519048690796|0|0|0|-1|-1|3
2021-04-22 21:03:40.776 +0100|138391.5457396667|-0.603057861328125|1.066513061523438|-0.8210906982421875|138391.5257786667|-2.948207701941836|-0.0729801756966612|-0.1239448537825661|0.2420720756053925|0.193130224943161|0.8839430212974548|-0.5498664975166321|0.8682688474655151|0.1291218996047974|XArbitraryZVertical|0.0422169961702058|-0.0580871533030083|0.9925388671529425|-0.09854130617359558|-0.07235605269670486|0.1236277520656586|-0.9896872043609619|0|0|0|-1|-1|3
2021-04-22 21:03:40.796 +0100|138391.5657016667|-0.479095458984375|1.121673583984375|-0.87176513671875|138391.5457396667|-2.933015215068012|-0.06440381365429849|-0.1227241019023294|-0.07295782119035721|0.4629194140434265|0.6132882833480835|-0.5737892389297485|0.8904153108596802|0.1860235333442688|XArbitraryZVertical|0.03834160442605724|-0.05761342148810117|0.9919749251769939|-0.1058136825984823|-0.06387524306774139|0.1224162727594376|-0.9904212355613708|0|0|0|-1|-1|3
2021-04-22 21:03:40.816 +0100|138391.5856626667|-0.415924072265625|1.101669311523438|-0.810028076171875|138391.5657016667|-2.922799202987804|-0.05226724929073626|-0.1276379482985892|-0.3579807579517365|0.5971094965934753|0.4535189867019653|-0.4857636094093323|0.9689902663230896|0.1270310878753662|XArbitraryZVertical|0.03288213049326346|-0.06052567102403779|0.9914779092207023|-0.1105757302713929|-0.05181847140192986|0.127291664481163|-0.9905108213424683|0|0|0|-1|-1|3
2021-04-22 21:03:40.836 +0100|138391.6056246667|-0.44281005859375|1.074325561523438|-0.7589111328125|138391.5856626667|-2.915253457705056|-0.03859084000765863|-0.1403039226756253|-0.9170265793800354|0.6778135895729065|0.3428885042667389|-0.3998773694038391|0.9936997890472412|0.1406050324440002|XArbitraryZVertical|0.0270378104332314|-0.06745958077238796|0.9908220750157415|-0.1139732395108633|-0.03820214420557022|0.1398440599441528|-0.9894363284111023|0|0|0|-1|-1|3
2021-04-22 21:03:40.855 +0100|138391.6255866667|-0.538543701171875|1.111587524414062|-0.685028076171875|138391.6056246667|-2.91083572671639|-0.02301859206038655|-0.1650425983097462|-1.5419762134552|0.8113046288490295|0.1760601252317429|-0.4026956558227539|0.900478184223175|0.2085314989089966|XArbitraryZVertical|0.02088228037484988|-0.08055376804185518|0.9897961913004786|-0.1156656481932456|-0.02270379476249218|0.1642943471670151|-0.9861500263214111|0|0|0|-1|-1|3
2021-04-22 21:03:40.875 +0100|138391.6455476667|-0.7595977783203125|1.340240478515625|-0.643463134765625|138391.6255866667|-2.908994286767576|-0.0047525438111182|-0.2008954941187323|-2.064945936203003|1.01941990852356|0.07670174539089203|-0.4764370918273926|0.8951328992843628|0.2307772636413574|XArbitraryZVertical|0.01398437249298216|-0.09932688526229413|0.9882079128321856|-0.1156886707656693|-0.004656944423913956|0.1995468884706497|-0.979877233505249|0|0|0|-1|-1|3
2021-04-22 21:03:40.895 +0100|138391.6655096667|-1.125457763671875|2.060302734375|-0.68560791015625|138391.6455476667|-2.907570464022784|0.01968674132391889|-0.246566479230701|-2.478747129440308|1.437349200248718|-0.003976319450885057|-0.6502543091773987|0.9294157028198242|0.310434103012085|XArbitraryZVertical|0.004653779747855582|-0.1232648004290932|0.9857177786831357|-0.1146504624805109|0.01909010671079159|0.2440757304430008|-0.9695682525634766|0|0|0|-1|-1|3
2021-04-22 21:03:40.915 +0100|138391.6854716667|-1.6478271484375|2.906707763671875|-0.459014892578125|138391.6655096667|-2.90810975937377|0.05203539083238651|-0.2982332232656562|-2.607369899749756|1.811497092247009|-0.186759889125824|-0.9758936166763306|1.395894885063171|0.2569465041160583|XArbitraryZVertical|-0.008252538368620041|-0.1504999360395308|0.9822894528133643|-0.1113063360281612|0.04971595481038094|0.2938318848609924|-0.954563319683075|0|0|0|-1|-1|3
2021-04-22 21:03:40.935 +0100|138391.7054326667|-1.7066650390625|4.123626708984375|-0.474639892578125|138391.6854716667|-2.911457693799496|0.09237312465612746|-0.3513848635641802|-2.712446928024292|2.427809238433838|-0.6506000757217407|-1.467235684394836|2.120522499084473|0.305102527141571|XArbitraryZVertical|-0.02511187962683113|-0.1786682599648749|0.9779781423054479|-0.1049090061552566|0.08660555630922318|0.3441983759403229|-0.9348940849304199|0|0|0|-1|-1|3
2021-04-22 21:03:40.955 +0100|138391.7253946667|-0.6045684814453125|5.12103271484375|-0.978668212890625|138391.7054326667|-2.933022494840688|0.142983608487306|-0.4093095506079458|-2.897810220718384|3.458834409713745|-2.219569683074951|-1.955386877059937|3.049242973327637|0.4699538946151733|XArbitraryZVertical|-0.04845893085343379|-0.2088892284937891|0.9728355042206729|-0.08722549383127313|0.1307260692119598|0.3979760110378265|-0.9080340266227722|0|0|0|-1|-1|3
2021-04-22 21:03:40.975 +0100|138391.7453566667|1.005294799804688|6.497817993164062|-1.677902221679688|138391.7253946667|-2.999355613195642|0.1904971989326302|-0.4804566298994646|-3.128227472305298|4.101580142974854|-5.104580402374268|-1.419801592826843|4.231967926025391|0.2074423432350159|XArbitraryZVertical|-0.07531012904406706|-0.2428111395268493|0.9660450115006981|-0.04613472619682125|0.1679099947214127|0.4621841609477997|-0.8707422614097595|0|0|0|-1|-1|3
2021-04-22 21:03:40.995 +0100|138391.7653176667|2.977127075195312|6.66900634765625|-1.48272705078125|138391.7453566667|3.130334046153286|0.1915992424026351|-0.5746716256418261|-3.125190496444702|3.556168556213379|-10.00266742706299|-0.02705800533294678|5.264560699462891|-0.5230197906494141|XArbitraryZVertical|-0.09331814820419247|-0.2815779460951701|0.9544373440739817|0.0324812386927156|0.1598406434059143|0.543559193611145|-0.8240111470222473|0|0|0|-1|-1|3
2021-04-22 21:03:41.015 +0100|138391.7852796667|4.468093872070312|5.643569946289062|-1.744384765625|138391.7653176667|2.846904158845|0.0899925032409398|-0.6455730868194972|-0.1689588874578476|2.861675500869751|-13.57937145233154|1.962944865226746|6.141720771789551|-0.8937016725540161|XArbitraryZVertical|-0.08871886505989267|-0.3071929686094725|0.9350350352891407|0.1532025730970715|0.07178498804569244|0.6016563177108765|-0.7955228686332703|0|0|0|-1|-1|3
2021-04-22 21:03:41.035 +0100|138391.8052416667|6.051300048828125|4.92828369140625|-1.813430786132812|138391.7852796667|2.483045844416782|-0.08180972505580472|-0.6154902586374147|3.413038969039917|1.586599946022034|-15.44773387908936|3.789623737335205|5.827746391296387|-0.525657057762146|XArbitraryZVertical|-0.06098731616032761|-0.2989994416260507|0.9050716792458489|0.2961847806387093|-0.06672238558530807|0.5773589015007019|-0.8137597441673279|0|0|0|-1|-1|3
2021-04-22 21:03:41.055 +0100|138391.8252026667|7.515426635742188|2.405044555664062|-0.587310791015625|138391.8052416667|2.14592227499551|-0.2413420762166511|-0.4576929531945426|6.971086502075195|-0.102665588259697|-15.50792789459229|5.405111312866211|4.940246105194092|-1.285998821258545|XArbitraryZVertical|-0.004531538435719137|-0.2538538216102681|0.862529439319796|0.4376994159563667|-0.2144061625003815|0.4418796896934509|-0.8710753917694092|0|0|0|-1|-1|3
2021-04-22 21:03:41.075 +0100|138391.8451646667|5.8502197265625|-0.334014892578125|-0.04833984375|138391.8252026667|1.88645947540611|-0.356182333379139|-0.2310112812803395|7.072468280792236|-2.498387575149536|-14.0578441619873|7.357396125793457|3.569805383682251|-0.2879191040992737|XArbitraryZVertical|0.07583992124009811|-0.1951397719707992|0.8033357454224798|0.557512782067443|-0.3394356667995453|0.2289620637893677|-0.9123375415802002|0|0|0|-1|-1|3
2021-04-22 21:03:41.095 +0100|138391.8651266667|3.800094604492188|-1.313674926757812|0.801849365234375|138391.8451646667|1.705656413615912|-0.4526280382130426|-0.01850037465444811|5.132966041564941|-4.579200267791748|-10.67867088317871|7.492264270782471|0.9294075965881348|0.5299296975135803|XArbitraryZVertical|0.163058463917131|-0.1543969816239923|0.7352729352563847|0.6394900313645323|-0.4372556209564209|0.01849931851029396|-0.8991470336914062|0|0|0|-1|-1|3
2021-04-22 21:03:41.115 +0100|138391.8850876667|3.283416748046875|-1.338272094726562|0.495697021484375|138391.8651266667|1.572935445265335|-0.5385291794230783|0.1278998113487746|1.469996452331543|-4.498867511749268|-8.155078887939453|5.168551921844482|-0.9568139314651489|1.382716774940491|XArbitraryZVertical|0.2314362020811114|-0.1439141270879924|0.6689529929827793|0.6915403909102488|-0.5086847543716431|-0.1275513917207718|-0.8514519929885864|0|0|0|-1|-1|3
2021-04-22 21:03:41.135 +0100|138391.9050496667|3.029586791992188|-1.608123779296875|0.6170654296875|138391.8850876667|1.455692154062352|-0.6001244182873229|0.2049010359278984|-0.8944153189659119|-3.800494194030762|-5.441510677337646|3.911406517028809|-1.046345949172974|1.491793274879456|XArbitraryZVertical|0.2685521009531748|-0.1545279652907153|0.6096359115759464|0.7296198011917758|-0.5529313087463379|-0.2034702599048615|-0.8080017566680908|0|0|0|-1|-1|3
2021-04-22 21:03:41.155 +0100|138391.9250116667|2.608001708984375|-1.72381591796875|0.497100830078125|138391.9050496667|1.372263303775347|-0.6524460761720695|0.2268145124583084|-1.855023860931396|-3.154443025588989|-2.675831317901611|3.786452293395996|-1.28963565826416|1.33551299571991|XArbitraryZVertical|0.2846654584835321|-0.1784399479323883|0.5682214832972389|0.7511652379505561|-0.5915818214416504|-0.2248747646808624|-0.7742494940757751|0|0|0|-1|-1|3
2021-04-22 21:03:41.175 +0100|138391.9449726667|1.817550659179688|-1.715606689453125|0.1629180908203125|138391.9250116667|1.322375826667608|-0.6986109713850146|0.2190771640197806|-1.703238129615784|-2.599812746047974|-0.6986098289489746|3.496709823608398|-1.447083711624146|1.342541456222534|XArbitraryZVertical|0.2899693052485444|-0.2054283232796685|0.5439848706266751|0.7601300012621308|-0.6277822852134705|-0.2173289358615875|-0.7474340200424194|0|0|0|-1|-1|3
2021-04-22 21:03:41.195 +0100|138391.9649346667|1.14312744140625|-1.403350830078125|-0.3211822509765625|138391.9449726667|1.299330700356103|-0.7367635534544711|0.1939081973113995|-1.738342761993408|-1.617387413978577|0.5203874707221985|2.877945899963379|-1.538978099822998|1.08647632598877|XArbitraryZVertical|0.2887233741801108|-0.2307719211672758|0.5339285116586179|0.7604627218939031|-0.6593021750450134|-0.1926953047513962|-0.7267662882804871|0|0|0|-1|-1|3
2021-04-22 21:03:41.215 +0100|138391.9848966667|0.6925506591796875|-0.9967041015625|-0.64697265625|138391.9649346667|1.287050869297109|-0.7552705577903731|0.1552013841758517|-1.929466009140015|-0.5006687641143799|1.183062076568604|2.129181623458862|-1.458747148513794|0.6169173121452332|XArbitraryZVertical|0.2782227347301727|-0.2508479379097417|0.5331959399358082|0.758531236719387|-0.6772464513778687|-0.1545790731906891|-0.7193348407745361|0|0|0|-1|-1|3
2021-04-22 21:03:41.235 +0100|138392.0048576667|0.361785888671875|-0.7248687744140625|-0.89111328125|138391.9848966667|1.283196075841304|-0.7563359164672119|0.1098261553066596|-1.529540777206421|0.286725252866745|1.624712705612183|1.577237844467163|-1.075147151947021|0.22271329164505|XArbitraryZVertical|0.2614995489021986|-0.2648232522543939|0.5391164140254768|0.7555397916686948|-0.6821264028549194|-0.1096055060625076|-0.7229732871055603|0|0|0|-1|-1|3
2021-04-22 21:03:41.255 +0100|138392.0248196667|0.11602783203125|-0.410736083984375|-1.00604248046875|138392.0048576667|1.292486536791832|-0.746480501880835|0.0672295392687173|-1.016944050788879|0.7348257899284363|1.955440044403076|1.197789430618286|-0.7841081619262695|-0.06068152189254761|XArbitraryZVertical|0.2444397203345493|-0.2720968316758233|0.5506306194238383|0.7503457294373903|-0.6775254011154175|-0.06717890501022339|-0.7324250936508179|0|0|0|-1|-1|3
2021-04-22 21:03:41.275 +0100|138392.0447806667|0.0054931640625|-0.130828857421875|-1.121963500976562|138392.0248196667|1.311358548189589|-0.7296695203898301|0.02697028368504265|-0.6850908398628235|1.010734438896179|2.125025272369385|0.8860316276550293|-0.5533239841461182|-0.2135102152824402|XArbitraryZVertical|0.2275022521439237|-0.275101581163128|0.5657037812870442|0.7433311546158334|-0.6663809418678284|-0.0269670132547617|-0.7451236844062805|0|0|0|-1|-1|3
2021-04-22 21:03:41.295 +0100|138392.0647426667|-0.0465087890625|0.0275726318359375|-1.239456176757812|138392.0447806667|1.337870201420706|-0.7082682240539635|-0.008396364735969927|-0.2218824625015259|1.134837985038757|2.209833860397339|0.7023159861564636|-0.2644837498664856|-0.3024272918701172|XArbitraryZVertical|0.2119639928741343|-0.2744810879297774|0.582805737403201|0.7348937793712327|-0.6504965424537659|0.008396266028285027|-0.7594627737998962|0|0|0|-1|-1|3
2021-04-22 21:03:41.315 +0100|138392.0847046667|-0.08099365234375|0.0290374755859375|-1.2684326171875|138392.0647426667|1.371282365329678|-0.6844107522931955|-0.03776930877598095|0.04249821975827217|1.144411683082581|2.21911883354187|0.5937871932983398|-0.06510332226753235|-0.4198225736618042|XArbitraryZVertical|0.1986632213849889|-0.2709489527802521|0.6012546103513686|0.724991476572049|-0.6317657232284546|0.03776032850146294|-0.774239182472229|0|0|0|-1|-1|3
2021-04-22 21:03:41.335 +0100|138392.1046656667|-0.2261505126953125|0.1830291748046875|-1.240829467773438|138392.0847046667|1.405607136313931|-0.6619885934230307|-0.06488218084881224|-0.08659061789512634|0.8988482356071472|2.150811195373535|0.568792462348938|-0.05421581864356995|-0.4765910506248474|XArbitraryZVertical|0.1865397216145016|-0.2676696379936443|0.6189963213352025|0.7144225695126244|-0.613393247127533|0.06483666598796844|-0.7871118187904358|0|0|0|-1|-1|3
2021-04-22 21:03:41.355 +0100|138392.1246276667|-0.29010009765625|0.2601470947265625|-1.190216064453125|138392.1046656667|1.436268754409402|-0.6435346229188341|-0.09274937581715395|-0.2076936215162277|0.727907121181488|2.012464761734009|0.433752179145813|0.0142110288143158|-0.4437238574028015|XArbitraryZVertical|0.1747409656570217|-0.2668236480036636|0.6345807648157105|0.7039730320491497|-0.5974478125572205|0.09261645376682281|-0.7965414524078369|0|0|0|-1|-1|3
2021-04-22 21:03:41.375 +0100|138392.1445896667|-0.3114471435546875|0.2946319580078125|-1.119583129882812|138392.1246276667|1.466931528840636|-0.6271113897875661|-0.1194093567123019|-0.1283162236213684|0.5937448143959045|2.032750844955444|0.3256571292877197|0.1263277679681778|-0.4142410755157471|XArbitraryZVertical|0.1639540133710796|-0.2667190609874394|0.6493451592167363|0.6930591904657594|-0.5826296806335449|0.1191257908940315|-0.8039600253105164|0|0|0|-1|-1|3
2021-04-22 21:03:41.394 +0100|138392.1645506667|-0.22027587890625|0.3638153076171875|-1.144195556640625|138392.1445896667|1.498141264557127|-0.6109104402806925|-0.1453941185885794|-0.2094833701848984|0.6609234809875488|1.996269822120667|0.2483022809028625|0.1245732009410858|-0.3258389830589294|XArbitraryZVertical|0.1535133236428798|-0.2668181662438798|0.663717585134185|0.6817044013588731|-0.5675612092018127|0.144882395863533|-0.810483455657959|0|0|0|-1|-1|3
2021-04-22 21:03:41.414 +0100|138392.1845126667|-0.2085418701171875|0.4280853271484375|-1.190719604492188|138392.1645506667|1.529042453134829|-0.5914138249476392|-0.1718412843342999|-0.1991983354091644|0.7802862524986267|2.03737211227417|0.2915424108505249|0.1518187671899796|-0.3189758062362671|XArbitraryZVertical|0.1417259605392329|-0.2663654182450655|0.6777538437068283|0.6705319488678639|-0.5493236780166626|0.1709968000650406|-0.8179264068603516|0|0|0|-1|-1|3
2021-04-22 21:03:41.434 +0100|138392.2044746667|-0.2104034423828125|0.3586578369140625|-1.197784423828125|138392.1845126667|1.562660418228653|-0.5684850919556381|-0.1969321264844672|-0.1004988849163055|0.8953595161437988|2.118209838867188|0.3111085891723633|0.2068047076463699|-0.3449885845184326|XArbitraryZVertical|0.1295342289757732|-0.26458718946972|0.6922655565185127|0.6587738121014042|-0.5279504060745239|0.1956616789102554|-0.826429009437561|0|0|0|-1|-1|3
2021-04-22 21:03:41.454 +0100|138392.2244356667|-0.2623291015625|0.4286651611328125|-1.158355712890625|138392.2044746667|1.599360614890636|-0.542769970929488|-0.2228712238321228|-0.2683327794075012|0.9167208671569824|2.321887969970703|0.3121616840362549|0.1725855320692062|-0.3713642954826355|XArbitraryZVertical|0.1163803460560428|-0.2624961734528242|0.7073772871247268|0.645886214892576|-0.5037349462509155|0.2210307419300079|-0.8351027369499207|0|0|0|-1|-1|3
2021-04-22 21:03:41.474 +0100|138392.244397125|-0.2524566650390625|0.5780029296875|-1.077896118164062|138392.2244356667|1.63768471821857|-0.5150465570906658|-0.2541895118923563|-0.5186755657196045|0.9207357168197632|2.490146636962891|0.232180655002594|0.1322522461414337|-0.3489329814910889|XArbitraryZVertical|0.100785611301673|-0.2620865618166101|0.7226255458370431|0.631637004807392|-0.4767476618289948|0.2514610588550568|-0.8423057794570923|0|0|0|-1|-1|3
2021-04-22 21:03:41.494 +0100|138392.264359125|-0.112030029296875|0.5499420166015625|-1.054901123046875|138392.244397125|1.679268212038729|-0.4851906203406756|-0.2878260143710541|-0.479716956615448|0.9926578998565674|2.623130798339844|0.1728854179382324|0.21550652384758|-0.2758266925811768|XArbitraryZVertical|0.08401269313434678|-0.2623800985900889|0.7381360350753157|0.6158359222601186|-0.4471917748451233|0.2838683426380157|-0.8481971025466919|0|0|0|-1|-1|3
2021-04-22 21:03:41.514 +0100|138392.284320125|-0.2228546142578125|0.586273193359375|-1.064971923828125|138392.264359125|1.725790844590653|-0.4515090554342156|-0.3192959522159736|-0.3508450388908386|0.9317636489868164|2.788577079772949|0.2443801760673523|0.2628539502620697|-0.2078990936279297|XArbitraryZVertical|0.06715018022179894|-0.261410017891529|0.754172984785127|0.59864747205739|-0.4142706096172333|0.3138981759548187|-0.8543112874031067|0|0|0|-1|-1|3
2021-04-22 21:03:41.534 +0100|138392.304282125|-0.2278289794921875|0.61456298828125|-1.100265502929688|138392.284320125|1.776468351098807|-0.4169408594308249|-0.3496446451687045|-0.3698312342166901|0.8978365063667297|2.79836368560791|0.2348795235157013|0.2221031486988068|-0.1718741059303284|XArbitraryZVertical|0.05080876858513821|-0.2606021406842167|0.7702938854090002|0.5797866928014174|-0.3804626762866974|0.3425639867782593|-0.8590099811553955|0|0|0|-1|-1|3
2021-04-22 21:03:41.554 +0100|138392.324244125|-0.108062744140625|0.6339263916015625|-0.99176025390625|138392.304282125|1.829166972279907|-0.3818533376490709|-0.3780109991353853|-0.3120143711566925|0.7258781790733337|2.856053352355957|0.1061908900737762|0.2155376970767975|-0.2244532704353333|XArbitraryZVertical|0.03512999140857818|-0.2598756409050196|0.7858113331903717|0.5601172096028575|-0.3463327288627625|0.3690726161003113|-0.8624610900878906|0|0|0|-1|-1|3
2021-04-22 21:03:41.574 +0100|138392.344205125|-0.0689239501953125|0.581207275390625|-0.8463897705078125|138392.324244125|1.884682444225392|-0.3482539860427133|-0.4031527678531723|-0.1852634251117706|0.4950772225856781|2.884539604187012|0.1314192712306976|0.2594133615493774|-0.2042213082313538|XArbitraryZVertical|0.02138421710801283|-0.2593010359186808|0.8009648119707519|0.5392228587710717|-0.313898116350174|0.392320305109024|-0.8646113872528076|0|0|0|-1|-1|3
2021-04-22 21:03:41.594 +0100|138392.364167125|-0.1443939208984375|0.5269012451171875|-0.7844085693359375|138392.344205125|1.944167795602394|-0.3168886675965582|-0.424938390949593|-0.1149352639913559|0.251181572675705|2.979411602020264|0.2127475142478943|0.1910528242588043|-0.05177885293960571|XArbitraryZVertical|0.01005129141200182|-0.2589363710568022|0.8161233826551205|0.5165207595373416|-0.2838982045650482|0.4122646450996399|-0.8657018542289734|0|0|0|-1|-1|3
2021-04-22 21:03:41.614 +0100|138392.384129125|-0.2416229248046875|0.570404052734375|-0.796478271484375|138392.364167125|2.007360959718094|-0.2869621470293641|-0.4448246719193537|-0.08973056077957153|0.08592738956212997|3.083039045333862|0.1595194637775421|0.1152632832527161|0.07436102628707886|XArbitraryZVertical|0.0003541302738522066|-0.2590618926159118|0.8311683121391772|0.4919818862773099|-0.2554962038993835|0.4302996098995209|-0.865773618221283|0|0|0|-1|-1|3
2021-04-22 21:03:41.634 +0100|138392.404090125|-0.3189239501953125|0.653656005859375|-0.787872314453125|138392.384129125|2.073889483653523|-0.2581959443189913|-0.462982024395739|-0.04950094595551491|-0.1144030913710594|3.159030437469482|0.03915657103061676|0.09200188517570496|0.0710599422454834|XArbitraryZVertical|-0.007904339607650983|-0.2596233046700716|0.8459479089216827|0.4657312625893585|-0.2284560650587082|0.4466181695461273|-0.8650665283203125|0|0|0|-1|-1|3
2021-04-22 21:03:41.654 +0100|138392.424052125|-0.298248291015625|0.6844482421875|-0.789398193359375|138392.404090125|2.14269847900109|-0.2301959172665899|-0.4768375569343304|0.2194717675447464|-0.1880185753107071|3.132403373718262|-0.08520074188709259|0.153851717710495|0.06791090965270996|XArbitraryZVertical|-0.01439753324935776|-0.2593938778916684|0.8603615740384845|0.4385039354461012|-0.2027163058519363|0.4589717984199524|-0.8650150299072266|0|0|0|-1|-1|3
2021-04-22 21:03:41.674 +0100|138392.444014125|-0.1910247802734375|0.7018585205078125|-0.78851318359375|138392.424052125|2.212385675433335|-0.2012387019664173|-0.4828557462405841|0.4854888021945953|-0.1352858543395996|3.051182746887207|-0.1554874330759048|0.2171471416950226|0.07658523321151733|XArbitraryZVertical|-0.01938907427501428|-0.2563675635916436|0.874441573831104|0.411402054226181|-0.1770310550928116|0.4643103182315826|-0.8677994608879089|0|0|0|-1|-1|3
2021-04-22 21:03:41.694 +0100|138392.463975125|-0.1386566162109375|0.8204498291015625|-0.7794036865234375|138392.444014125|2.281350816149215|-0.1721841556973891|-0.4845227673487912|0.4429585039615631|-0.1694265007972717|2.975862264633179|-0.08071574568748474|0.2105138301849365|0.07861441373825073|XArbitraryZVertical|-0.02379108777863116|-0.2520472810554268|0.8877066633417126|0.3845559529202211|-0.1516135483980179|0.4657860994338989|-0.8718122839927673|0|0|0|-1|-1|3
2021-04-22 21:03:41.714 +0100|138392.483937125|-0.093658447265625|0.9683380126953125|-0.8213348388671875|138392.463975125|2.347531747443944|-0.1441777065133268|-0.4860724472285975|0.3506897687911987|-0.1038104221224785|2.840332508087158|-0.03841295838356018|0.2864745557308197|0.09474217891693115|XArbitraryZVertical|-0.02834184301015371|-0.2483876602102738|0.8994887423568589|0.3583579613149105|-0.1270370483398438|0.467156857252121|-0.8750005960464478|0|0|0|-1|-1|3
2021-04-22 21:03:41.734 +0100|138392.503899125|-0.064300537109375|1.05706787109375|-0.9128265380859375|138392.483937125|2.411435245480412|-0.1156494652607579|-0.4856170221180997|0.4456784725189209|-0.02990440279245377|2.782410621643066|-0.01151908189058304|0.43447545170784|0.0828859806060791|XArbitraryZVertical|-0.03329521484894755|-0.2442369652026414|0.9101408521307113|0.3329916253177024|-0.1020510569214821|0.466754138469696|-0.8784794807434082|0|0|0|-1|-1|3
2021-04-22 21:03:41.754 +0100|138392.523860125|0.025482177734375|1.064285278320312|-0.9681243896484375|138392.503899125|2.474890761022993|-0.08629933337622252|-0.4816759537512354|0.4779592156410217|0.01140298414975405|2.786892652511597|-0.006346873939037323|0.5633306503295898|0.02066254615783691|XArbitraryZVertical|-0.03838743831288843|-0.2388839431175556|0.9201908971257757|0.3077494874912799|-0.07638528198003769|0.4632650911808014|-0.8829217553138733|0|0|0|-1|-1|3
2021-04-22 21:03:41.774 +0100|138392.543822125|0.1346282958984375|1.1287841796875|-0.9534454345703125|138392.523860125|2.538042108770233|-0.05666809634654388|-0.4780616813515182|0.2768783867359161|0.01620540767908096|2.777707099914551|0.02636322006583214|0.6024100780487061|-0.05848342180252075|XArbitraryZVertical|-0.04405995653935544|-0.2341520279554002|0.9292843421822989|0.2822449880011799|-0.05028801783919334|0.4600590169429779|-0.8864631056785583|0|0|0|-1|-1|3
2021-04-22 21:03:41.794 +0100|138392.563784125|0.135528564453125|1.14849853515625|-0.91448974609375|138392.543822125|2.600926924909057|-0.02821641696518627|-0.4771182487985731|0.09402237832546234|-0.05985580012202263|2.812471389770508|0.1146167367696762|0.6321022510528564|-0.07725709676742554|XArbitraryZVertical|-0.04988856372486204|-0.2313589064587214|0.9371871758117125|0.2562507394595198|-0.02506193704903126|0.4592211544513702|-0.8879683613777161|0|0|0|-1|-1|3
2021-04-22 21:03:41.814 +0100|138392.583745125|0.0174407958984375|1.073715209960938|-0.8648834228515625|138392.563784125|2.664944035285854|-0.001035384798452989|-0.4751859196901471|0.2120240032672882|-0.1643746048212051|2.899372100830078|0.1515258550643921|0.6875457763671875|-0.04801833629608154|XArbitraryZVertical|-0.05507451531608083|-0.2288300298145058|0.9444650370204936|0.2293243162991187|-0.0009206719696521759|0.4575037658214569|-0.8892072439193726|0|0|0|-1|-1|3
2021-04-22 21:03:41.833 +0100|138392.603707125|-0.023468017578125|1.003524780273438|-0.8412628173828125|138392.583745125|2.7317158916537|0.02609937357232179|-0.4693880009805073|0.2450459897518158|-0.1243986263871193|3.049359083175659|0.06043665856122971|0.6681423187255859|0.00398331880569458|XArbitraryZVertical|-0.0597465337537157|-0.2250768038356966|0.9515341926691351|0.2008820472209091|0.02327396161854267|0.4523405730724335|-0.8915415406227112|0|0|0|-1|-1|3
2021-04-22 21:03:41.854 +0100|138392.623669125|0.0395355224609375|0.9366455078125|-0.848724365234375|138392.603707125|2.800248973392453|0.05623439973138392|-0.4634784296734746|0.1026005074381828|0.05906030535697937|3.096031188964844|-0.07331523299217224|0.5801283121109009|0.04515773057937622|XArbitraryZVertical|-0.06595729241905386|-0.2215969397802411|0.9576519224475124|0.1716019480323502|0.05027532204985619|0.4470622837543488|-0.8930888772010803|0|0|0|-1|-1|3
2021-04-22 21:03:41.874 +0100|138392.643630125|0.09136962890625|0.9044952392578125|-0.85107421875|138392.623669125|2.869164429888011|0.08906417930557763|-0.457224718554889|0.0975341796875|0.138773187994957|3.113993883132935|-0.07579609751701355|0.535148024559021|0.04710578918457031|XArbitraryZVertical|-0.07370128880953866|-0.2184165297450625|0.9626334047068784|0.1421244295444475|0.07980999350547791|0.441459596157074|-0.8937246799468994|0|0|0|-1|-1|3
2021-04-22 21:03:41.894 +0100|138392.663592125|0.1501922607421875|0.88385009765625|-0.853179931640625|138392.643630125|2.936928795972976|0.1214521455918245|-0.4483810749470555|0.1561294496059418|0.1129017546772957|3.032986640930176|-0.04310639202594757|0.4852695763111115|0.04365116357803345|XArbitraryZVertical|-0.08152904731924958|-0.2147021386632161|0.9667080055798222|0.1128349738773851|0.1091777458786964|0.4335072040557861|-0.8945119976997375|0|0|0|-1|-1|3
2021-04-22 21:03:41.913 +0100|138392.683554125|0.161895751953125|0.792236328125|-0.7649688720703125|138392.663592125|3.000319040881958|0.1492472320650966|-0.4381283981598306|0.06373479962348938|-0.07527966052293777|2.755597352981567|-0.01572148501873016|0.4852540194988251|0.04320067167282104|XArbitraryZVertical|-0.08788621702571486|-0.2110348822240309|0.96981393750989|0.08486111649988304|0.134649246931076|0.4242453873157501|-0.8954805731773376|0|0|0|-1|-1|3
2021-04-22 21:03:41.933 +0100|138392.703515125|0.121002197265625|0.77911376953125|-0.700042724609375|138392.683554125|3.056460652925069|0.1692604645223447|-0.4309620011107876|-0.1538774818181992|-0.2594890892505646|2.394988298416138|0.02047289907932281|0.4091127216815948|0.08446890115737915|XArbitraryZVertical|-0.09156562553207474|-0.2093452725827376|0.9717267552445843|0.0594777269905878|0.1530507802963257|0.4177450239658356|-0.8955805897712708|0|0|0|-1|-1|3
2021-04-22 21:03:41.953 +0100|138392.723477125|0.1220855712890625|0.7660369873046875|-0.7046661376953125|138392.703515125|3.105240097690862|0.1839051084465394|-0.4269169707849814|-0.1897233128547668|-0.2920666635036469|2.055369853973389|-0.02898988127708435|0.3655500411987305|0.1758112907409668|XArbitraryZVertical|-0.09355819976399944|-0.2092803054435166|0.9726611033901296|0.03713641408304848|0.1664569973945618|0.4140664637088776|-0.8948972225189209|0|0|0|-1|-1|3
2021-04-22 21:03:41.973 +0100|138392.743439125|0.1180419921875|0.688629150390625|-0.729583740234375|138392.723477125|-3.1367374141693|0.1949455472712922|-0.4213605316725262|0.07442604005336761|-0.3031246662139893|1.756634593009949|-0.05854393541812897|0.3687373101711273|0.2008053064346313|XArbitraryZVertical|-0.09466112544272978|-0.2083629160960818|0.9732937346508588|0.01798901160328133|0.1767696738243103|0.4090023636817932|-0.8952483534812927|0|0|0|-1|-1|3
2021-04-22 21:03:41.993 +0100|138392.763400125|0.106048583984375|0.5740203857421875|-0.7191314697265625|138392.743439125|-3.102818282803082|0.2021222090952041|-0.4102146968610121|0.389737069606781|-0.3585953116416931|1.51970636844635|-0.06034432351589203|0.3385739326477051|0.1814630031585693|XArbitraryZVertical|-0.09482762330349592|-0.204509786635211|0.9742591919237655|0.001661661504409158|0.184093713760376|0.3988062143325806|-0.8983669281005859|0|0|0|-1|-1|3
2021-04-22 21:03:42.013 +0100|138392.783362125|0.0893402099609375|0.49554443359375|-0.68377685546875|138392.763400125|-3.074557295138209|0.205398104615748|-0.3958506922330138|0.4497055113315582|-0.4316103458404541|1.323408842086792|-0.07790884375572205|0.2436478435993195|0.170104444026947|XArbitraryZVertical|-0.09390582820096607|-0.1988581408959979|0.9754384319837962|-0.01253655309386071|0.1881846934556961|0.3855932354927063|-0.9032742977142334|0|0|0|-1|-1|3
2021-04-22 21:03:42.033 +0100|138392.803324125|0.0802764892578125|0.45751953125|-0.65911865234375|138392.783362125|-3.050554309550948|0.2050010249777675|-0.3830742699651144|0.3428270518779755|-0.5165925025939941|1.115200400352478|-0.09330819547176361|0.1578263938426971|0.2039965987205505|XArbitraryZVertical|-0.09172895823424188|-0.1937436435235744|0.976435018285458|-0.02497836232566797|0.1888135373592377|0.3737736642360687|-0.9080983996391296|0|0|0|-1|-1|3
2021-04-22 21:03:42.053 +0100|138392.823285125|0.0933074951171875|0.4085845947265625|-0.653472900390625|138392.803324125|-3.030090100182379|0.2014605885549506|-0.3724845701889329|0.3419188857078552|-0.5953667759895325|0.9811761975288391|-0.1022719144821167|0.1056728363037109|0.2484492063522339|XArbitraryZVertical|-0.08840182261266377|-0.1894491503406974|0.9772442378086441|-0.03588972885101472|0.1863788962364197|0.363930732011795|-0.9125882983207703|0|0|0|-1|-1|3
2021-04-22 21:03:42.073 +0100|138392.843247125|0.1467742919921875|0.3683929443359375|-0.687469482421875|138392.823285125|-3.011527834081272|0.1958989378087629|-0.361464811688988|0.3793347775936127|-0.6198375821113586|0.9412832260131836|-0.1010607182979584|0.0792003870010376|0.2657094597816467|XArbitraryZVertical|-0.08437137495689019|-0.1847620577635491|0.9780702201461561|-0.04608059053007352|0.1820701509714127|0.3536447584629059|-0.9174889326095581|0|0|0|-1|-1|3
2021-04-22 21:03:42.093 +0100|138392.863209125|0.2309722900390625|0.371185302734375|-0.754730224609375|138392.843247125|-2.993644444977746|0.1899541114483828|-0.3509862094782215|0.3164196610450745|-0.5970120429992676|0.9125097990036011|-0.06127429008483887|0.04174935817718506|0.2576383352279663|XArbitraryZVertical|-0.08027687173299525|-0.1802327078216931|0.9787458862135096|-0.0559313265691348|0.1773026287555695|0.3438240587711334|-0.9221435785293579|0|0|0|-1|-1|3
2021-04-22 21:03:42.113 +0100|138392.883170125|0.355255126953125|0.4034576416015625|-0.8667755126953125|138392.863209125|-2.97578228009173|0.1850313774266885|-0.342069842756321|0.260834127664566|-0.4909542798995972|0.9173646569252014|0.008170336484909058|0.02512651681900024|0.2108936905860901|XArbitraryZVertical|-0.07668890459555287|-0.1764309766998312|0.9791271689635745|-0.06558311940913002|0.173318162560463|0.3354377448558807|-0.9259818196296692|0|0|0|-1|-1|3
2021-04-22 21:03:42.133 +0100|138392.903132125|0.425933837890625|0.445526123046875|-0.9658203125|138392.883170125|-2.957354721719253|0.1823350002279092|-0.3333516740755905|0.3001722991466522|-0.3946699500083923|0.9611482620239258|0.122723326086998|0.06197771430015564|0.1221573352813721|XArbitraryZVertical|-0.07420089365662083|-0.1727743893117847|0.9792719986337961|-0.07529703865134271|0.171344518661499|0.3272120356559753|-0.9292864799499512|0|0|0|-1|-1|3
2021-04-22 21:03:42.153 +0100|138392.923094125|0.3956298828125|0.4345703125|-1.011260986328125|138392.903132125|-2.938106715805761|0.1814834813563418|-0.3230267858866397|0.3745298683643341|-0.3166349530220032|1.030121803283691|0.2278944700956345|0.1106003522872925|0.004604578018188477|XArbitraryZVertical|-0.07270926992646289|-0.1684062458977704|0.9793215135753516|-0.08533624125424651|0.1711538136005402|0.3174382448196411|-0.9327054023742676|0|0|0|-1|-1|3
2021-04-22 21:03:42.173 +0100|138392.943055125|0.275726318359375|0.43377685546875|-1.03076171875|138392.923094125|-2.917284250592044|0.1823534735143446|-0.3121838597630522|0.2967887222766876|-0.2534142434597015|1.096742510795593|0.2525615096092224|0.1353357136249542|-0.06000947952270508|XArbitraryZVertical|-0.07205184521421731|-0.163906869063586|0.9791428489261679|-0.0960336763092256|0.1725792586803436|0.307137668132782|-0.9358861446380615|0|0|0|-1|-1|3
2021-04-22 21:03:42.193 +0100|138392.963017125|0.1336822509765625|0.4595184326171875|-1.100067138671875|138392.943055125|-2.896078034841671|0.1842573538195611|-0.3050283018593809|0.04644772410392761|-0.2101429402828217|1.007905244827271|0.1681521981954575|0.1286796927452087|-0.07973331212997437|XArbitraryZVertical|-0.07172219505436406|-0.1612752402763093|0.9785058270264786|-0.1066430969382589|0.1747589558362961|0.30032017827034|-0.9376924633979797|0|0|0|-1|-1|3
2021-04-22 21:03:42.213 +0100|138392.982979125|0.008697509765625|0.48004150390625|-1.1766357421875|138392.963017125|-2.876508463469096|0.1858244550006381|-0.3018140617627149|-0.02401877194643021|-0.2289850115776062|0.8904557228088379|0.02876441180706024|0.1455410718917847|-0.1207057237625122|XArbitraryZVertical|-0.0711379530116784|-0.160495344624531|0.9775805174776022|-0.116263432856914|0.1764056384563446|0.297252744436264|-0.9383612871170044|0|0|0|-1|-1|3
2021-04-22 21:03:42.233 +0100|138393.002940125|-0.0326385498046875|0.443389892578125|-1.21588134765625|138392.982979125|-2.85940520309686|0.1864914801361264|-0.297624237906058|0.1644915342330933|-0.1990343630313873|0.8082136511802673|-0.1121360063552856|0.17885622382164|-0.2059270143508911|XArbitraryZVertical|-0.07040743121327055|-0.1591015333973792|0.9768083529260483|-0.1247999727037981|0.1772608608007431|0.2932497262954712|-0.939458966255188|0|0|0|-1|-1|3
2021-04-22 21:03:42.253 +0100|138393.022902125|-0.0327911376953125|0.382965087890625|-1.227752685546875|138393.002940125|-2.84490334155317|0.1869266517034451|-0.2889143126121567|0.4145336747169495|-0.1853642463684082|0.7061725854873657|-0.1983246505260468|0.1883844137191772|-0.2602165937423706|XArbitraryZVertical|-0.07015699540557291|-0.1554030134601121|0.9764298951433628|-0.1323360035415929|0.1781376004219055|0.2849116921424866|-0.941855788230896|0|0|0|-1|-1|3
2021-04-22 21:03:42.273 +0100|138393.042863125|-0.049163818359375|0.3395233154296875|-1.174880981445312|138393.022902125|-2.833449198883037|0.1856404226001422|-0.276340654896698|0.6099268794059753|-0.2777919471263885|0.6136916875839233|-0.212286651134491|0.1333204805850983|-0.2869832515716553|XArbitraryZVertical|-0.06967053660746508|-0.1496021735066874|0.9764829960820128|-0.1387314176360788|0.1775732338428497|0.2728369832038879|-0.9455304145812988|0|0|0|-1|-1|3
2021-04-22 21:03:42.293 +0100|138393.062825125|-0.0522613525390625|0.28533935546875|-1.141769409179688|138393.042863125|-2.824338539878896|0.1814451008475685|-0.2610261665081953|0.7446085214614868|-0.3757865428924561|0.532571017742157|-0.213919460773468|0.102156400680542|-0.2501434683799744|XArbitraryZVertical|-0.06822668028165783|-0.1421698613909519|0.9768833685161379|-0.1443324863562934|0.1743384748697281|0.2580721080303192|-0.9502657055854797|0|0|0|-1|-1|3
2021-04-22 21:03:42.313 +0100|138393.082787125|0.004669189453125|0.2293853759765625|-1.148147583007812|138393.062825125|-2.817379098977294|0.1750541970212082|-0.242538657783722|0.9589748978614807|-0.4339069426059723|0.4652589857578278|-0.2265130877494812|0.07716825604438782|-0.197958767414093|XArbitraryZVertical|-0.06618582923161077|-0.1329343034757852|0.9775982888528426|-0.1491629169446189|0.1690640449523926|0.2401677519083023|-0.9558958411216736|0|0|0|-1|-1|3
2021-04-22 21:03:42.333 +0100|138393.102749125|0.070068359375|0.245849609375|-1.1822509765625|138393.082787125|-2.811988093832977|0.1670977853115872|-0.2202774813186596|1.147970914840698|-0.5004737973213196|0.4463189542293549|-0.1939793825149536|0.02887405455112457|-0.1749621629714966|XArbitraryZVertical|-0.06385256024525637|-0.1216566101738071|0.9785586707946974|-0.1534461063718612|0.1623024195432663|0.2185004055500031|-0.9622450470924377|0|0|0|-1|-1|3
2021-04-22 21:03:42.353 +0100|138393.122710125|0.1167144775390625|0.2574920654296875|-1.168075561523438|138393.102749125|-2.806908504162518|0.1570698191936752|-0.194910146983104|1.270202159881592|-0.6092249751091003|0.447792112827301|-0.1118976771831512|0.03892555832862854|-0.2031159996986389|XArbitraryZVertical|-0.06083450816369555|-0.1086514491347092|0.9795990414515087|-0.157733886088114|0.1534628868103027|0.1936783790588379|-0.9689880609512329|0|0|0|-1|-1|3
2021-04-22 21:03:42.373 +0100|138393.142672125|0.09832763671875|0.267181396484375|-1.13739013671875|138393.122710125|-2.802322476871437|0.1444131161770969|-0.1676458995614583|1.343405842781067|-0.7486007809638977|0.4096998572349548|-0.04414603114128113|0.09113283455371857|-0.2055882811546326|XArbitraryZVertical|-0.05676081023481228|-0.09444477961632208|0.9806462699041194|-0.1618381125777143|0.1418940871953964|0.1668617129325867|-0.975716769695282|0|0|0|-1|-1|3
2021-04-22 21:03:42.393 +0100|138393.162633125|-0.049468994140625|0.3380889892578125|-1.153274536132812|138393.142672125|-2.798247482963479|0.1286052687717441|-0.1404255932706055|1.287944674491882|-0.8954785466194153|0.3590317070484161|-0.005940407514572144|0.1083711981773376|-0.1717681288719177|XArbitraryZVertical|-0.05119787757647099|-0.07993124421785407|0.9816116677434436|-0.1656157777186253|0.1269886195659637|0.1399645358324051|-0.9819795489311218|0|0|0|-1|-1|3
2021-04-22 21:03:42.413 +0100|138393.182595125|-0.26629638671875|0.4346923828125|-1.21832275390625|138393.162633125|-2.79427554125767|0.1100961427075469|-0.1156588362829833|1.104832172393799|-1.012471199035645|0.3341728746891022|-0.06969559192657471|0.1862030029296875|-0.1519468426704407|XArbitraryZVertical|-0.04413065129637367|-0.06633253683635328|0.9823727472746887|-0.1691047433363838|0.1091397926211357|0.1154011487960815|-0.9873049855232239|0|0|0|-1|-1|3
