loggingTime(txt)|accelerometerTimestamp_sinceReboot(s)|accelerometerAccelerationX(G)|accelerometerAccelerationY(G)|accelerometerAccelerationZ(G)|motionTimestamp_sinceReboot(s)|motionYaw(rad)|motionRoll(rad)|motionPitch(rad)|motionRotationRateX(rad/s)|motionRotationRateY(rad/s)|motionRotationRateZ(rad/s)|motionUserAccelerationX(G)|motionUserAccelerationY(G)|motionUserAccelerationZ(G)|motionAttitudeReferenceFrame(txt)|motionQuaternionX(R)|motionQuaternionY(R)|motionQuaternionZ(R)|motionQuaternionW(R)|motionGravityX(G)|motionGravityY(G)|motionGravityZ(G)|motionMagneticFieldX(µT)|motionMagneticFieldY(µT)|motionMagneticFieldZ(µT)|motionHeading(°)|motionMagneticFieldCalibrationAccuracy(Z)|label
2021-04-09 10:13:20.420 +0100|29113.12749975|-0.254486083984375|0.3152313232421875|-0.893768310546875|29113.12250975|-0.6581024769996318|-0.263274941631248|-0.3448889629894871|-0.03915025293827057|0.02751482278108597|-0.007461298257112503|-0.01008683443069458|-0.02957427501678467|0.01482552289962769|XArbitraryZVertical|-0.2027663755440534|-0.06740411060739|-0.2942839136127016|0.9315254338173291|-0.2449190467596054|0.338092178106308|-0.9086849689483643|0|0|0|-1|-1|3
2021-04-09 10:13:20.428 +0100|29113.14746075|-0.23291015625|0.321624755859375|-0.8992156982421875|29113.14247075|-0.6584160821681335|-0.2627181380455538|-0.3453002080218793|-0.03417952731251717|0.02008391171693802|-0.01484686508774757|0.02381014823913574|0.01219871640205383|0.008083045482635498|XArbitraryZVertical|-0.2028835204619374|-0.06704368361944485|-0.2944500031763973|0.9314734022075607|-0.244376927614212|0.3384791910648346|-0.9086868166923523|0|0|0|-1|-1|3
2021-04-09 10:13:20.429 +0100|29113.16742175|-0.2440185546875|0.3617401123046875|-0.9136505126953125|29113.16243075|-0.6588106372982836|-0.2625452361690777|-0.3460131699903541|-0.02020813710987568|0.01163593959063292|-0.00786929577589035|0.002990961074829102|-0.001335203647613525|3.159046173095703e-06|XArbitraryZVertical|-0.2031981034585699|-0.06680292419828732|-0.2945881389855747|0.931378454583154|-0.2441571056842804|0.3391499817371368|-0.9084957838058472|0|0|0|-1|-1|3
2021-04-09 10:13:20.441 +0100|29113.18738175|-0.243560791015625|0.3618927001953125|-0.9202728271484375|29113.18239175|-0.6589335029431086|-0.2622159828646727|-0.3462555560110219|0.01894362457096577|0.01508334744721651|-0.004213573411107063|-0.003097325563430786|0.01754081249237061|-0.007625281810760498|XArbitraryZVertical|-0.203264805018155|-0.0665962389409749|-0.2946573405181352|0.9313568194564537|-0.2438366562128067|0.3393779695034027|-0.9084967374801636|0|0|0|-1|-1|3
2021-04-09 10:13:20.461 +0100|29113.20734275|-0.2439422607421875|0.3439178466796875|-0.91375732421875|29113.20235275|-0.6587796883973661|-0.2614979596396084|-0.3458223860747725|0.05365148931741714|0.02814897708594799|-0.0110445823520422|-0.002262130379676819|0.01636135578155518|-0.006438732147216797|XArbitraryZVertical|-0.2029553275430179|-0.06635051284462828|-0.2946969464402131|0.9314292996907697|-0.243222251534462|0.3389704823493958|-0.9088134765625|0|0|0|-1|-1|3
2021-04-09 10:13:20.481 +0100|29113.22730275|-0.23895263671875|0.331024169921875|-0.9063873291015625|29113.22231275|-0.6586503645665864|-0.2608862695961293|-0.3451061993116393|0.01240117102861404|0.0227221455425024|0.0002497956156730652|0.006949052214622498|-0.006966829299926758|-0.0007762908935546875|XArbitraryZVertical|-0.2025325099992125|-0.06619945166062052|-0.2947619138736307|0.9315116152091731|-0.2427288591861725|0.3382966220378876|-0.9091964364051819|0|0|0|-1|-1|3
2021-04-09 10:13:20.501 +0100|29113.24726375|-0.2354736328125|0.343048095703125|-0.9075469970703125|29113.24227375|-0.6586257039161045|-0.2604265606346057|-0.345108530659017|-0.01649279519915581|0.01157884113490582|0.007715612649917603|0.006424039602279663|-0.009852945804595947|0.002111494541168213|XArbitraryZVertical|-0.202465026724365|-0.0659874366441328|-0.2947967823171967|0.9315302126240271|-0.2423106580972672|0.3382987976074219|-0.9093071222305298|0|0|0|-1|-1|3
2021-04-09 10:13:20.521 +0100|29113.26722475|-0.236297607421875|0.366943359375|-0.9124603271484375|29113.26223375|-0.6584205399779106|-0.2601615007867054|-0.3455913146776751|0.02082092128694057|0.01079102512449026|0.01274783350527287|0.004721909761428833|0.02074441313743591|0.0003393292427062988|XArbitraryZVertical|-0.2026405809025885|-0.06580342552749159|-0.2946855599851457|0.9315402836316523|-0.2420275956392288|0.3387531042098999|-0.9092134237289429|0|0|0|-1|-1|3
2021-04-09 10:13:20.541 +0100|29113.28718475|-0.2414703369140625|0.3762359619140625|-0.9149017333984375|29113.28219475|-0.6578920903793097|-0.2596744829420878|-0.3450913059286995|0.06712343543767929|0.02209720760583878|0.0146360145881772|0.004414096474647522|0.03607696294784546|-0.004765689373016357|XArbitraryZVertical|-0.2023221448872568|-0.06571426569239439|-0.294532671623465|0.9316641989251893|-0.2416282147169113|0.3382826149463654|-0.9094947576522827|0|0|0|-1|-1|3
2021-04-09 10:13:20.561 +0100|29113.30714575|-0.23480224609375|0.3592987060546875|-0.9179229736328125|29113.30215575|-0.6570626199847288|-0.258704340153852|-0.3435582332283185|0.08523558080196381|0.03841349110007286|0.0209155697375536|-0.0001659393310546875|0.03043997287750244|-0.00760197639465332|XArbitraryZVertical|-0.2014488198606079|-0.06560383867874481|-0.2943785886767585|0.9319097675560792|-0.2408781498670578|0.3368395268917084|-0.9102290272712708|0|0|0|-1|-1|3
2021-04-09 10:13:20.581 +0100|29113.32710675|-0.2291412353515625|0.332183837890625|-0.919342041015625|29113.32211575|-0.6562401427360356|-0.2575358722773629|-0.3422404160914507|0.05321348458528519|0.04203655943274498|0.02365267835557461|0.006482064723968506|0.008350402116775513|-0.008861064910888672|XArbitraryZVertical|-0.2006451304703597|-0.06536331096017631|-0.2942277842135952|0.9321477664628867|-0.239927276968956|0.3355984091758728|-0.9109383225440979|0|0|0|-1|-1|3
2021-04-09 10:13:20.601 +0100|29113.34706675|-0.2238616943359375|0.336822509765625|-0.911376953125|29113.34207675|-0.6555997204635645|-0.2564731019632225|-0.3421157767155936|0.01545778103172779|0.03811835870146751|0.02247413992881775|0.01225355267524719|-0.001892894506454468|-0.002828836441040039|XArbitraryZVertical|-0.200410743217952|-0.0649530624920235|-0.2940466729899309|0.9322840194240496|-0.238969624042511|0.3354809880256653|-0.9112332463264465|0|0|0|-1|-1|3
2021-04-09 10:13:20.621 +0100|29113.3670275|-0.227630615234375|0.344970703125|-0.902191162109375|29113.36203775|-0.6550070189141683|-0.2555960468494359|-0.3425869604837963|0.01374095864593983|0.02849289588630199|0.01993916742503643|0.01040717959403992|0.004712820053100586|0.006321609020233154|XArbitraryZVertical|-0.2004790436147777|-0.06452465530928751|-0.2938174320519893|0.9323712166907273|-0.2381303310394287|0.3359248340129852|-0.9112894535064697|0|0|0|-1|-1|3
2021-04-09 10:13:20.640 +0100|29113.3869875|-0.23095703125|0.3525390625|-0.900970458984375|29113.3819975|-0.6544020109026502|-0.2548517333978839|-0.3428740299668235|0.03601656854152679|0.02335427515208721|0.02632471546530724|0.009750276803970337|0.009157419204711914|0.01043355464935303|XArbitraryZVertical|-0.2004820900137695|-0.0641902434001933|-0.2935851212480492|0.9324668777632652|-0.2374276667833328|0.3361952304840088|-0.9113730788230896|0|0|0|-1|-1|3
2021-04-09 10:13:20.661 +0100|29113.4069485|-0.2248992919921875|0.32977294921875|-0.9026336669921875|29113.4019585|-0.6535077020271919|-0.2540040380967072|-0.3422372291363804|0.05544745922088623|0.01935489848256111|0.02833078615367413|0.007856458425521851|0.01694408059120178|0.01056689023971558|XArbitraryZVertical|-0.2000365492775807|-0.06399099873784503|-0.2933079856110024|0.932663448818898|-0.2367087602615356|0.3355953991413116|-0.9117810726165771|0|0|0|-1|-1|3
2021-04-09 10:13:20.681 +0100|29113.4269095|-0.2258453369140625|0.322052001953125|-0.90277099609375|29113.4219185|-0.6526270488595464|-0.253258051523569|-0.3417153840791323|0.002751389751210809|0.008881591260433197|0.02967683784663677|0.0110805332660675|-0.01343280076980591|0.006075620651245117|XArbitraryZVertical|-0.1996592702532352|-0.06381821984626615|-0.2930167239154511|0.9328477410042216|-0.23607237637043|0.3351037800312042|-0.9121268391609192|0|0|0|-1|-1|3
2021-04-09 10:13:20.701 +0100|29113.4468695|-0.2205047607421875|0.3275909423828125|-0.9020843505859375|29113.4418795|-0.6521227128116036|-0.2528053331449394|-0.3422563387087981|-0.02897339873015881|0.001245509833097458|0.0196839477866888|0.01585596799850464|-0.011851966381073|0.005503177642822266|XArbitraryZVertical|-0.1998255125547198|-0.06356719797612008|-0.2927802117587637|0.9329035263839832|-0.2356140315532684|0.3356134295463562|-0.9120579361915588|0|0|0|-1|-1|3
2021-04-09 10:13:20.720 +0100|29113.4668305|-0.224395751953125|0.347381591796875|-0.8928375244140625|29113.4618405|-0.6519938095088504|-0.2526855555019701|-0.3428101529848008|0.002511888742446899|-0.00375505443662405|0.0007755032274872065|0.01321303844451904|-0.001433074474334717|0.01494908332824707|XArbitraryZVertical|-0.200058405451624|-0.06343188496544407|-0.2926844870283303|0.932892855231595|-0.2354582846164703|0.336135059595108|-0.9119060635566711|0|0|0|-1|-1|3
2021-04-09 10:13:20.740 +0100|29113.4867905|-0.2338409423828125|0.335235595703125|-0.8982086181640625|29113.4818005|-0.6520216969443788|-0.2525883051246248|-0.3426838955005769|0.03841722756624222|0.007402684539556503|-0.01726039871573448|0.004483222961425781|0.009046554565429688|0.01676779985427856|XArbitraryZVertical|-0.1999870443021994|-0.0634047783926254|-0.2927180741145566|0.9328994124326746|-0.2353802025318146|0.3360161483287811|-0.9119700193405151|0|0|0|-1|-1|3
2021-04-09 10:13:20.782 +0100|29113.5067515|-0.229766845703125|0.3132476806640625|-0.8998870849609375|29113.5017615|-0.652438612269801|-0.2523450100366239|-0.3418245999170725|0.01716325245797634|0.01428626477718353|-0.04660328477621078|0.004516452550888062|-0.01173517107963562|0.01394575834274292|XArbitraryZVertical|-0.1995697075966398|-0.06339293150821104|-0.2930105838493592|0.9328978089530207|-0.2352303266525269|0.3352066874504089|-0.912306547164917|0|0|0|-1|-1|3
2021-04-09 10:13:20.783 +0100|29113.5267125|-0.2386932373046875|0.307098388671875|-0.900665283203125|29113.5217225|-0.6538626110488971|-0.2521937279726316|-0.3418130538850012|-0.06666949391365051|0.03041484765708447|-0.09262190759181976|-0.001968249678611755|-0.026937335729599|0.01070445775985718|XArbitraryZVertical|-0.1995872798440459|-0.06318219987933736|-0.2936908259363326|0.9326943914587316|-0.2350932657718658|0.3351958096027374|-0.912345826625824|0|0|0|-1|-1|3
2021-04-09 10:13:20.801 +0100|29113.5466725|-0.241302490234375|0.340606689453125|-0.8950653076171875|29113.5416825|-0.6565028064308901|-0.2522139835926098|-0.3430737877295244|-0.09577406942844391|0.03935108333826065|-0.1282559037208557|-0.003031983971595764|-0.02055650949478149|0.01364666223526001|XArbitraryZVertical|-0.200252461269907|-0.06271666355568604|-0.2948114921213881|0.9322295562310224|-0.235006108880043|0.3363833427429199|-0.9119311571121216|0|0|0|-1|-1|3
2021-04-09 10:13:20.820 +0100|29113.5666335|-0.254241943359375|0.34716796875|-0.9038848876953125|29113.5616435|-0.6600969482988052|-0.2523248125916465|-0.3443878711660548|-0.08870413899421692|0.06215876340866089|-0.1768187135457993|-0.01329539716243744|0.00951734185218811|0.01448875665664673|XArbitraryZVertical|-0.2009842370387398|-0.06218681526450747|-0.2963620001556098|0.9316157772633826|-0.2349966168403625|0.3376205563545227|-0.9114762544631958|0|0|0|-1|-1|3
2021-04-09 10:13:20.840 +0100|29113.5865945|-0.26214599609375|0.3572845458984375|-0.9163665771484375|29113.5816035|-0.6644267016295713|-0.2522754647435576|-0.3449613367458644|-0.08352439105510712|0.09221184998750687|-0.2037232220172882|-0.0255805104970932|0.01524892449378967|-0.0002288818359375|XArbitraryZVertical|-0.201373956974042|-0.06163134173568181|-0.2983336161691666|0.9309388852668203|-0.2349032610654831|0.3381603062152863|-0.9113002419471741|0|0|0|-1|-1|3
2021-04-09 10:13:20.860 +0100|29113.6065545|-0.264739990234375|0.3771820068359375|-0.9122314453125|29113.6015645|-0.6696725292674892|-0.2519466850174236|-0.3446934598582245|-0.05170674249529839|0.1242293268442154|-0.281205415725708|-0.02657473087310791|0.02747920155525208|-0.00317680835723877|XArbitraryZVertical|-0.2013627624968538|-0.06099578558080639|-0.3008306188810793|0.9301793915761424|-0.2346262186765671|0.3379081785678864|-0.9114651083946228|0|0|0|-1|-1|3
2021-04-09 10:13:20.880 +0100|29113.6265155|-0.2728729248046875|0.410247802734375|-0.9069366455078125|29113.6215255|-0.6756606240473418|-0.2513271561914898|-0.3414055345796397|0.223417192697525|0.153228223323822|-0.3328585624694824|-0.0354703962802887|0.05837705731391907|-0.000236213207244873|XArbitraryZVertical|-0.1999458607465499|-0.06067059011597908|-0.3039605018902429|0.9294885156313987|-0.2343365252017975|0.3348118364810944|-0.9126814603805542|0|0|0|-1|-1|3
2021-04-09 10:13:20.900 +0100|29113.6464755|-0.2803955078125|0.4073638916015625|-0.8723602294921875|29113.6414855|-0.6809723517690216|-0.2500671608766522|-0.3309322097658247|0.6725714206695557|0.1911676228046417|-0.4182516038417816|-0.04005330801010132|0.116863340139389|0.03677666187286377|XArbitraryZVertical|-0.195121207524914|-0.06136790286648487|-0.3074511901218849|0.9293199635318915|-0.2340413331985474|0.3249247968196869|-0.9163233637809753|0|0|0|-1|-1|3
2021-04-09 10:13:20.920 +0100|29113.6664365|-0.262298583984375|0.306427001953125|-0.831817626953125|29113.6614465|-0.6861271259125964|-0.2479343380232309|-0.312389687494502|1.025572538375854|0.2382906526327133|-0.5253539085388184|-0.03803670406341553|0.04912745952606201|0.07135307788848877|XArbitraryZVertical|-0.1864577863098992|-0.06310218094858722|-0.3116146854909534|0.9295955998038054|-0.2335249930620193|0.3073335289955139|-0.9225032329559326|0|0|0|-1|-1|3
2021-04-09 10:13:20.940 +0100|29113.6863975|-0.2386474609375|0.278961181640625|-0.798736572265625|29113.6814075|-0.6921843332490494|-0.2446437438723901|-0.2878643727097907|1.175538778305054|0.2656911313533783|-0.6443175673484802|-0.01801611483097076|-0.01417508721351624|0.09988784790039062|XArbitraryZVertical|-0.1748857384216353|-0.06530190826738214|-0.3167442502807638|0.9299589940177525|-0.2322442978620529|0.2839051187038422|-0.9303012490272522|0|0|0|-1|-1|3
2021-04-09 10:13:20.960 +0100|29113.7063575|-0.196197509765625|0.2777099609375|-0.786834716796875|29113.7013675|-0.7000491775636472|-0.2418867520314668|-0.2608904208173558|1.276214122772217|0.1880648285150528|-0.7284918427467346|0.01637077331542969|0.01374217867851257|0.1368559598922729|XArbitraryZVertical|-0.1623172678297208|-0.06809045102632007|-0.3227819280979978|0.9299616787259901|-0.2314291745424271|0.257940948009491|-0.9380335807800293|0|0|0|-1|-1|3
2021-04-09 10:13:20.980 +0100|29113.7263185|-0.16571044921875|0.152313232421875|-0.87347412109375|29113.7213285|-0.7082276826085518|-0.2408889084274959|-0.2311208641061712|1.37261700630188|0.08593311905860901|-0.7887272834777832|0.04647628962993622|0.01261560618877411|0.1380994319915771|XArbitraryZVertical|-0.1487522404481214|-0.07225389735839623|-0.328956640153136|0.929752471642445|-0.2322225570678711|0.2290687263011932|-0.945304274559021|0|0|0|-1|-1|3
2021-04-09 10:13:21.000 +0100|29113.7462795|-0.1424102783203125|-0.0059814453125|-0.964935302734375|29113.7412885|-0.7189679522949627|-0.2419330667752477|-0.2037332272180373|0.9616010785102844|0.04923620447516441|-0.9152733683586121|0.09473125636577606|-0.1520944684743881|0.0259469747543335|XArbitraryZVertical|-0.1367258979301754|-0.07686022861794965|-0.3359233945395199|0.9287379009590462|-0.2346248775720596|0.2023267447948456|-0.9507970809936523|0|0|0|-1|-1|3
2021-04-09 10:13:21.020 +0100|29113.7662395|-0.1093292236328125|-0.1919708251953125|-1.013153076171875|29113.7612495|-0.7363410562103249|-0.2451263029329001|-0.1889433014699213|0.0008163205347955227|-0.06523104012012482|-1.057300209999084|0.09939712285995483|-0.3660739362239838|-0.02642101049423218|XArbitraryZVertical|-0.1311546344275249|-0.07985919218035573|-0.3448566909346296|0.9260102087475127|-0.2383599579334259|0.1878211051225662|-0.9528419375419617|0|0|0|-1|-1|3
2021-04-09 10:13:21.040 +0100|29113.7862005|-0.2057037353515625|0.1064300537109375|-0.993560791015625|29113.7812105|-0.7589309652037066|-0.2514400470318182|-0.1894174607259389|-0.4479460120201111|-0.08825491368770599|-1.130482196807861|0.1080564260482788|-0.1494223475456238|-0.1100015640258789|XArbitraryZVertical|-0.1333856654837115|-0.08119381671226265|-0.3548393588649177|0.9217944438406047|-0.2443489879369736|0.1882868111133575|-0.9512316584587097|0|0|0|-1|-1|3
2021-04-09 10:13:21.060 +0100|29113.8061605|-0.2482147216796875|0.0081939697265625|-0.846710205078125|29113.8011705|-0.7853570092563599|-0.2572715686661516|-0.1944561824689404|-0.7540645003318787|-0.02545811422169209|-1.232552289962769|0.04304230213165283|-0.1035567969083786|0.03716397285461426|XArbitraryZVertical|-0.1378021870064729|-0.08111752256563029|-0.3662053200797445|0.9166920262077359|-0.2496473640203476|0.193232998251915|-0.9488610029220581|0|0|0|-1|-1|3
2021-04-09 10:13:21.080 +0100|29113.8261215|-0.2824554443359375|0.041290283203125|-0.784942626953125|29113.8211315|-0.814549585439015|-0.2627944652141326|-0.2050711998766921|-0.9465199112892151|0.04243054986000061|-1.275104641914368|-0.03890770673751831|-0.1651691794395447|0.153624951839447|XArbitraryZVertical|-0.1447988445860096|-0.07947611240349729|-0.3783177564387404|0.9108198281352894|-0.2543367743492126|0.2036368697881699|-0.9454336762428284|0|0|0|-1|-1|3
2021-04-09 10:13:21.100 +0100|29113.8460825|-0.22113037109375|0.166168212890625|-0.7032623291015625|29113.8410925|-0.8440955005090068|-0.268969172988075|-0.2173705523905856|-0.9190484285354614|-0.04221067205071449|-1.165796041488647|0.02260592579841614|-0.1498666703701019|0.2186881899833679|XArbitraryZVertical|-0.1526586422697854|-0.07756077576046878|-0.3902678658732401|0.9046384572802888|-0.2594844400882721|0.215662807226181|-0.9413593411445618|0|0|0|-1|-1|3
2021-04-09 10:13:21.120 +0100|29113.8660425|-0.2871856689453125|0.071685791015625|-0.6766204833984375|29113.8610525|-0.8709798784262708|-0.2763680339324199|-0.2234207882250104|-0.365949809551239|-0.06485755741596222|-1.233047366142273|0.01464596390724182|0.03876373171806335|0.2585608959197998|XArbitraryZVertical|-0.1578557749823703|-0.07753030251053278|-0.4013067292142036|0.8989013626479153|-0.2660813629627228|0.2215666770935059|-0.9381412267684937|0|0|0|-1|-1|3
2021-04-09 10:13:21.140 +0100|29113.8860035|-0.2550811767578125|-0.082061767578125|-0.79364013671875|29113.8810135|-0.8975163759460912|-0.2835789165724156|-0.2228542828137235|-0.4060321748256683|-0.1102002188563347|-1.265030145645142|0.003128319978713989|-0.2943782806396484|0.1986784934997559|XArbitraryZVertical|-0.1601101270093175|-0.07877493962793419|-0.4126718060796089|0.8932308537535082|-0.2728742957115173|0.221014216542244|-0.9363185167312622|0|0|0|-1|-1|3
2021-04-09 10:13:21.160 +0100|29113.9059645|-0.2809295654296875|-0.015472412109375|-0.8543701171875|29113.9009735|-0.9254700734963965|-0.2933972157984419|-0.2256586570663729|-0.6150617003440857|-0.2357483357191086|-1.258090615272522|0.02477723360061646|-0.2948694229125977|0.1070851683616638|XArbitraryZVertical|-0.1645037000612915|-0.0802489616417338|-0.4240676513695759|0.8869415885021859|-0.2818736732006073|0.2237483710050583|-0.9329972863197327|0|0|0|-1|-1|3
2021-04-09 10:13:21.180 +0100|29113.9259245|-0.310089111328125|0.17730712890625|-1.006546020507812|29113.9209345|-0.9532614805372315|-0.3045393416686477|-0.2300154359870315|-0.5707337260246277|-0.2386540621519089|-1.195171117782593|-0.004919618368148804|-0.1583971083164215|-0.002490341663360596|XArbitraryZVertical|-0.169914826410878|-0.0818472340038079|-0.4350176580405841|0.8804485854378373|-0.2919564545154572|0.2279925495386124|-0.9288599491119385|0|0|0|-1|-1|3
2021-04-09 10:13:21.200 +0100|29113.9458855|-0.34149169921875|0.2166900634765625|-1.116302490234375|29113.9408955|-0.9794394458912105|-0.3146009061916111|-0.2341368836178274|-0.6327883005142212|-0.1701491475105286|-1.095929741859436|-0.03158766031265259|-0.01618310809135437|-0.1508007049560547|XArbitraryZVertical|-0.1749820124409766|-0.08303167927924138|-0.4452446554974521|0.8742107958140934|-0.3009939789772034|0.2320035099983215|-0.9249740839004517|0|0|0|-1|-1|3
2021-04-09 10:13:21.219 +0100|29113.9658455|-0.3207550048828125|0.212982177734375|-1.111312866210938|29113.9608555|-1.003856450191813|-0.3231559890164669|-0.2410086483484981|-0.7384179830551147|-0.1039107367396355|-0.9371652007102966|-0.02819690108299255|-0.02772943675518036|-0.2021995186805725|XArbitraryZVertical|-0.180851502341563|-0.08292700282616158|-0.454452587427761|0.8682676718937875|-0.3083825409412384|0.2386822402477264|-0.9208316802978516|0|0|0|-1|-1|3
2021-04-09 10:13:21.239 +0100|29113.9858065|-0.260101318359375|0.0108489990234375|-1.053451538085938|29113.9808165|-1.026339399832999|-0.329507654458439|-0.2504999809522464|-0.9401906728744507|-0.009015596471726894|-0.8261703848838806|0.0161592960357666|-0.1049744784832001|-0.1838855147361755|XArbitraryZVertical|-0.1872463185223906|-0.08126536584410028|-0.462649975355527|0.8627224493011321|-0.3134779334068298|0.247888371348381|-0.916669487953186|0|0|0|-1|-1|3
2021-04-09 10:13:21.282 +0100|29114.0057675|-0.2462158203125|0.009185791015625|-0.9294891357421875|29114.0007775|-1.049053862494498|-0.3355254679159975|-0.2677359111558207|-1.373248815536499|-0.02278424613177776|-0.6901935338973999|0.07404881715774536|-0.2879403829574585|-0.07670783996582031|XArbitraryZVertical|-0.1967776646582404|-0.07733252397100139|-0.4700649098939828|0.8569349178503493|-0.3175344169139862|0.2645486891269684|-0.910596489906311|0|0|0|-1|-1|3
2021-04-09 10:13:21.284 +0100|29114.0257275|-0.2698516845703125|0.16802978515625|-0.8742523193359375|29114.0207375|-1.071121838403822|-0.3420422273265832|-0.2902558367454919|-1.40307080745697|-0.02425298094749451|-0.5646982192993164|0.06666561961174011|-0.2043339610099792|0.007356405258178711|XArbitraryZVertical|-0.2084936509271264|-0.0720948587427617|-0.4764257385889036|0.8510884163866798|-0.321381688117981|0.2861973643302917|-0.9026654362678528|0|0|0|-1|-1|3
2021-04-09 10:13:21.299 +0100|29114.0456885|-0.2840728759765625|0.3101959228515625|-0.8497314453125|29114.0406985|-1.090048500978839|-0.3484123690019725|-0.3102844477485698|-1.058570742607117|-0.06765515357255936|-0.4648962318897247|0.04551488161087036|-0.03883478045463562|0.04226434230804443|XArbitraryZVertical|-0.2189128213170073|-0.06753685481989821|-0.4815574158128531|0.8459423654781316|-0.3251027464866638|0.3053295016288757|-0.8950319290161133|0|0|0|-1|-1|3
2021-04-09 10:13:21.319 +0100|29114.0656495|-0.321319580078125|0.2683258056640625|-0.864593505859375|29114.0606585|-1.105439134136323|-0.3552680017246736|-0.3245436150159478|-0.8523425459861755|-0.1287105232477188|-0.4281593561172485|0.02995356917381287|-0.01353263854980469|0.03646767139434814|XArbitraryZVertical|-0.2268906079749915|-0.0649295221593227|-0.4856568706656007|0.841690186201749|-0.3296830356121063|0.3188762664794922|-0.8886096477508545|0|0|0|-1|-1|3
2021-04-09 10:13:21.339 +0100|29114.0856095|-0.33123779296875|0.2039947509765625|-0.88568115234375|29114.0806195|-1.120432107521279|-0.3629574537309703|-0.3392942214032674|-1.09505021572113|-0.1486932337284088|-0.3813935220241547|0.005773276090621948|-0.100018322467804|0.002038657665252686|XArbitraryZVertical|-0.2352047113300239|-0.06246037798923831|-0.4893261285862825|0.8374590388679505|-0.3347996473312378|0.3328216373920441|-0.881554901599884|0|0|0|-1|-1|3
2021-04-09 10:13:21.359 +0100|29114.1055705|-0.342864990234375|0.21441650390625|-0.8343963623046875|29114.1005805|-1.137746070124164|-0.3716688127365135|-0.3615890909081398|-1.558011531829834|-0.1193586140871048|-0.3292625844478607|0.002954632043838501|-0.1721814870834351|-0.006013274192810059|XArbitraryZVertical|-0.246792535020036|-0.05793677281767029|-0.4927885761699101|0.8324039714887862|-0.3396866917610168|0.3537610173225403|-0.8714735507965088|0|0|0|-1|-1|3
2021-04-09 10:13:21.379 +0100|29114.1255315|-0.301605224609375|0.31036376953125|-0.7067718505859375|29114.1205405|-1.156747121749789|-0.3801475878783322|-0.3907010475659318|-1.718765497207642|-0.03415264189243317|-0.2497560381889343|0.006012499332427979|-0.1169055104255676|0.08478289842605591|XArbitraryZVertical|-0.2609289062854186|-0.05099130074864384|-0.495898387613311|0.8266806094400854|-0.3430954813957214|0.3808367252349854|-0.85863196849823|0|0|0|-1|-1|3
2021-04-09 10:13:21.399 +0100|29114.1454915|-0.2330780029296875|0.345977783203125|-0.569488525390625|29114.1405015|-1.17469795758841|-0.3876851176659494|-0.4195438819272962|-1.558623075485229|-0.02061771042644978|-0.2068571448326111|0.08350986242294312|-0.07113185524940491|0.2220087051391602|XArbitraryZVertical|-0.2745001002329208|-0.04359879387855244|-0.4984666872451055|0.8211454688229227|-0.3452602028846741|0.4073439240455627|-0.8454976677894592|0|0|0|-1|-1|3
2021-04-09 10:13:21.419 +0100|29114.1654525|-0.2055816650390625|0.365753173828125|-0.5650177001953125|29114.1604625|-1.191140338318514|-0.3952837266135079|-0.4451845031632566|-1.429911017417908|-0.08338858187198639|-0.1880222856998444|0.1261011362075806|-0.07333993911743164|0.278644323348999|XArbitraryZVertical|-0.2866278610791943|-0.03710968673343425|-0.5006046030771315|0.8160040090484957|-0.3475377559661865|0.430624395608902|-0.8329346776008606|0|0|0|-1|-1|3
2021-04-09 10:13:21.439 +0100|29114.1854125|-0.2290191650390625|0.4152679443359375|-0.6403350830078125|29114.1804225|-1.207579601925753|-0.4055012850450387|-0.470781823657445|-1.511459231376648|-0.2202794700860977|-0.168750673532486|0.14019975066185|-0.07820183038711548|0.2205219864845276|XArbitraryZVertical|-0.2992294027015067|-0.03148612241945384|-0.5021406031328827|0.8107560832901893|-0.3515655994415283|0.4535832107067108|-0.8189407587051392|0|0|0|-1|-1|3
2021-04-09 10:13:21.459 +0100|29114.2053735|-0.258697509765625|0.545196533203125|-0.6732330322265625|29114.2003835|-1.22413062166255|-0.4187375846549879|-0.4961552068462645|-1.382614612579346|-0.3357797563076019|-0.1635199636220932|0.117770254611969|0.00393250584602356|0.1309857368469238|XArbitraryZVertical|-0.3123394711744412|-0.02690677583801151|-0.5030374046090169|0.8054027040411282|-0.357578456401825|0.4760478734970093|-0.8034401535987854|0|0|0|-1|-1|3
2021-04-09 10:13:21.479 +0100|29114.2253345|-0.2992401123046875|0.58782958984375|-0.7024688720703125|29114.2203445|-1.239728670263916|-0.4336381532498009|-0.5176721551975257|-1.187253713607788|-0.3960587084293365|-0.1688630729913712|0.1022719740867615|0.08318993449211121|0.0893256664276123|XArbitraryZVertical|-0.3242670396678675|-0.02405952866584768|-0.5036066704630006|0.8004077809140555|-0.3651209473609924|0.4948586523532867|-0.7885440587997437|0|0|0|-1|-1|3
2021-04-09 10:13:21.499 +0100|29114.2452945|-0.3636474609375|0.6327667236328125|-0.7868804931640625|29114.2403045|-1.2555868659999|-0.4499875911467514|-0.5387634257230982|-1.329229831695557|-0.4242512583732605|-0.1570870876312256|0.05116525292396545|0.07231307029724121|0.03164154291152954|XArbitraryZVertical|-0.3362758106976447|-0.02167146034033509|-0.5038537146129574|0.7953493128477375|-0.3733403980731964|0.5130749940872192|-0.7728978395462036|0|0|0|-1|-1|3
2021-04-09 10:13:21.519 +0100|29114.2652555|-0.396392822265625|0.7124481201171875|-0.8725128173828125|29114.2602655|-1.273303014099059|-0.4674525345315781|-0.5627231264404732|-1.503538846969604|-0.3936278223991394|-0.1422537416219711|-0.008319675922393799|0.1417098641395569|-0.07838314771652222|XArbitraryZVertical|-0.3494722822625161|-0.01832322474263733|-0.5038907837555776|0.7897009928242417|-0.3811314702033997|0.5334914326667786|-0.7550667524337769|0|0|0|-1|-1|3
2021-04-09 10:13:21.540 +0100|29114.2852165|-0.4217987060546875|0.8709259033203125|-0.85504150390625|29114.2802255|-1.292439690769677|-0.4858680085961486|-0.5876143063862626|-1.390754461288452|-0.4034308195114136|-0.1376735419034958|-0.01110267639160156|0.2091420888900757|-0.1416612863540649|XArbitraryZVertical|-0.3630626889749992|-0.01455097470236174|-0.5038275460553564|0.7836655386004341|-0.3886481523513794|0.5543770790100098|-0.7359474897384644|0|0|0|-1|-1|3
2021-04-09 10:13:21.559 +0100|29114.3051765|-0.476898193359375|0.90863037109375|-0.829376220703125|29114.3001865|-1.310216236374429|-0.5033069995138199|-0.6084035142488324|-1.191734433174133|-0.3276110589504242|-0.1781533360481262|-0.06389465928077698|0.3372856378555298|-0.1252491474151611|XArbitraryZVertical|-0.3747818507597144|-0.01165095714971427|-0.5038187753863221|0.7781835152454327|-0.3957774341106415|0.5715581774711609|-0.7188056111335754|0|0|0|-1|-1|3
2021-04-09 10:13:21.579 +0100|29114.3251375|-0.509979248046875|0.979522705078125|-0.796142578125|29114.3201475|-1.327564903108235|-0.5199088519159965|-0.6256943126402015|-0.9866490364074707|-0.3321473002433777|-0.2027155756950378|-0.07419857382774353|0.3401361107826233|-0.1172859668731689|XArbitraryZVertical|-0.3849482992113921|-0.009386447272541228|-0.5041899183720002|0.7729938009836308|-0.4026854336261749|0.5856602191925049|-0.7034534215927124|0|0|0|-1|-1|3
2021-04-09 10:13:21.599 +0100|29114.3450985|-0.582611083984375|0.9893646240234375|-0.797882080078125|29114.3401075|-1.342106456595539|-0.5344491752338034|-0.6375476796839182|-0.6336243748664856|-0.2520964741706848|-0.2064824253320694|-0.1357695758342743|0.4002259969711304|-0.1080741286277771|XArbitraryZVertical|-0.3926557034318358|-0.008420722173211603|-0.504715298173225|0.7687737389414543|-0.4093059301376343|0.5952266454696655|-0.6915012001991272|0|0|0|-1|-1|3
2021-04-09 10:13:21.619 +0100|29114.36505925|-0.63018798828125|0.986480712890625|-0.77276611328125|29114.3600685|-1.352019533129223|-0.5441738924617014|-0.6437000794006568|-0.3039131462574005|-0.1167837083339691|-0.1516605466604233|-0.1935902237892151|0.387389600276947|-0.1027666926383972|XArbitraryZVertical|-0.3971914702155196|-0.008237550071193254|-0.5054083169680106|0.7659855043119758|-0.4141074419021606|0.6001591682434082|-0.6843421459197998|0|0|0|-1|-1|3
2021-04-09 10:13:21.639 +0100|29114.38502025|-0.6248931884765625|0.843475341796875|-0.728271484375|29114.38003025|-1.357803755536047|-0.5483621965130718|-0.6467138059665247|-0.2632663547992706|0.0337226539850235|-0.08440180122852325|-0.2154913246631622|0.3247551321983337|-0.07559728622436523|XArbitraryZVertical|-0.3992652738637212|-0.007725239619994627|-0.506198646630924|0.7643891273931083|-0.4160252511501312|0.6025670766830444|-0.6810551285743713|0|0|0|-1|-1|3
2021-04-09 10:13:21.659 +0100|29114.40498025|-0.61370849609375|0.784393310546875|-0.65765380859375|29114.39999025|-1.364067223087499|-0.5504443209633659|-0.652602543103266|-0.5284193158149719|0.1380751579999924|-0.03359631821513176|-0.2067516446113586|0.197446346282959|-0.01465117931365967|XArbitraryZVertical|-0.4017404308980872|-0.005377894119184579|-0.5070153268575512|0.7625689358473662|-0.4155791401863098|0.6072561740875244|-0.6771513819694519|0|0|0|-1|-1|3
2021-04-09 10:13:21.679 +0100|29114.42494125|-0.577178955078125|0.7653961181640625|-0.6231842041015625|29114.41995125|-1.37415502305484|-0.5529269575968333|-0.66423824244751|-0.8192480802536011|0.2139714658260345|-0.03574557602405548|-0.1839236915111542|0.13367760181427|0.0315706729888916|XArbitraryZVertical|-0.406165243834485|-0.000538633431841605|-0.5080466086565274|0.7595514696207012|-0.4135199785232544|0.6164594888687134|-0.6700590252876282|0|0|0|-1|-1|3
2021-04-09 10:13:21.699 +0100|29114.44490225|-0.5753936767578125|0.8893585205078125|-0.5623016357421875|29114.43991225|-1.384287749715429|-0.5544604417522627|-0.6756201671697077|-0.5425487160682678|0.2835921347141266|-0.05379612743854523|-0.1669337153434753|0.2441558241844177|0.07300758361816406|XArbitraryZVertical|-0.4102082357160554|0.004632066636611407|-0.509295805334003|0.7565220869436609|-0.4108261466026306|0.6253813505172729|-0.6634154915809631|0|0|0|-1|-1|3
2021-04-09 10:13:21.719 +0100|29114.46486225|-0.520294189453125|0.795928955078125|-0.563812255859375|29114.45987225|-1.39161407459708|-0.5525525293099823|-0.6821750379309819|-0.3555318713188171|0.3526667654514313|-0.08410672098398209|-0.1410026252269745|0.2099253535270691|0.1003465056419373|XArbitraryZVertical|-0.4117910600705079|0.008988882812801495|-0.5111347122171027|0.7543798125842505|-0.4073993563652039|0.6304827928543091|-0.6606946587562561|0|0|0|-1|-1|3
2021-04-09 10:13:21.739 +0100|29114.48482325|-0.4804840087890625|0.7470703125|-0.5714263916015625|29114.47983325|-1.398499587913672|-0.5495036152172718|-0.6865414033496203|-0.2983309626579285|0.3854050040245056|-0.1474621742963791|-0.0938776433467865|0.1355429887771606|0.0961187481880188|XArbitraryZVertical|-0.4123611049239657|0.01298007863802302|-0.5134750690672317|0.7524182695765695|-0.4039413928985596|0.6338659524917603|-0.6595796942710876|0|0|0|-1|-1|3
2021-04-09 10:13:21.783 +0100|29114.50478425|-0.496978759765625|0.76141357421875|-0.5981292724609375|29114.49979325|-1.405397929876927|-0.546009533463816|-0.6880348301235674|-0.03995561227202415|0.4032568633556366|-0.2374027967453003|-0.08433237671852112|0.1061446070671082|0.07745981216430664|XArbitraryZVertical|-0.4118844175731303|0.01620294195218739|-0.5164855584449798|0.7505541933833222|-0.4011423289775848|0.6350203156471252|-0.6601774096488953|0|0|0|-1|-1|3
2021-04-09 10:13:21.784 +0100|29114.52474425|-0.5060272216796875|0.7971649169921875|-0.573486328125|29114.51975425|-1.40898898360594|-0.5399105708977537|-0.6809676852066955|0.5347084403038025|0.4375015497207642|-0.3751473426818848|-0.1113682091236115|0.1722124218940735|0.08120924234390259|XArbitraryZVertical|-0.4080340886329519|0.01690965927513797|-0.5205025070841437|0.7498664352646756|-0.3994055688381195|0.6295451521873474|-0.6664444804191589|0|0|0|-1|-1|3
2021-04-09 10:13:21.799 +0100|29114.54470525|-0.473541259765625|0.678192138671875|-0.5527191162109375|29114.53971525|-1.409576269708472|-0.5311054189907667|-0.6643301373812892|0.7890493273735046|0.4749860167503357|-0.505666196346283|-0.09305012226104736|0.1455375552177429|0.1165875196456909|XArbitraryZVertical|-0.400427362349807|0.0148719641719766|-0.5258001565493149|0.7503139926317233|-0.3987722396850586|0.6165318489074707|-0.6788734793663025|0|0|0|-1|-1|3
2021-04-09 10:13:21.818 +0100|29114.56466625|-0.429931640625|0.55999755859375|-0.535919189453125|29114.55967525|-1.41279752124448|-0.5240264910739714|-0.646473271260416|0.6009377837181091|0.4184333086013794|-0.6100059151649475|-0.04958871006965637|0.002193152904510498|0.1456771492958069|XArbitraryZVertical|-0.3928072738466259|0.01230351767387975|-0.5318891895075395|0.7500966752627067|-0.3994022309780121|0.6023750901222229|-0.691102147102356|0|0|0|-1|-1|3
2021-04-09 10:13:21.838 +0100|29114.58462625|-0.41705322265625|0.536651611328125|-0.5149383544921875|29114.57963625|-1.420653502395358|-0.521338965078337|-0.6310809204949721|0.4262302219867706|0.3163338005542755|-0.7158502340316772|-0.0209675133228302|-0.04001510143280029|0.172390878200531|XArbitraryZVertical|-0.3870903916289865|0.009775566775779959|-0.5383089953520201|0.7485244900971194|-0.4021139740943909|0.5900178551673889|-0.7001309394836426|0|0|0|-1|-1|3
2021-04-09 10:13:21.858 +0100|29114.60458725|-0.4651947021484375|0.588775634765625|-0.55255126953125|29114.59959725|-1.432515731865054|-0.5229494661378139|-0.6173157760006941|0.2906595766544342|0.2209564596414566|-0.8076552748680115|-0.01855385303497314|-0.02094167470932007|0.1762248873710632|XArbitraryZVertical|-0.3830486311902673|0.006904645605312624|-0.5450447888203045|0.7457561640319184|-0.4072589576244354|0.5788484215736389|-0.7064521312713623|0|0|0|-1|-1|3
2021-04-09 10:13:21.878 +0100|29114.62454725|-0.5222015380859375|0.6609344482421875|-0.6048583984375|29114.61955725|-1.448325972892831|-0.5288800258154587|-0.6066441042025514|0.23371921479702|0.1993441134691238|-0.8883398175239563|-0.08751094341278076|0.0376741886138916|0.1323525905609131|XArbitraryZVertical|-0.3812136454074413|0.004165498816036918|-0.5518089194104625|0.7417316695149802|-0.4145348072052002|0.5701135993003845|-0.7093176245689392|0|0|0|-1|-1|3
2021-04-09 10:13:21.898 +0100|29114.64450825|-0.544708251953125|0.6617431640625|-0.617034912109375|29114.63951825|-1.465294845605826|-0.5359482121293208|-0.5948338649990024|0.3943330943584442|0.234938308596611|-0.9642828702926636|-0.1170931160449982|0.1209791898727417|0.09776061773300171|XArbitraryZVertical|-0.3794002541705757|0.0008129627695784716|-0.5589687728653419|0.7372982945571738|-0.4229469895362854|0.5603711605072021|-0.7121095657348633|0|0|0|-1|-1|3
2021-04-09 10:13:21.919 +0100|29114.66446925|-0.556640625|0.58819580078125|-0.6488037109375|29114.65947925|-1.481922377279931|-0.5414891862307936|-0.580169539362365|0.3683252930641174|0.2762047052383423|-1.004568576812744|-0.1120467483997345|0.06697672605514526|0.0848696231842041|XArbitraryZVertical|-0.3763382845959696|-0.003046133149241482|-0.566791548415596|0.7328762577268741|-0.4310756027698517|0.5481657385826111|-0.7167204618453979|0|0|0|-1|-1|3
2021-04-09 10:13:21.938 +0100|29114.68442925|-0.5897979736328125|0.5860443115234375|-0.6587371826171875|29114.67943925|-1.499794322203997|-0.5463930903121523|-0.5669600167677756|0.2544114589691162|0.3382207155227661|-1.028956055641174|-0.1419068872928619|0.04273289442062378|0.061817467212677|XArbitraryZVertical|-0.3736348840433869|-0.005994034196610234|-0.5748701577251293|0.7279322680037327|-0.4383095800876617|0.5370702147483826|-0.7207220792770386|0|0|0|-1|-1|3
2021-04-09 10:13:21.958 +0100|29114.70439025|-0.587554931640625|0.5921630859375|-0.6689300537109375|29114.69940025|-1.519847140836299|-0.5513928413888919|-0.5557846694975668|0.1424455940723419|0.3859326839447021|-1.056622982025146|-0.144256055355072|0.0462573766708374|0.05777221918106079|XArbitraryZVertical|-0.3716756072244399|-0.007917105574545872|-0.5832891851504641|0.7221969138529768|-0.4450241327285767|0.5276100039482117|-0.7235891222953796|0|0|0|-1|-1|3
2021-04-09 10:13:21.978 +0100|29114.72435125|-0.597991943359375|0.656646728515625|-0.6865692138671875|29114.71936125|-1.539944056315709|-0.5549852773187847|-0.5456863467823944|0.1923471093177795|0.4423538744449615|-1.051856756210327|-0.1488999426364899|0.1136393547058105|0.05522805452346802|XArbitraryZVertical|-0.3697033826881765|-0.008991599249278911|-0.5917226401885122|0.716312012160076|-0.4504052996635437|0.5190048813819885|-0.7264771461486816|0|0|0|-1|-1|3
2021-04-09 10:13:21.998 +0100|29114.74431125|-0.5677642822265625|0.5826416015625|-0.721588134765625|29114.73932125|-1.558575912145296|-0.5560042984828349|-0.5329468287744841|0.1782169044017792|0.4960043430328369|-1.020262122154236|-0.1306076943874359|0.1199929118156433|0.03154754638671875|XArbitraryZVertical|-0.3662030973721297|-0.01038967225366794|-0.6005269486848013|0.7107425460650145|-0.4545984268188477|0.5080736875534058|-0.7315747141838074|0|0|0|-1|-1|3
2021-04-09 10:13:22.018 +0100|29114.76427225|-0.5261383056640625|0.50299072265625|-0.747711181640625|29114.75928225|-1.576921913255438|-0.5548767619908633|-0.5209143606666262|-0.006724553182721138|0.5363985300064087|-0.9623064398765564|-0.0918375551700592|0.04186168313026428|6.276369094848633e-05|XArbitraryZVertical|-0.3623069649162806|-0.01089735781948884|-0.6094179232610777|0.7051417300354621|-0.456961065530777|0.4976734220981598|-0.7372298240661621|0|0|0|-1|-1|3
2021-04-09 10:13:22.038 +0100|29114.78423325|-0.46160888671875|0.4243316650390625|-0.7567138671875|29114.77924225|-1.59688928997823|-0.5535015031139299|-0.5137343876749364|-0.3190564215183258|0.5726556181907654|-0.8945600986480713|-0.04217237234115601|-0.03452426195144653|-0.01000642776489258|XArbitraryZVertical|-0.3598237700276695|-0.009365412266825869|-0.6179708327595473|0.6989645304230639|-0.4578133821487427|0.4914329946041107|-0.7408782839775085|0|0|0|-1|-1|3
2021-04-09 10:13:22.058 +0100|29114.80419325|-0.411163330078125|0.48974609375|-0.7507171630859375|29114.79920325|-1.618671036001062|-0.5532069805690901|-0.5119635317646474|-0.4728640019893646|0.5190873742103577|-0.8224053382873535|0.02804273366928101|-0.04181608557701111|-0.00901031494140625|XArbitraryZVertical|-0.3592882224233411|-0.005982877724830003|-0.6259170994142796|0.6921734504135056|-0.4580516517162323|0.4898899793624878|-0.7417523860931396|0|0|0|-1|-1|3
2021-04-09 10:13:22.078 +0100|29114.82415425|-0.3791046142578125|0.557281494140625|-0.7960662841796875|29114.81916425|-1.639539766575855|-0.5541893683585878|-0.5108041917427396|-0.361838698387146|0.4004059433937073|-0.7984182238578796|0.06382933259010315|0.03519892692565918|-0.01979666948318481|XArbitraryZVertical|-0.359303235706381|-0.002992130214335554|-0.6331364833787184|0.6855877536290975|-0.4590786993503571|0.4888789355754852|-0.7417844533920288|0|0|0|-1|-1|3
2021-04-09 10:13:22.098 +0100|29114.84411525|-0.4213104248046875|0.58685302734375|-0.8893890380859375|29114.83912425|-1.658152455763975|-0.5564804575276916|-0.5062616782121839|-0.136067807674408|0.3147740364074707|-0.827776312828064|0.07145655155181885|0.1032535433769226|-0.09647178649902344|XArbitraryZVertical|-0.3587356332476115|-0.002091274082125188|-0.6398901636789289|0.6795918355566781|-0.4619452357292175|0.4849112331867218|-0.7426087260246277|0|0|0|-1|-1|3
2021-04-09 10:13:22.118 +0100|29114.86407525|-0.4170684814453125|0.45458984375|-0.956817626953125|29114.85908525|-1.676423086669588|-0.5591727415229197|-0.4999097333534092|-0.2180353701114655|0.3089621663093567|-0.8634235262870789|0.04437816143035889|0.0436939001083374|-0.1928547024726868|XArbitraryZVertical|-0.3577939947247581|-0.002064934372966638|-0.6467207334515682|0.6735959785062611|-0.4655674397945404|0.4793463349342346|-0.7439584136009216|0|0|0|-1|-1|3
2021-04-09 10:13:22.138 +0100|29114.88403625|-0.3694915771484375|0.4240570068359375|-0.918060302734375|29114.87904625|-1.696650937020523|-0.5624353961894168|-0.4954090135214891|-0.3203806579113007|0.3436072766780853|-0.8786629438400269|0.07225584983825684|-0.03558799624443054|-0.1999911665916443|XArbitraryZVertical|-0.3575920059443944|-0.001207920014180559|-0.6537153489357582|0.6669203930812935|-0.4691379368305206|0.4753915369510651|-0.7442529797554016|0|0|0|-1|-1|3
2021-04-09 10:13:22.158 +0100|29114.90399725|-0.290771484375|0.355133056640625|-0.85955810546875|29114.89900625|-1.716897087138834|-0.5639193891119648|-0.4930326836352701|-0.3627934455871582|0.3662983179092407|-0.8485751748085022|0.1402770280838013|-0.07712092995643616|-0.1459634900093079|XArbitraryZVertical|-0.3574137665037266|0.001031733917641824|-0.6605883126670615|0.660210234989184|-0.4708443880081177|0.4732995629310608|-0.744508683681488|0|0|0|-1|-1|3
2021-04-09 10:13:22.178 +0100|29114.92395725|-0.24932861328125|0.3057861328125|-0.825286865234375|29114.91896725|-1.73627480553272|-0.5644337848175568|-0.4930137993560023|-0.4535961151123047|0.3491268157958984|-0.7667591571807861|0.2100922167301178|-0.1419541239738464|-0.08755874633789062|XArbitraryZVertical|-0.357553329764811|0.004319288466687522|-0.6668652847112484|0.6537796113454406|-0.4712320864200592|0.4732829332351685|-0.7442739009857178|0|0|0|-1|-1|3
2021-04-09 10:13:22.198 +0100|29114.94391825|-0.2411346435546875|0.246490478515625|-0.84332275390625|29114.93892825|-1.755798163653993|-0.5649014848141399|-0.4961282621280566|-0.6944420337677002|0.3544056117534637|-0.6717184782028198|0.2263267338275909|-0.2034722566604614|-0.08823442459106445|XArbitraryZVertical|-0.3584960598350954|0.008841514119200524|-0.6725813185752643|0.6473305590056156|-0.4707887470722198|0.4760241806507111|-0.7428048253059387|0|0|0|-1|-1|3
2021-04-09 10:13:22.218 +0100|29114.96387825|-0.21356201171875|0.2365570068359375|-0.8686065673828125|29114.95888825|-1.777801752458194|-0.5682411301849319|-0.5030339472659356|-0.9118276834487915|0.3678231239318848|-0.5923165082931519|0.2461895644664764|-0.2436831295490265|-0.1167080402374268|XArbitraryZVertical|-0.3613498531596483|0.01436061903431599|-0.6778357300538905|0.6401242200589019|-0.471486508846283|0.4820858538150787|-0.7384400963783264|0|0|0|-1|-1|3
2021-04-09 10:13:22.238 +0100|29114.98383925|-0.215057373046875|0.2459869384765625|-0.9005889892578125|29114.97884925|-1.801208366551492|-0.5720017834465362|-0.5133638109113036|-1.003424406051636|0.3912802040576935|-0.5849220752716064|0.2499959468841553|-0.2642126381397247|-0.1522843241691589|XArbitraryZVertical|-0.3651369054336598|0.02138604143320981|-0.6827481984547037|0.6325129801101138|-0.4715392291545868|0.491110235452652|-0.7324353456497192|0|0|0|-1|-1|3
2021-04-09 10:13:22.257 +0100|29115.00380025|-0.279693603515625|0.2653961181640625|-0.8995819091796875|29114.99881025|-1.824692423451603|-0.574969505739456|-0.522639653812101|-0.8994463086128235|0.4923653304576874|-0.6490356922149658|0.2203424870967865|-0.2150511145591736|-0.1694279313087463|XArbitraryZVertical|-0.3682485463579397|0.02835180879309557|-0.6879070146423721|0.6247985695728009|-0.4712131917476654|0.4991691410541534|-0.7271783947944641|0|0|0|-1|-1|3
2021-04-09 10:13:22.277 +0100|29115.02376025|-0.3041229248046875|0.2137603759765625|-0.8992767333984375|29115.01877025|-1.849841873453843|-0.5768423827896666|-0.5300077295842853|-0.924312949180603|0.5849723815917969|-0.783436119556427|0.1869700849056244|-0.2539384961128235|-0.1847972273826599|XArbitraryZVertical|-0.3703492019032795|0.03529053674560619|-0.6940216045725203|0.6163847769977515|-0.4705556035041809|0.5055400133132935|-0.7231920957565308|0|0|0|-1|-1|3
2021-04-09 10:13:22.297 +0100|29115.04372125|-0.34503173828125|0.12188720703125|-0.89141845703125|29115.03873125|-1.879753235423688|-0.5794752524698031|-0.5376292407664813|-1.140564680099487|0.6644148230552673|-0.9588155746459961|0.13680699467659|-0.3476731181144714|-0.1817153096199036|XArbitraryZVertical|-0.3725514383017034|0.04304135924794268|-0.7012774183500832|0.606269651514408|-0.4703344702720642|0.5121011137962341|-0.7187057137489319|0|0|0|-1|-1|3
2021-04-09 10:13:22.317 +0100|29115.06368225|-0.391632080078125|0.20849609375|-0.81951904296875|29115.05869225|-1.915833146908111|-0.584384513472924|-0.5466371405166978|-1.228962063789368|0.7091521024703979|-1.13132119178772|0.1032348871231079|-0.3722198009490967|-0.1434453129768372|XArbitraryZVertical|-0.3755674471712524|0.05189683776972056|-0.7095215195434412|0.5939991813017318|-0.4712930023670197|0.5198173522949219|-0.7125115990638733|0|0|0|-1|-1|3
2021-04-09 10:13:22.337 +0100|29115.08364225|-0.422454833984375|0.2938690185546875|-0.778106689453125|29115.07865225|-1.953519511584839|-0.5893677600717182|-0.5502639477909921|-0.8160285353660583|0.7621779441833496|-1.353833556175232|0.0594182014465332|-0.2345675826072693|-0.08501195907592773|XArbitraryZVertical|-0.377133925451455|0.05898149725288215|-0.718979187527194|0.580827214380867|-0.4737867712974548|0.5229122042655945|-0.70858234167099|0|0|0|-1|-1|3
2021-04-09 10:13:22.357 +0100|29115.10360325|-0.430084228515625|0.2601165771484375|-0.7981719970703125|29115.09861325|-1.990103012050064|-0.592729166346182|-0.5442114803477613|-0.4595459401607513|0.8033614158630371|-1.579567193984985|0.05446243286132812|-0.2334273457527161|-0.07293391227722168|XArbitraryZVertical|-0.3759006434196745|0.06244824886412909|-0.7299689953946912|0.5674013615381572|-0.477925181388855|0.5177436470985413|-0.7095978260040283|0|0|0|-1|-1|3
2021-04-09 10:13:22.377 +0100|29115.12356425|-0.4138641357421875|0.162994384765625|-0.82476806640625|29115.11857325|-2.027870488961746|-0.5960416921888809|-0.5324535820543769|-0.4009373784065247|0.7881718277931213|-1.762909173965454|0.05718851089477539|-0.3021441698074341|-0.1104867458343506|XArbitraryZVertical|-0.3734069194522081|0.06377665186085864|-0.7420795071580663|0.5530080872605131|-0.4836572408676147|0.507648766040802|-0.7129996418952942|0|0|0|-1|-1|3
2021-04-09 10:13:22.397 +0100|29115.14352425|-0.4412841796875|0.142852783203125|-0.8502044677734375|29115.13853425|-2.068795335564418|-0.6010666236311416|-0.5190741178730317|-0.5515611171722412|0.785393238067627|-1.920121431350708|0.07333633303642273|-0.3331286013126373|-0.0991026759147644|XArbitraryZVertical|-0.3712041725583188|0.06448566026294399|-0.7547067011975703|0.5370910893891571|-0.4910311996936798|0.4960764348506927|-0.7160981297492981|0|0|0|-1|-1|3
2021-04-09 10:13:22.417 +0100|29115.16348525|-0.4585723876953125|0.0778961181640625|-0.8542327880859375|29115.15849525|-2.116215521332764|-0.6087191379294966|-0.5097343582735929|-1.059775829315186|0.7721414566040039|-1.996787667274475|0.04372510313987732|-0.3987585604190826|-0.1586205959320068|XArbitraryZVertical|-0.3707006157922949|0.06735208639588898|-0.7674597102681976|0.5187007392192289|-0.4991244077682495|0.4879453778266907|-0.7160894870758057|0|0|0|-1|-1|3
2021-04-09 10:13:22.437 +0100|29115.18344625|-0.4759368896484375|0.184539794921875|-0.796295166015625|29115.17845525|-2.169904202778547|-0.6193670723228407|-0.5070935463078506|-1.387606620788574|0.7701265215873718|-1.992686033248901|0.04079157114028931|-0.3483408391475677|-0.1177630424499512|XArbitraryZVertical|-0.3724336965455232|0.0735022841232299|-0.7795929350071505|0.4981220518575779|-0.5074671506881714|0.4856385886669159|-0.7117810845375061|0|0|0|-1|-1|3
2021-04-09 10:13:22.457 +0100|29115.20340625|-0.496856689453125|0.3447723388671875|-0.6990966796875|29115.19841625|-2.224356243087259|-0.6309102394376237|-0.5050795699980847|-1.184021472930908|0.7164604663848877|-1.993691682815552|0.03514546155929565|-0.2325351536273956|-0.03259354829788208|XArbitraryZVertical|-0.3745244713473319|0.07999526175029595|-0.7910625914655683|0.4770243143362885|-0.5162252187728882|0.4838770627975464|-0.7066643834114075|0|0|0|-1|-1|3
2021-04-09 10:13:22.477 +0100|29115.22336725|-0.510650634765625|0.3513031005859375|-0.709381103515625|29115.21837725|-2.274667526537714|-0.6414488569901097|-0.4972460861783197|-0.8716862201690674|0.6440633535385132|-2.026964664459229|0.02569663524627686|-0.1016110777854919|0.01621198654174805|XArbitraryZVertical|-0.3753843248228323|0.08358465238907854|-0.8021764503062802|0.4567421103378626|-0.5258956551551819|0.4770069420337677|-0.7042004466056824|0|0|0|-1|-1|3
2021-04-09 10:13:22.497 +0100|29115.24332825|-0.5918121337890625|0.2844085693359375|-0.7597198486328125|29115.23833725|-2.3239172927859|-0.6525627570471328|-0.4876582625633437|-1.051448106765747|0.600391149520874|-2.012295007705688|-0.009823322296142578|-0.1836776733398438|-0.03992277383804321|XArbitraryZVertical|-0.3763183373232695|0.08618322635544953|-0.8127009384285743|0.436433728216103|-0.53644198179245|0.4685584008693695|-0.7019138932228088|0|0|0|-1|-1|3
2021-04-09 10:13:22.517 +0100|29115.26328825|-0.6056671142578125|0.266387939453125|-0.718017578125|29115.25829825|-2.377833934391647|-0.6657224790230413|-0.4843372112722322|-1.680952310562134|0.5970646739006042|-1.962313771247864|-0.06562340259552002|-0.1871041059494019|-0.0564429759979248|XArbitraryZVertical|-0.3788268106947385|0.09210487158158541|-0.8222385829595801|0.4146453437991181|-0.5465903282165527|0.4656219184398651|-0.696013867855072|0|0|0|-1|-1|3
2021-04-09 10:13:22.537 +0100|29115.28324925|-0.6434173583984375|0.5041351318359375|-0.6366119384765625|29115.27825925|-2.43669130902328|-0.6815379966413215|-0.4886118571520576|-1.761874437332153|0.592950701713562|-1.864296197891235|-0.05705720186233521|-0.07592314481735229|0.01391643285751343|XArbitraryZVertical|-0.3830499779421815|0.1020166956358621|-0.8303896719680239|0.391559101303448|-0.5562703609466553|0.4694006443023682|-0.6857306361198425|0|0|0|-1|-1|3
2021-04-09 10:13:22.557 +0100|29115.30321025|-0.6517486572265625|0.541229248046875|-0.6525421142578125|29115.29821925|-2.491184447958013|-0.6948926865842319|-0.4888955470722315|-1.313659906387329|0.6457604765892029|-1.833265781402588|-0.080780029296875|0.06237620115280151|0.03899335861206055|XArbitraryZVertical|-0.3857642779966567|0.1100756785593401|-0.8381462153731324|0.369567759000717|-0.5652928948402405|0.4696511030197144|-0.6781385540962219|0|0|0|-1|-1|3
2021-04-09 10:13:22.577 +0100|29115.32317025|-0.669708251953125|0.46343994140625|-0.68682861328125|29115.31818025|-2.53933427269168|-0.7033905546935969|-0.4833410265104814|-1.101403832435608|0.7551467418670654|-1.788851141929626|-0.1032054424285889|0.07162070274353027|-0.001758575439453125|XArbitraryZVertical|-0.3860665336802963|0.1153599248465775|-0.846039460689571|0.349087457170466|-0.5727136135101318|0.4647400677204132|-0.6752894520759583|0|0|0|-1|-1|3
2021-04-09 10:13:22.597 +0100|29115.34313125|-0.6312255859375|0.3888702392578125|-0.65240478515625|29115.33814125|-2.588134167436293|-0.7104446445859173|-0.481083752402565|-1.678352355957031|0.7880997657775879|-1.642945170402527|-0.06374633312225342|-0.07199406623840332|-0.003968954086303711|XArbitraryZVertical|-0.3859573161694337|0.1225717192555733|-0.8532950586818736|0.3284825700603288|-0.5781456232070923|0.4627401828765869|-0.6720262765884399|0|0|0|-1|-1|3
2021-04-09 10:13:22.617 +0100|29115.36309225|-0.6150054931640625|0.6222381591796875|-0.5828857421875|29115.35810125|-2.643936356135429|-0.7210956214420638|-0.4906220320947531|-2.084667444229126|0.7513645887374878|-1.461688876152039|-0.03340846300125122|-0.02169740200042725|0.03313601016998291|XArbitraryZVertical|-0.3876479205922972|0.1359652348409828|-0.8586355879167133|0.3065738845868977|-0.5823298096656799|0.4711746275424957|-0.6624850630760193|0|0|0|-1|-1|3
2021-04-09 10:13:22.637 +0100|29115.383051875|-0.6461181640625|0.7368927001953125|-0.6125946044921875|29115.378061875|-2.695586393148538|-0.7297609784609239|-0.4990019942406487|-1.530921459197998|0.8414710760116577|-1.417623043060303|-0.070168137550354|0.2669940590858459|0.06999045610427856|XArbitraryZVertical|-0.3882395780031161|0.1484785971186373|-0.8633384376069327|0.2861311932373075|-0.5853955745697021|0.4785494804382324|-0.6544482707977295|0|0|0|-1|-1|3
2021-04-09 10:13:22.657 +0100|29115.403012875|-0.640380859375|0.60150146484375|-0.6179656982421875|29115.398022875|-2.739561622778235|-0.7331208196435711|-0.5004485961826621|-1.301666736602783|0.9387314319610596|-1.343151450157166|-0.04300004243850708|0.1981737017631531|0.04605090618133545|XArbitraryZVertical|-0.3864091575855402|0.1571835066934025|-0.8685589747334003|0.2675569090980588|-0.5871272087097168|0.4798191785812378|-0.6519626379013062|0|0|0|-1|-1|3
2021-04-09 10:13:22.677 +0100|29115.422973875|-0.5984649658203125|0.4852142333984375|-0.593841552734375|29115.417982875|-2.785628334001692|-0.736504309775866|-0.5083240408141404|-2.225971221923828|0.9433006644248962|-1.099602341651917|-0.03526675701141357|0.05170685052871704|0.04970979690551758|XArbitraryZVertical|-0.3844470748003463|0.1691863296651341|-0.8726969743739581|0.248951148709653|-0.5867733359336853|0.4867138862609863|-0.647152841091156|0|0|0|-1|-1|3
2021-04-09 10:13:22.697 +0100|29115.442933875|-0.5941925048828125|0.6339874267578125|-0.5610504150390625|29115.437943875|-2.8490742028249|-0.7504409748212134|-0.5404892103582651|-3.746196985244751|0.843546986579895|-0.7889553904533386|0.0005848407745361328|-0.0231471061706543|0.02180206775665283|XArbitraryZVertical|-0.3856062329282281|0.1942699910337846|-0.872825491480299|0.2274702978014357|-0.58475261926651|0.5145555138587952|-0.6271340250968933|0|0|0|-1|-1|3
2021-04-09 10:13:22.717 +0100|29115.462894875|-0.66064453125|0.97662353515625|-0.526763916015625|29115.457904875|-2.922088867773698|-0.7717304275502933|-0.5853206501201411|-3.581334829330444|0.9808863997459412|-0.6392484307289124|-0.04822903871536255|0.3392561078071594|0.06195199489593506|XArbitraryZVertical|-0.3874662359946662|0.2262090991326332|-0.8698491040343388|0.2050902822547639|-0.5812877416610718|0.5524666905403137|-0.5973986983299255|0|0|0|-1|-1|3
2021-04-09 10:13:22.736 +0100|29115.482855875|-0.603179931640625|0.8516693115234375|-0.4341278076171875|29115.477864875|-2.989073822974464|-0.7889066396795834|-0.6229080101250613|-2.904843330383301|1.08415675163269|-0.6119762063026428|-0.0536155104637146|0.3043713569641113|0.07141298055648804|XArbitraryZVertical|-0.3863047744763231|0.2542182472300415|-0.867264343876316|0.1843759563283344|-0.5763132572174072|0.5833994746208191|-0.5722833871841431|0|0|0|-1|-1|3
2021-04-09 10:13:22.757 +0100|29115.502815875|-0.61029052734375|0.694488525390625|-0.385009765625|29115.497825875|-3.043550363251864|-0.7990254101427563|-0.6500257045488163|-2.237962484359741|1.120834827423096|-0.523567795753479|-0.05879473686218262|0.1672380566596985|0.1436522603034973|XArbitraryZVertical|-0.3825777754650995|0.2757589978264849|-0.8658851418986476|0.1668361817804865|-0.5705236792564392|0.6052068471908569|-0.5551824569702148|0|0|0|-1|-1|3
2021-04-09 10:13:22.776 +0100|29115.522776875|-0.591644287109375|0.769378662109375|-0.343109130859375|29115.517786875|-3.088370377064156|-0.8052519884535454|-0.6718563270803394|-1.758194088935852|1.014209747314453|-0.3632318377494812|-0.01899039745330811|0.0819355845451355|0.1792652010917664|XArbitraryZVertical|-0.3778727678000442|0.2933349544475919|-0.8648652971309505|0.1522331196790494|-0.5643075108528137|0.6224399209022522|-0.5423335433006287|0|0|0|-1|-1|3
2021-04-09 10:13:22.796 +0100|29115.542737875|-0.6271209716796875|0.8401031494140625|-0.3947906494140625|29115.537746875|-3.119381329787071|-0.8050892408531596|-0.686474306231588|-1.032447218894958|0.9550144672393799|-0.2624194622039795|-0.06036585569381714|0.2006579637527466|0.1821639537811279|XArbitraryZVertical|-0.3723253545999952|0.3055207581293121|-0.8648823178271021|0.1414556518590698|-0.5575999617576599|0.6338140368461609|-0.5360617637634277|0|0|0|-1|-1|3
2021-04-09 10:13:22.816 +0100|29115.562697875|-0.638458251953125|0.790008544921875|-0.4152679443359375|29115.557707875|-3.138210085840186|-0.798983342287773|-0.694606987990665|-0.6219236254692078|0.8608035445213318|-0.1586141437292099|-0.08085048198699951|0.1595221161842346|0.1265258193016052|XArbitraryZVertical|-0.3662571743160997|0.3129438907486632|-0.8660290810466363|0.133849276384092|-0.5506041049957275|0.6400835514068604|-0.5358436107635498|0|0|0|-1|-1|3
2021-04-09 10:13:22.836 +0100|29115.582658875|-0.62359619140625|0.7198333740234375|-0.4492340087890625|29115.577668875|3.132917357319349|-0.7904544777699325|-0.7006917149404842|-0.5342109203338623|0.7665430307388306|-0.06075984612107277|-0.09337598085403442|0.1282935738563538|0.09633255004882812|XArbitraryZVertical|-0.3602521962091267|0.3183289298689683|-0.8674113595485878|0.1283855131697983|-0.5432360768318176|0.6447466015815735|-0.5377700924873352|0|0|0|-1|-1|3
2021-04-09 10:13:22.856 +0100|29115.602619875|-0.6256561279296875|0.7177276611328125|-0.4744110107421875|29115.597628875|3.122050998557952|-0.7829637359364754|-0.7086444150040917|-0.6083216071128845|0.6909580826759338|0.02923555113375187|-0.07996571063995361|0.07694685459136963|0.06972694396972656|XArbitraryZVertical|-0.3547062730749857|0.3241869528450011|-0.8681782610074807|0.1239067718777153|-0.5355586409568787|0.6508051753044128|-0.5381725430488586|0|0|0|-1|-1|3
2021-04-09 10:13:22.876 +0100|29115.622579875|-0.6183624267578125|0.7670745849609375|-0.4617462158203125|29115.617589875|3.11183483844143|-0.7762901835084391|-0.7180592020422051|-0.5441892743110657|0.6531307697296143|0.08375063538551331|-0.09072369337081909|0.06621140241622925|0.06677228212356567|XArbitraryZVertical|-0.3494619580017774|0.3304646761823805|-0.8684767769602456|0.1200739198520319|-0.5276387929916382|0.6579243540763855|-0.5373388528823853|0|0|0|-1|-1|3
2021-04-09 10:13:22.896 +0100|29115.642540875|-0.6138763427734375|0.7250213623046875|-0.4833221435546875|29115.637550875|3.1057805834666|-0.767371067965488|-0.7253800007365908|-0.3080404996871948|0.6391310691833496|0.09601866453886032|-0.1073941588401794|0.09471243619918823|0.08807158470153809|XArbitraryZVertical|-0.3440413627525522|0.3352079701437801|-0.8692062139300601|0.1172680564458018|-0.5194674134254456|0.6634198427200317|-0.5385423302650452|0|0|0|-1|-1|3
2021-04-09 10:13:22.916 +0100|29115.662500875|-0.632415771484375|0.6568756103515625|-0.59356689453125|29115.657510875|3.102876379293047|-0.7568775458126927|-0.7306829487871547|-0.2656703591346741|0.6117434501647949|0.1181687116622925|-0.105548083782196|0.00655597448348999|0.009354174137115479|XArbitraryZVertical|-0.3385948137758697|0.3386064343344717|-0.87030697346161|0.1151749969348301|-0.5113648772239685|0.6673783659934998|-0.5413984656333923|0|0|0|-1|-1|3
2021-04-09 10:13:22.936 +0100|29115.682461875|-0.6425933837890625|0.638519287109375|-0.6502227783203125|29115.677471875|3.099327107360019|-0.7468282410985585|-0.7373645950552943|-0.4240124821662903|0.641467273235321|0.1401774287223816|-0.1463730335235596|-0.0321422815322876|-0.1062353253364563|XArbitraryZVertical|-0.3331165679849223|0.3426670175242381|-0.8711053588495554|0.1130854261141485|-0.5028579831123352|0.6723393797874451|-0.5432253479957581|0|0|0|-1|-1|3
2021-04-09 10:13:22.956 +0100|29115.702422875|-0.600341796875|0.63458251953125|-0.5973968505859375|29115.697432875|3.093652352619331|-0.7372275162887678|-0.7460774765006087|-0.4816551208496094|0.7069365382194519|0.1369482576847076|-0.129582554101944|-0.02266663312911987|-0.09451401233673096|XArbitraryZVertical|-0.3272964823880681|0.3479106406922368|-0.8715697901876133|0.1104604729383166|-0.4936627149581909|0.6787634491920471|-0.5436704158782959|0|0|0|-1|-1|3
2021-04-09 10:13:22.976 +0100|29115.722382875|-0.5740203857421875|0.63397216796875|-0.579742431640625|29115.717392875|3.087331841734638|-0.7267851700777263|-0.7549105708565403|-0.4735286235809326|0.7713522911071777|0.1108158081769943|-0.09235340356826782|-0.05544811487197876|-0.03033781051635742|XArbitraryZVertical|-0.320959180492451|0.3533246836085996|-0.8721329950894978|0.1073832940405534|-0.4839558601379395|0.6852235198020935|-0.5442937612533569|0|0|0|-1|-1|3
2021-04-09 10:13:22.996 +0100|29115.742343875|-0.606048583984375|0.649627685546875|-0.606964111328125|29115.737353875|3.080624857212206|-0.7151857025572516|-0.762833630799326|-0.4397408068180084|0.8493438959121704|0.04352784901857376|-0.1200661957263947|-0.05031764507293701|-0.04914069175720215|XArbitraryZVertical|-0.3140885596588247|0.3584286436454074|-0.8729933995839744|0.1037301613208728|-0.4740347564220428|0.6909725666046143|-0.5457545518875122|0|0|0|-1|-1|3
2021-04-09 10:13:23.016 +0100|29115.762304875|-0.6120452880859375|0.634429931640625|-0.6338653564453125|29115.757314875|3.07328224357272|-0.7027592966012063|-0.7693644163947987|-0.4312992095947266|0.9026784896850586|-0.01357351895421743|-0.1473127603530884|-0.04065006971359253|-0.07341992855072021|XArbitraryZVertical|-0.3068212000509731|0.3630246605560319|-0.8741851596189271|0.09936937884527008|-0.4642900228500366|0.6956788301467896|-0.5481476783752441|0|0|0|-1|-1|3
2021-04-09 10:13:23.036 +0100|29115.782264875|-0.6041259765625|0.6744537353515625|-0.60284423828125|29115.777274875|3.063471011014652|-0.6912546898780861|-0.7768574236386021|-0.5848904252052307|0.9312658905982971|-0.04375592246651649|-0.1504089534282684|-0.05339831113815308|-0.07814311981201172|XArbitraryZVertical|-0.2993946494109437|0.3683099788484758|-0.8751203969752597|0.09420792989070735|-0.4546172916889191|0.7010418772697449|-0.5494211912155151|0|0|0|-1|-1|3
2021-04-09 10:13:23.056 +0100|29115.802225875|-0.568267822265625|0.67315673828125|-0.5264129638671875|29115.797235875|3.050985467280152|-0.6814875444537896|-0.786086723603419|-0.6825002431869507|0.9138944745063782|-0.05115338787436485|-0.1431223750114441|-0.03484934568405151|-0.01826125383377075|XArbitraryZVertical|-0.2920406865018258|0.3745916474718639|-0.8755414373426829|0.08843370566702694|-0.4451344013214111|0.7075935006141663|-0.5487866997718811|0|0|0|-1|-1|3
2021-04-09 10:13:23.076 +0100|29115.822186875|-0.5542449951171875|0.7097930908203125|-0.4438323974609375|29115.817196875|3.037470686005088|-0.6736429179780598|-0.796471587587398|-0.6719738245010376|0.8213584423065186|-0.0341106615960598|-0.1265513896942139|-0.0467877984046936|0.05565869808197021|XArbitraryZVertical|-0.2851683386948131|0.3813587869030576|-0.8754441549338811|0.08271731766186581|-0.4362079501152039|0.7148933410644531|-0.5464890003204346|0|0|0|-1|-1|3
2021-04-09 10:13:23.096 +0100|29115.842146875|-0.5528717041015625|0.720550537109375|-0.4138946533203125|29115.837156875|3.027175940555493|-0.6652372166568444|-0.8025007926986358|-0.3653806447982788|0.7758025527000427|-0.04562466219067574|-0.1335692703723907|0.02228212356567383|0.1249050498008728|XArbitraryZVertical|-0.2789854516403185|0.3857454518983514|-0.875985584038449|0.07756901798936611|-0.4289306700229645|0.7190961837768555|-0.5467351078987122|0|0|0|-1|-1|3
2021-04-09 10:13:23.116 +0100|29115.862107875|-0.538543701171875|0.6902008056640625|-0.368499755859375|29115.857117875|3.022205225706287|-0.6539469443954777|-0.8013785441655246|-0.07726381719112396|0.7240513563156128|-0.04929201304912567|-0.1204339861869812|-0.03144198656082153|0.1604891419410706|XArbitraryZVertical|-0.2731747528037781|0.3863729032619469|-0.8779283049735409|0.07303096906320629|-0.4232213199138641|0.7183158397674561|-0.5521830916404724|0|0|0|-1|-1|3
2021-04-09 10:13:23.136 +0100|29115.882068875|-0.478179931640625|0.7364044189453125|-0.30169677734375|29115.877078875|3.017924948385296|-0.6453269703952536|-0.800187908654944|-0.0474637933075428|0.622624397277832|2.299435436725616e-06|-0.0970921516418457|-0.01379793882369995|0.215474009513855|XArbitraryZVertical|-0.2686657554783017|0.3867453109972373|-0.8794571755741871|0.06929635977596879|-0.4189599752426147|0.7174869775772095|-0.5564935803413391|0|0|0|-1|-1|3
2021-04-09 10:13:23.156 +0100|29115.902028875|-0.444915771484375|0.7906494140625|-0.232818603515625|29115.897038875|3.018609282317176|-0.63379590059885|-0.800643814508658|0.05030415952205658|0.4776023626327515|0.05519835278391838|-0.05110299587249756|0.07540792226791382|0.3022493124008179|XArbitraryZVertical|-0.2636833218176955|0.387245579358784|-0.8808884371124885|0.06743730600775338|-0.4123215675354004|0.717804491519928|-0.5610239505767822|0|0|0|-1|-1|3
2021-04-09 10:13:23.176 +0100|29115.921989875|-0.3871307373046875|0.7474212646484375|-0.1956787109375|29115.916999875|3.021695411683022|-0.6240826450744389|-0.8004995524658024|0.06211188435554504|0.259112149477005|0.1207904145121574|0.002143532037734985|0.05945611000061035|0.3494178056716919|XArbitraryZVertical|-0.2600122085767887|0.3871051914013827|-0.8820819699706309|0.06689498059843735|-0.4069133698940277|0.7177040576934814|-0.5650864243507385|0|0|0|-1|-1|3
2021-04-09 10:13:23.196 +0100|29115.941950875|-0.3846435546875|0.768798828125|-0.1866302490234375|29115.936960875|3.026176402769167|-0.6186818021956578|-0.8017361278166176|0.02430971153080463|-0.05364266410470009|0.2050585150718689|0.02733346819877625|0.03384572267532349|0.3855822682380676|XArbitraryZVertical|-0.2583918295013853|0.3872434751714894|-0.8824116809250638|0.06801346901266128|-0.4033403992652893|0.7185645699501038|-0.5665522813796997|0|0|0|-1|-1|3
2021-04-09 10:13:23.216 +0100|29115.961910875|-0.402557373046875|0.8798370361328125|-0.1757659912109375|29115.956920875|3.032939678644695|-0.6178940079989329|-0.8032730336523587|0.2068964242935181|-0.3510000705718994|0.2647448182106018|0.002488821744918823|0.08763313293457031|0.3828322887420654|XArbitraryZVertical|-0.2592246237635059|0.3870633629962689|-0.882005118304413|0.07107514292507505|-0.4022537171840668|0.7196325659751892|-0.5659691095352173|0|0|0|-1|-1|3
2021-04-09 10:13:23.236 +0100|29115.981871875|-0.4329681396484375|0.9760284423828125|-0.1787567138671875|29115.976881875|3.047779408610944|-0.616904644112245|-0.7989595952542448|0.7738640308380127|-0.6185136437416077|0.3423179984092712|-0.005800873041152954|0.221677303314209|0.3831167817115784|XArbitraryZVertical|-0.2619971234552071|0.3832894691940268|-0.882355065189417|0.0767871725660057|-0.4034855365753174|0.7166308164596558|-0.5688933730125427|0|0|0|-1|-1|3
2021-04-09 10:13:23.256 +0100|29116.001832875|-0.4264678955078125|0.923828125|-0.2432403564453125|29115.996842875|3.069973519368093|-0.6174842839420298|-0.7907052990215715|0.9888519644737244|-0.8497803211212158|0.4786369800567627|-0.04675307869911194|0.2695423364639282|0.3477236032485962|XArbitraryZVertical|-0.2671046126770931|0.3767275815913792|-0.8828508661896828|0.08547395194498064|-0.4072262942790985|0.7108495235443115|-0.5734629034996033|0|0|0|-1|-1|3
2021-04-09 10:13:23.275 +0100|29116.021792875|-0.396087646484375|0.967437744140625|-0.2255401611328125|29116.016802875|3.097410374900617|-0.6173790545140608|-0.7835894512155451|0.6881835460662842|-1.087666392326355|0.7006555795669556|0.001255244016647339|0.2226395010948181|0.3351375460624695|XArbitraryZVertical|-0.2726846141327658|0.3699124540784|-0.8828871888530937|0.09653045399703947|-0.4100838601589203|0.7058266997337341|-0.5776157379150391|0|0|0|-1|-1|3
2021-04-09 10:13:23.295 +0100|29116.041753875|-0.397735595703125|1.107955932617188|-0.186859130859375|29116.036763875|3.12658869263124|-0.6205097728334563|-0.7820853696318899|0.7341924905776978|-1.277534246444702|0.8900102376937866|0.02308750152587891|0.3422360420227051|0.3984041213989258|XArbitraryZVertical|-0.2795240118323062|0.3650619909197016|-0.8812202680711226|0.1097586483297578|-0.412507027387619|0.7047604322433472|-0.5771921277046204|0|0|0|-1|-1|3
2021-04-09 10:13:23.316 +0100|29116.061714875|-0.371856689453125|1.010406494140625|-0.2762908935546875|29116.056724875|-3.121894418174966|-0.6233194730130702|-0.7800210299205815|0.8646306991577148|-1.453439354896545|0.9935893416404724|0.02319082617759705|0.3277719020843506|0.3541571497917175|XArbitraryZVertical|-0.2871622102424098|0.3590716027970924|-0.8791577668901195|0.1252483613737339|-0.4149755239486694|0.7032943964004517|-0.5772109031677246|0|0|0|-1|-1|3
2021-04-09 10:13:23.335 +0100|29116.081674875|-0.3710479736328125|1.006423950195312|-0.3234405517578125|29116.076684875|-3.082190374063713|-0.6258865592834736|-0.7763818306280174|1.088296413421631|-1.595690846443176|1.08873438835144|0.03533834218978882|0.3042863607406616|0.2507293224334717|XArbitraryZVertical|-0.2955230856967799|0.3515096343701098|-0.8767917217824158|0.1426303812720612|-0.4179524779319763|0.7007026076316833|-0.578214168548584|0|0|0|-1|-1|3
2021-04-09 10:13:23.355 +0100|29116.101635875|-0.334442138671875|1.028915405273438|-0.1916046142578125|29116.096645875|-3.035886469027909|-0.6272391232752311|-0.7683988898849614|1.555801510810852|-1.787193894386292|1.115234375|0.07202816009521484|0.3392857313156128|0.3118791580200195|XArbitraryZVertical|-0.3044491347184689|0.3409270994166816|-0.8745378714564551|0.1620592109643016|-0.422003835439682|0.6949849128723145|-0.5821588635444641|0|0|0|-1|-1|3
2021-04-09 10:13:23.375 +0100|29116.121596875|-0.31689453125|0.913543701171875|-0.2181396484375|29116.116606875|-2.979478479612196|-0.6270954271536902|-0.7496922446169683|2.364886283874512|-2.071320295333862|1.094430804252625|0.1177069842815399|0.3121312856674194|0.4262464046478271|XArbitraryZVertical|-0.314275954880105|0.3238958295207281|-0.8731448353621604|0.1842291834258814|-0.4294747114181519|0.6814135313034058|-0.592644214630127|0|0|0|-1|-1|3
2021-04-09 10:13:23.395 +0100|29116.141556875|-0.3533477783203125|0.8092803955078125|-0.46807861328125|29116.136566875|-2.913040392312259|-0.6261485872473068|-0.7193861711688176|2.931524515151978|-2.26514196395874|1.14367401599884|0.1281943023204803|0.1603053212165833|0.2671926021575928|XArbitraryZVertical|-0.3245804014440773|0.2998217534114053|-0.8723372972616682|0.2092419491109413|-0.4408166110515594|0.6589230895042419|-0.6095089316368103|0|0|0|-1|-1|3
2021-04-09 10:13:23.415 +0100|29116.161517875|-0.4449615478515625|0.7803192138671875|-0.5516510009765625|29116.156527875|-2.840800030053292|-0.6259437378192874|-0.6842261467455691|3.100838899612427|-2.397066116333008|1.274988412857056|0.0361122190952301|0.1447659134864807|0.07420611381530762|XArbitraryZVertical|-0.3345936702186848|0.2721214252748121|-0.8706925087856591|0.2364141593017245|-0.4539896845817566|0.6320735216140747|-0.6279940009117126|0|0|0|-1|-1|3
2021-04-09 10:13:23.435 +0100|29116.181478875|-0.496368408203125|0.74481201171875|-0.49310302734375|29116.176488875|-2.766529599913259|-0.629759000570836|-0.6497652416006449|3.084702253341675|-2.582578420639038|1.433208346366882|0.001789093017578125|0.1755935549736023|0.1303165555000305|XArbitraryZVertical|-0.344938502536789|0.2434639450030404|-0.8668653257844512|0.2651176896089263|-0.4689372479915619|0.6049994826316833|-0.6434854865074158|0|0|0|-1|-1|3
2021-04-09 10:13:23.455 +0100|29116.201438875|-0.553466796875|0.61529541015625|-0.63397216796875|29116.196448875|-2.693663350411017|-0.6397711852378914|-0.6208840966368119|2.736832857131958|-2.717711687088013|1.5845046043396|-0.03090682625770569|0.06511056423187256|0.108180046081543|XArbitraryZVertical|-0.3563524624123481|0.2162388196254911|-0.8599851822154122|0.2944137354316896|-0.4855883121490479|0.5817545056343079|-0.6525073647499084|0|0|0|-1|-1|3
2021-04-09 10:13:23.475 +0100|29116.221399875|-0.6713409423828125|0.6511688232421875|-0.71087646484375|29116.216409875|-2.622824826688458|-0.6529468567670118|-0.5979083490806228|2.644979476928711|-2.64775276184082|1.664785027503967|-0.1225476264953613|0.07809066772460938|-0.02987301349639893|XArbitraryZVertical|-0.3677776971205947|0.191024681624233|-0.8506616115155017|0.3234565341284042|-0.5021323561668396|0.5629149079322815|-0.6564982533454895|0|0|0|-1|-1|3
2021-04-09 10:13:23.495 +0100|29116.241360875|-0.794708251953125|0.6592864990234375|-0.7176666259765625|29116.236370875|-2.551358194617225|-0.6644765881293287|-0.5771364837793115|2.597959756851196|-2.473495244979858|1.786689877510071|-0.2113819718360901|0.1482203006744385|-0.03808605670928955|XArbitraryZVertical|-0.3774005892050111|0.166445636771674|-0.8400536818604412|0.3523840933037405|-0.5167679190635681|0.5456264615058899|-0.6597293019294739|0|0|0|-1|-1|3
2021-04-09 10:13:23.515 +0100|29116.261321875|-0.86468505859375|0.5240478515625|-0.905517578125|29116.256330875|-2.480481216464679|-0.6736449152455475|-0.5620587857986633|2.272081136703491|-2.232090473175049|1.956321120262146|-0.3067279458045959|0.03684818744659424|-0.1474279165267944|XArbitraryZVertical|-0.3852939848605082|0.1445308495894427|-0.8279432447984083|0.3810112772432604|-0.527867317199707|0.5329293608665466|-0.6613187789916992|0|0|0|-1|-1|3
2021-04-09 10:13:23.535 +0100|29116.281281875|-0.871551513671875|0.536529541015625|-0.8877105712890625|29116.276291875|-2.412339866758938|-0.6782350996707158|-0.5530645043406137|2.124441623687744|-1.829329013824463|1.972419261932373|-0.3417582511901855|-0.02130037546157837|-0.2796664237976074|XArbitraryZVertical|-0.390792628215029|0.126427230526828|-0.8151899376907886|0.4083661003556935|-0.533883273601532|0.5252973437309265|-0.6625945568084717|0|0|0|-1|-1|3
2021-04-09 10:13:23.555 +0100|29116.301242875|-0.820343017578125|0.4909210205078125|-0.736907958984375|29116.296252875|-2.345089366469712|-0.6758218496504327|-0.5436029143484302|2.177257776260376|-1.474493026733398|1.924702882766724|-0.3178890347480774|0.0210605263710022|-0.134380042552948|XArbitraryZVertical|-0.3925804593060037|0.109618258765449|-0.8031753344969128|0.4344810439489593|-0.5353677868843079|0.5172228813171387|-0.6677288413047791|0|0|0|-1|-1|3
2021-04-09 10:13:23.575 +0100|29116.321203875|-0.823638916015625|0.3157196044921875|-0.826385498046875|29116.316212875|-2.280923566013486|-0.6702946813029171|-0.537375006469746|1.66316294670105|-1.281789302825928|2.003347635269165|-0.2800158262252808|-0.09521186351776123|-0.06689292192459106|XArbitraryZVertical|-0.3927794316942863|0.09555014848615362|-0.7910413713348451|0.4591820154819575|-0.5336597561836243|0.5118827223777771|-0.6731889843940735|0|0|0|-1|-1|3
2021-04-09 10:13:23.595 +0100|29116.341163875|-0.8410491943359375|0.3126983642578125|-0.949188232421875|29116.336173875|-2.224537558638219|-0.6642393641486326|-0.5406548898011548|1.153108716011047|-0.9815669059753418|1.970723271369934|-0.305525541305542|-0.2314648032188416|-0.2560241222381592|XArbitraryZVertical|-0.3934939464344694|0.08729984531042009|-0.7783780520521618|0.4813200080804629|-0.528535783290863|0.5146976113319397|-0.6750825047492981|0|0|0|-1|-1|3
2021-04-09 10:13:23.615 +0100|29116.361124875|-0.7629241943359375|0.3148345947265625|-0.8284912109375|29116.356134875|-2.174497141082737|-0.6546189360383596|-0.5465818415065679|1.033703446388245|-0.6671421527862549|1.775359749794006|-0.2933422327041626|-0.2029526829719543|-0.2232969999313354|XArbitraryZVertical|-0.3928954625429432|0.08234766425842067|-0.7668931109784642|0.5007265823168764|-0.5201503038406372|0.5197701454162598|-0.6777040362358093|0|0|0|-1|-1|3
2021-04-09 10:13:23.635 +0100|29116.38108616667|-0.668243408203125|0.2542572021484375|-0.6699066162109375|29116.37609516667|-2.129989166310101|-0.6428384200326691|-0.5522957597054234|0.7388099431991577|-0.5147699117660522|1.616324305534363|-0.2030834555625916|-0.2432870268821716|-0.05540496110916138|XArbitraryZVertical|-0.39122323090301|0.07903336520036583|-0.756808153089896|0.5176288355991242|-0.5103419423103333|0.5246430635452271|-0.6813962459564209|0|0|0|-1|-1|3
2021-04-09 10:13:23.655 +0100|29116.40104616667|-0.631683349609375|0.193603515625|-0.6938323974609375|29116.39605616667|-2.093254724057168|-0.6334209383042705|-0.5629709451828445|0.2559922337532043|-0.4917122721672058|1.532266616821289|-0.1432866454124451|-0.3057507276535034|0.02594870328903198|XArbitraryZVertical|-0.3911306398514929|0.0787869024920671|-0.7470056569715906|0.5317820088105187|-0.5005586743354797|0.5337010025978088|-0.681618869304657|0|0|0|-1|-1|3
2021-04-09 10:13:23.675 +0100|29116.42100716667|-0.638641357421875|0.1620025634765625|-0.82861328125|29116.41601716667|-2.063751506092413|-0.6267939712781782|-0.5787659233887488|-0.001112423837184906|-0.4206183254718781|1.39498245716095|-0.1356243193149567|-0.3807628154754639|-0.09185844659805298|XArbitraryZVertical|-0.3929104625035664|0.08134562259453493|-0.7373611039987092|0.5434177826060055|-0.4910244643688202|0.5469912886619568|-0.678008496761322|0|0|0|-1|-1|3
2021-04-09 10:13:23.695 +0100|29116.44096816667|-0.612640380859375|0.170135498046875|-0.817169189453125|29116.43597716667|-2.038065956539449|-0.6196502733654435|-0.5928340231604343|0.1479430645704269|-0.2827144861221313|1.156328678131104|-0.1513753533363342|-0.3863968849182129|-0.1653020977973938|XArbitraryZVertical|-0.3941463348113169|0.08405372976724093|-0.7290004092842854|0.553301204788612|-0.4816516041755676|0.5587136745452881|-0.6751672625541687|0|0|0|-1|-1|3
2021-04-09 10:13:23.715 +0100|29116.46092816667|-0.547760009765625|0.1155242919921875|-0.7362060546875|29116.45593816667|-2.014274159378388|-0.6108587623860503|-0.6006742634689463|0.2917938530445099|-0.1967292428016663|0.9145309329032898|-0.1092280745506287|-0.4087206125259399|-0.1087336540222168|XArbitraryZVertical|-0.393555498785045|0.0850343575106496|-0.7225658017747502|0.5619448878174573|-0.4731702506542206|0.5651988387107849|-0.6757664680480957|0|0|0|-1|-1|3
2021-04-09 10:13:23.735 +0100|29116.48088916667|-0.5063018798828125|0.079254150390625|-0.6892547607421875|29116.47589916667|-1.994907170195056|-0.6038111218726414|-0.6065018680300944|0.1147808581590652|-0.2091327011585236|0.7367892265319824|-0.05432647466659546|-0.4844566583633423|-0.0291438102722168|XArbitraryZVertical|-0.3930556697956352|0.08559490473899527|-0.7173322012756863|0.5688720395655781|-0.4665178954601288|0.56999671459198|-0.6763615012168884|0|0|0|-1|-1|3
2021-04-09 10:13:23.754 +0100|29116.50085016667|-0.5138397216796875|0.07080078125|-0.71148681640625|29116.49585916667|-1.982056799218816|-0.6010463968527134|-0.6139430119665201|-0.1276342123746872|-0.2471324503421783|0.5486233234405518|-0.04191648960113525|-0.5008849501609802|-0.01024007797241211|XArbitraryZVertical|-0.3941907792438828|0.0868773745862859|-0.712737128080617|0.5736478924529095|-0.462234765291214|0.5760948657989502|-0.6741319298744202|0|0|0|-1|-1|3
2021-04-09 10:13:23.775 +0100|29116.52081016667|-0.5287017822265625|0.0590667724609375|-0.789581298828125|29116.51582016667|-1.976910743836189|-0.6030849165714312|-0.6232880066442307|-0.4133540093898773|-0.2488407641649246|0.3216414153575897|-0.06636783480644226|-0.5262135863304138|-0.07939815521240234|XArbitraryZVertical|-0.3971223589012144|0.08905799252678584|-0.7089951061704574|0.5759241210207959|-0.4605343341827393|0.5837080478668213|-0.6687250137329102|0|0|0|-1|-1|3
2021-04-09 10:13:23.794 +0100|29116.54077116667|-0.5543975830078125|0.0637359619140625|-0.8330230712890625|29116.53578116667|-1.980434575820838|-0.6096126736587227|-0.6341858924267419|-0.6450682878494263|-0.1943051367998123|0.06222572550177574|-0.0829702615737915|-0.5272607207298279|-0.1741297245025635|XArbitraryZVertical|-0.4015686007131434|0.09229187753979586|-0.7065124069647077|0.5753826232729742|-0.4612201154232025|0.5925219058990479|-0.660449743270874|0|0|0|-1|-1|3
2021-04-09 10:13:23.814 +0100|29116.56073216667|-0.548736572265625|0.058258056640625|-0.7860870361328125|29116.55574116667|-1.993345166791142|-0.6205012126229721|-0.6461981447612737|-0.9505984783172607|-0.1234659031033516|-0.2081520557403564|-0.08547165989875793|-0.5287917852401733|-0.164398729801178|XArbitraryZVertical|-0.4072890010086977|0.09664488243194677|-0.7055621431962147|0.5718022117590122|-0.4642118811607361|0.6021554470062256|-0.6495508551597595|0|0|0|-1|-1|3
2021-04-09 10:13:23.834 +0100|29116.58069216667|-0.5447235107421875|0.0674285888671875|-0.73040771484375|29116.57570216667|-2.018799824385168|-0.6393963274734944|-0.6556150810677349|-1.361475467681885|-0.05924851447343826|-0.4493126571178436|-0.07192587852478027|-0.5514658689498901|-0.113441526889801|XArbitraryZVertical|-0.4145960616883547|0.1003364090452403|-0.7069582953243225|0.5641389857092896|-0.4729968905448914|0.6096469163894653|-0.6360854506492615|0|0|0|-1|-1|3
2021-04-09 10:13:23.854 +0100|29116.60065316667|-0.5670166015625|0.1278839111328125|-0.7203369140625|29116.59566316667|-2.054355750000303|-0.6627881657341179|-0.6677119897338418|-1.67856228351593|0.01395603269338608|-0.6526026129722595|-0.0687393844127655|-0.5313162803649902|-0.09373366832733154|XArbitraryZVertical|-0.4233537010739766|0.1061935982520464|-0.7094462282156856|0.5533359865355325|-0.4831718802452087|0.6191909909248352|-0.618989109992981|0|0|0|-1|-1|3
2021-04-09 10:13:23.874 +0100|29116.62061416667|-0.6194610595703125|0.1539154052734375|-0.7676239013671875|29116.61562416667|-2.097220430492421|-0.6881798264991826|-0.6853536654868451|-1.778079867362976|0.1454953700304031|-0.8560954332351685|-0.1015461087226868|-0.4878516793251038|-0.1439065933227539|XArbitraryZVertical|-0.4331531200152977|0.1156842226303929|-0.7119505939594403|0.540483184317618|-0.4917164742946625|0.6329468488693237|-0.5979910492897034|0|0|0|-1|-1|3
2021-04-09 10:13:23.894 +0100|29116.64057416667|-0.6684417724609375|0.2069244384765625|-0.7960662841796875|29116.63558416667|-2.146519440491598|-0.7148541871748318|-0.7007290848068917|-1.853569626808167|0.3484231531620026|-1.047220587730408|-0.1468526124954224|-0.4712224006652832|-0.2168220281600952|XArbitraryZVertical|-0.4422320472307092|0.1257301749864943|-0.7158972552214817|0.5254655099654986|-0.501051664352417|0.6447751522064209|-0.5772454738616943|0|0|0|-1|-1|3
2021-04-09 10:13:23.914 +0100|29116.66053516667|-0.679443359375|0.25457763671875|-0.7516937255859375|29116.65554516667|-2.201641338312652|-0.7415919153140623|-0.7140262180192198|-1.943488121032715|0.5599918961524963|-1.188596606254578|-0.1701202392578125|-0.4172573685646057|-0.2212010622024536|XArbitraryZVertical|-0.4502090789554135|0.1366593701991416|-0.7212401954175198|0.5083786283277378|-0.5104683637619019|0.6548818349838257|-0.5572720170021057|0|0|0|-1|-1|3
2021-04-09 10:13:23.934 +0100|29116.68049616667|-0.6750946044921875|0.2602996826171875|-0.7007293701171875|29116.67550616667|-2.262723526095317|-0.7688140643583646|-0.7267494538917519|-2.160799026489258|0.7380160093307495|-1.274980425834656|-0.1533626317977905|-0.4014135599136353|-0.1895307898521423|XArbitraryZVertical|-0.4573949756387551|0.1490654052126821|-0.727460734639465|0.4892548649383054|-0.5196118354797363|0.6644439101219177|-0.5371387004852295|0|0|0|-1|-1|3
2021-04-09 10:13:23.954 +0100|29116.70045616667|-0.7137451171875|0.3291473388671875|-0.6787872314453125|29116.69546616667|-2.331222239423215|-0.7981475330081413|-0.7408872110557656|-2.411918163299561|0.9383496046066284|-1.339714765548706|-0.1583296656608582|-0.3961197137832642|-0.1653461456298828|XArbitraryZVertical|-0.4643733427553786|0.163792747808823|-0.7339199757849736|0.4678576961822668|-0.5283623337745667|0.6749428510665894|-0.515058696269989|0|0|0|-1|-1|3
2021-04-09 10:13:23.974 +0100|29116.72041716667|-0.74285888671875|0.422515869140625|-0.6377716064453125|29116.71542716667|-2.405447055643154|-0.8276128448471686|-0.7543571774973886|-2.43453049659729|1.168846249580383|-1.435671210289001|-0.1964080333709717|-0.3142919540405273|-0.1601872444152832|XArbitraryZVertical|-0.4701299336420515|0.1801157456215766|-0.7409374534105615|0.4444636940775777|-0.5365639328956604|0.6848203539848328|-0.4930723309516907|0|0|0|-1|-1|3
2021-04-09 10:13:23.994 +0100|29116.74037816667|-0.7624664306640625|0.469207763671875|-0.6303253173828125|29116.73538816667|-2.481059229248999|-0.8543542932314321|-0.7637749813030396|-2.296349048614502|1.365387082099915|-1.519138813018799|-0.20655357837677|-0.2316162586212158|-0.153164267539978|XArbitraryZVertical|-0.4736760802398259|0.1961749757795233|-0.7488598697306268|0.4199469376405838|-0.5446678400039673|0.691652774810791|-0.4742926955223083|0|0|0|-1|-1|3
2021-04-09 10:13:24.014 +0100|29116.76033816667|-0.7674407958984375|0.4816131591796875|-0.6270294189453125|29116.75534816667|-2.556844460714866|-0.8780174227520088|-0.769798335394942|-2.275853157043457|1.529071927070618|-1.550605058670044|-0.2112118005752563|-0.2221904993057251|-0.1727293133735657|XArbitraryZVertical|-0.4751836513130914|0.2118933215270358|-0.7573469953298941|0.3946231162277584|-0.552521824836731|0.6959904432296753|-0.4586034417152405|0|0|0|-1|-1|3
2021-04-09 10:13:24.034 +0100|29116.78029916667|-0.76123046875|0.5305633544921875|-0.6002655029296875|29116.77530916667|-2.633564965407455|-0.8995893676797684|-0.7743862986360316|-2.284647464752197|1.673552513122559|-1.563076138496399|-0.2061211466789246|-0.1897566914558411|-0.1705551147460938|XArbitraryZVertical|-0.4751238349315254|0.2279545585792729|-0.7658603035586136|0.3684458469995998|-0.559779167175293|0.6992775201797485|-0.4445881247520447|0|0|0|-1|-1|3
2021-04-09 10:13:24.054 +0100|29116.80026016667|-0.7611846923828125|0.56439208984375|-0.5562896728515625|29116.79527016667|-2.71101506075405|-0.9192776423679336|-0.7775984715134451|-2.286633729934692|1.786399722099304|-1.582403540611267|-0.1898819804191589|-0.1530173420906067|-0.1483581066131592|XArbitraryZVertical|-0.4736149133895201|0.2441932520105199|-0.7742530469757309|0.341453959451113|-0.5666340589523315|0.7015700936317444|-0.4321171343326569|0|0|0|-1|-1|3
2021-04-09 10:13:24.074 +0100|29116.82022016667|-0.7687530517578125|0.5989532470703125|-0.517730712890625|29116.81523016667|-2.789315191718356|-0.9375604270726102|-0.7796863240537781|-2.307264804840088|1.894003510475159|-1.59630811214447|-0.1945807337760925|-0.1178672313690186|-0.1188856363296509|XArbitraryZVertical|-0.4708439849766118|0.2605701784481247|-0.7823283515517617|0.3136426515096458|-0.5732573270797729|0.7030563950538635|-0.4208182394504547|0|0|0|-1|-1|3
2021-04-09 10:13:24.094 +0100|29116.84018116667|-0.7668914794921875|0.642608642578125|-0.4692840576171875|29116.83519116667|-2.867722491257565|-0.9538465343104997|-0.7805196915893232|-2.248558044433594|1.997645854949951|-1.595484018325806|-0.1851382255554199|-0.08704173564910889|-0.076507568359375|XArbitraryZVertical|-0.4666946077643745|0.2768615544449271|-0.7900822208465633|0.2851564941674022|-0.5795564651489258|0.7036488056182861|-0.4110876321792603|0|0|0|-1|-1|3
2021-04-09 10:13:24.114 +0100|29116.86014216667|-0.7913665771484375|0.6755828857421875|-0.4548797607421875|29116.85515216667|-2.943572162219348|-0.9663801243987056|-0.7796915541819426|-2.113536834716797|2.094906568527222|-1.571251392364502|-0.1884176135063171|-0.0414091944694519|-0.05847874283790588|XArbitraryZVertical|-0.4609073997215075|0.2924091259269091|-0.7976097108508708|0.2566712867085943|-0.5851423740386963|0.7030600905418396|-0.404122531414032|0|0|0|-1|-1|3
2021-04-09 10:13:24.134 +0100|29116.88010316667|-0.796966552734375|0.675201416015625|-0.4247894287109375|29116.87511216667|-3.015409882764636|-0.9739526841104611|-0.7767678325278418|-1.961036086082458|2.19249963760376|-1.559253931045532|-0.2073275446891785|-0.02422070503234863|-0.0411379337310791|XArbitraryZVertical|-0.4533426674728573|0.3066979112474821|-0.8051317710393959|0.2284292964140635|-0.58988356590271|0.7009779810905457|-0.4008336365222931|0|0|0|-1|-1|3
2021-04-09 10:13:24.154 +0100|29116.90006316667|-0.817962646484375|0.7163543701171875|-0.3748779296875|29116.89507316667|-3.083726768993116|-0.9772623534944728|-0.7723742450307353|-1.826375126838684|2.253140926361084|-1.543981790542603|-0.2149619460105896|-0.006096482276916504|0.00521126389503479|XArbitraryZVertical|-0.4442851748488374|0.3198621942726362|-0.8124896153849863|0.2003987061405596|-0.5937542319297791|0.697837769985199|-0.4005977213382721|0|0|0|-1|-1|3
2021-04-09 10:13:24.174 +0100|29116.92002416667|-0.8514556884765625|0.765106201171875|-0.3691253662109375|29116.91503416667|3.135109626147084|-0.9765448642220547|-0.7669798848064714|-1.721095085144043|2.309348344802856|-1.489789247512817|-0.2382315993309021|0.04912328720092773|0.04257476329803467|XArbitraryZVertical|-0.4339540872154561|0.3318450483136081|-0.8195617045805907|0.1728626504066748|-0.5965770483016968|0.693963885307312|-0.4031254351139069|0|0|0|-1|-1|3
2021-04-09 10:13:24.194 +0100|29116.93998516667|-0.8300323486328125|0.7774810791015625|-0.31622314453125|29116.93499416667|3.073527215302976|-0.9722886073755572|-0.7621937861730377|-1.682009339332581|2.384844779968262|-1.400682926177979|-0.256777286529541|0.07613688707351685|0.05094414949417114|XArbitraryZVertical|-0.4222601614221494|0.3434131102032196|-0.8261480071161688|0.1457511497532752|-0.5975930690765381|0.6905099153518677|-0.4075275957584381|0|0|0|-1|-1|3
2021-04-09 10:13:24.214 +0100|29116.95994516667|-0.773101806640625|0.843292236328125|-0.2219390869140625|29116.95495516667|3.015873765915998|-0.9642441972709703|-0.758550063846562|-1.52710497379303|2.393938302993774|-1.268968462944031|-0.2017982006072998|0.1126668453216553|0.1392314434051514|XArbitraryZVertical|-0.4092518243250484|0.3544521763624608|-0.8322055967360624|0.119627549186852|-0.5963588356971741|0.6878697276115417|-0.4137532114982605|0|0|0|-1|-1|3
2021-04-09 10:13:24.234 +0100|29116.97990616667|-0.7719268798828125|0.853668212890625|-0.2422027587890625|29116.97491616667|2.965165888792158|-0.951406342540721|-0.7554417601519658|-1.384020209312439|2.383452415466309|-1.107208967208862|-0.1760323643684387|0.1999635100364685|0.2002010345458984|XArbitraryZVertical|-0.3951417883328746|0.3640823584780767|-0.8379722176389801|0.09544487912917501|-0.5927360653877258|0.685610294342041|-0.4226140081882477|0|0|0|-1|-1|3
2021-04-09 10:13:24.254 +0100|29116.99986716667|-0.7898712158203125|0.890350341796875|-0.185516357421875|29116.99487616667|2.916255058006467|-0.9373471415057113|-0.7561450704587375|-1.565721392631531|2.394629001617432|-0.9310112595558167|-0.1940788626670837|0.1684000492095947|0.19377201795578|XArbitraryZVertical|-0.3801149880768968|0.3744365165322256|-0.8426505539045753|0.07245684470040582|-0.586347222328186|0.6861221194267273|-0.4306197762489319|0|0|0|-1|-1|3
2021-04-09 10:13:24.273 +0100|29117.01982716667|-0.7180633544921875|1.055877685546875|0.0499267578125|29117.01483716667|2.86843461056388|-0.9230321096454037|-0.7606322286241135|-1.355718970298767|2.320559501647949|-0.7936125993728638|-0.1771749258041382|0.2596860527992249|0.3715999722480774|XArbitraryZVertical|-0.364382455053903|0.3855801222243146|-0.8461658036840657|0.05056519728678937|-0.5776620507240295|0.6893795728683472|-0.4371067881584167|0|0|0|-1|-1|3
2021-04-09 10:13:24.294 +0100|29117.03978816667|-0.5987701416015625|0.9842529296875|0.18408203125|29117.03479816667|2.833260632118153|-0.9021982342742554|-0.7610708581807627|-0.69556725025177|2.182573556900024|-0.7385837435722351|-0.09789836406707764|0.3675075173377991|0.566304624080658|XArbitraryZVertical|-0.3486403935425603|0.3924545438544543|-0.8505440685272749|0.03169093147757939|-0.5681935548782349|0.689697265625|-0.4488586187362671|0|0|0|-1|-1|3
2021-04-09 10:13:24.313 +0100|29117.05974916667|-0.5315093994140625|0.8465423583984375|0.2315826416015625|29117.05475916667|2.810625116694135|-0.8762738826135313|-0.7562728252158832|-0.3819941282272339|1.965975999832153|-0.6569777727127075|0.002629399299621582|0.2143429517745972|0.6873343586921692|XArbitraryZVertical|-0.3338231888599802|0.3946995128490903|-0.855875589494746|0.01585827402965196|-0.5589037537574768|0.6862151026725769|-0.4655487537384033|0|0|0|-1|-1|3
2021-04-09 10:13:24.333 +0100|29117.07970916667|-0.49603271484375|0.9045867919921875|0.297393798828125|29117.07471916667|2.791651067058663|-0.8526687723459943|-0.7526443428861225|-0.4370222687721252|1.683603048324585|-0.5127192139625549|0.04004877805709839|0.1716224551200867|0.7337851524353027|XArbitraryZVertical|-0.3204775551017205|0.3964481551570598|-0.8603011962888054|0.002249091253968619|-0.5496311783790588|0.6835712194442749|-0.4802460074424744|0|0|0|-1|-1|3
2021-04-09 10:13:24.353 +0100|29117.09967016667|-0.4684906005859375|1.04168701171875|0.4939422607421875|29117.09468016667|2.776536631971942|-0.8323620860138901|-0.750487957860696|-0.2108767181634903|1.37776780128479|-0.387767881155014|0.05446606874465942|0.3443710207939148|0.8796876668930054|XArbitraryZVertical|-0.3090451969879133|0.3979219530613087|-0.8637547804367958|-0.008766138826080894|-0.5408549904823303|0.681995689868927|-0.4922983646392822|0|0|0|-1|-1|3
2021-04-09 10:13:24.373 +0100|29117.11963116667|-0.406646728515625|0.9480133056640625|0.7428131103515625|29117.11464116667|2.765394886786969|-0.816757933654491|-0.7489405232145788|-0.3410106599330902|0.9260112643241882|-0.2632482349872589|0.1098347902297974|0.2995899319648743|1.123713254928589|XArbitraryZVertical|-0.3003097920834915|0.3988912048713509|-0.8662622073339108|-0.017025054251426|-0.533876359462738|0.6808631420135498|-0.5013996958732605|0|0|0|-1|-1|3
2021-04-09 10:13:24.394 +0100|29117.13959116667|-0.342864990234375|0.9796600341796875|0.86688232421875|29117.13460116667|2.750774972171916|-0.8138757032626983|-0.7543577710343516|-0.778281033039093|0.3566604852676392|-0.08542773127555847|0.1387031078338623|0.2213220000267029|1.29665994644165|XArbitraryZVertical|-0.2953021588505729|0.4032350814908571|-0.8658403180992572|-0.02277933257024409|-0.5297398567199707|0.684820830821991|-0.500396192073822|0|0|0|-1|-1|3
2021-04-09 10:13:24.413 +0100|29117.15955216667|-0.3331298828125|1.158950805664062|0.9200897216796875|29117.15456216667|2.734548902970992|-0.8237585925369268|-0.7647005507592308|-0.7201119065284729|-0.2257022559642792|0.01979748532176018|0.1912077665328979|0.4148258566856384|1.369004368782043|XArbitraryZVertical|-0.2946537290364044|0.4099152276505626|-0.8628414860533731|-0.02556013510425948|-0.5294339060783386|0.6923209428787231|-0.4902973771095276|0|0|0|-1|-1|3
2021-04-09 10:13:24.433 +0100|29117.17951316667|-0.35882568359375|1.243865966796875|0.9295501708984375|29117.17452316667|2.724938767015968|-0.8405610143621691|-0.773142084433634|-0.3979014754295349|-0.7817384600639343|0.1612834185361862|0.1972865462303162|0.5398170351982117|1.432601451873779|XArbitraryZVertical|-0.2985472923143624|0.4149226895651459|-0.8591356074901687|-0.02438839641822814|-0.5332238078117371|0.6983875632286072|-0.4774173498153687|0|0|0|-1|-1|3
2021-04-09 10:13:24.453 +0100|29117.19947416667|-0.332916259765625|1.281845092773438|0.7094573974609375|29117.19448316667|2.72180290834067|-0.8638659457329509|-0.7825310317351507|-0.494390606880188|-1.327451109886169|0.4247349500656128|0.1920267939567566|0.5291913151741028|1.294413805007935|XArbitraryZVertical|-0.3063356533012818|0.4193650235406457|-0.8543647474680883|-0.01877821824711199|-0.539194643497467|0.7050765156745911|-0.4605828821659088|0|0|0|-1|-1|3
2021-04-09 10:13:24.473 +0100|29117.21943416667|-0.256591796875|1.57470703125|0.8548736572265625|29117.21444416667|2.717953199082833|-0.8978628410152067|-0.7989516996748286|-0.7514603734016418|-1.795175552368164|0.6684105396270752|0.2614747881889343|0.6709628105163574|1.181783199310303|XArbitraryZVertical|-0.3172284303056025|0.4266254056821288|-0.846916437052584|-0.009467622537854086|-0.5454102158546448|0.7166253328323364|-0.4347137808799744|0|0|0|-1|-1|3
2021-04-09 10:13:24.493 +0100|29117.23939516667|-0.3978729248046875|1.951385498046875|1.075515747070312|29117.23440516667|2.713926550820081|-0.9410501452773431|-0.8201434498387929|-0.7781458497047424|-2.217472076416016|0.8682804107666016|0.2632765769958496|1.048708915710449|1.466513395309448|XArbitraryZVertical|-0.3308903830156943|0.4354868942633263|-0.8371695897256167|0.003159532024442221|-0.5512708425521851|0.7312436699867249|-0.4017254412174225|0|0|0|-1|-1|3
2021-04-09 10:13:24.513 +0100|29117.25935616667|-0.4876251220703125|1.829010009765625|0.795989990234375|29117.25436516667|2.707766196713389|-0.9953591825538803|-0.8481975210097386|-1.147021055221558|-2.78338885307312|1.232516646385193|0.1088778376579285|1.135209918022156|1.371785998344421|XArbitraryZVertical|-0.3470819165469042|0.4467481964616958|-0.8243608416882079|0.01948551687789915|-0.5548312664031982|0.7500895857810974|-0.3599003851413727|0|0|0|-1|-1|3
2021-04-09 10:13:24.533 +0100|29117.27931616667|-0.4464569091796875|1.515640258789062|0.438385009765625|29117.27432616667|2.700491290823281|-1.062179733872539|-0.8827108346864293|-0.875754177570343|-3.305485010147095|1.439629912376404|0.05398643016815186|0.8460819125175476|0.8729743957519531|XArbitraryZVertical|-0.3662696604282722|0.4595859543644147|-0.8080736553287556|0.04055024933723704|-0.5546730756759644|0.7724632620811462|-0.3092545866966248|0|0|0|-1|-1|3
2021-04-09 10:13:24.553 +0100|29117.29927716667|-0.7193603515625|1.6737060546875|0.42059326171875|29117.29428716667|2.712526518173362|-1.123012103327401|-0.9125750224660895|0.3320580720901489|-3.725605964660645|1.511251926422119|0.01214057207107544|0.7318979501724243|0.7000470161437988|XArbitraryZVertical|-0.3876297268088014|0.4661728990889971|-0.7923852612083166|0.06746704019041022|-0.5514015555381775|0.7910815477371216|-0.2648520469665527|0|0|0|-1|-1|3
2021-04-09 10:13:24.573 +0100|29117.31923816667|-1.193618774414062|1.612091064453125|0.2003021240234375|29117.31424716667|2.766483977705452|-1.15811035348096|-0.93327937680641|1.793337464332581|-4.118680000305176|1.750948190689087|-0.4059543013572693|0.8726625442504883|0.5461974143981934|XArbitraryZVertical|-0.4099455099257707|0.4610698893927037|-0.7802903290730366|0.1025006938227841|-0.5452330708503723|0.8035761713981628|-0.2387184649705887|0|0|0|-1|-1|3
2021-04-09 10:13:24.593 +0100|29117.33919816667|-1.521728515625|1.487808227539062|-0.2094573974609375|29117.33420816667|2.866104711945596|-1.163858124722344|-0.9519516665824805|2.835708856582642|-4.512341976165771|2.311935663223267|-0.8472827672958374|0.6950482130050659|0.2411664724349976|XArbitraryZVertical|-0.4313547912081648|0.4462426036077499|-0.7700932501668435|0.147503140116766|-0.5327224731445312|0.8145492076873779|-0.2296011596918106|0|0|0|-1|-1|3
2021-04-09 10:13:24.613 +0100|29117.35915916667|-1.757339477539062|1.373321533203125|-0.466705322265625|29117.35416916667|3.014075130754149|-1.132890791489968|-0.9707860758971988|4.089848518371582|-4.412299633026123|2.873569011688232|-1.11936616897583|0.5939354300498962|-0.127980574965477|XArbitraryZVertical|-0.4486016648449153|0.4231290970336547|-0.7607823577653327|0.202308124152943|-0.5113715529441833|0.8253298401832581|-0.2394366264343262|0|0|0|-1|-1|3
2021-04-09 10:13:24.633 +0100|29117.379119875|-1.976776123046875|1.237106323242188|-0.9843292236328125|29117.374129875|-3.080311486414064|-1.056283714078973|-0.9874341401780063|4.65614128112793|-3.623285531997681|3.434553384780884|-1.490742802619934|0.5737245678901672|-0.2349570691585541|XArbitraryZVertical|-0.4560805932859697|0.3955439976351335|-0.7529210704393682|0.2620025387407097|-0.479518324136734|0.8346153497695923|-0.2710708677768707|0|0|0|-1|-1|3
2021-04-09 10:13:24.653 +0100|29117.399079875|-1.932022094726562|1.21026611328125|-0.966766357421875|29117.394089875|-2.858937727656944|-0.9344980015008481|-1.000839905976171|4.560003280639648|-2.79280424118042|4.213175773620605|-1.571420311927795|0.5927368402481079|-0.4678588807582855|XArbitraryZVertical|-0.4515986670837378|0.3684274717570316|-0.745084227313048|0.324298449270446|-0.4339971840381622|0.8419244885444641|-0.3206396698951721|0|0|0|-1|-1|3
2021-04-09 10:13:24.673 +0100|29117.419040875|-1.765823364257812|1.008193969726562|-1.053680419921875|29117.414050875|-2.633160495979408|-0.7908934711972948|-1.016263368206398|3.664980411529541|-1.966530799865723|4.7018723487854|-1.476359009742737|0.1679194569587708|-0.6748631000518799|XArbitraryZVertical|-0.4386500070850368|0.3499281559460179|-0.7331832899090606|0.3841599147953838|-0.374364972114563|0.850146472454071|-0.3702729046344757|0|0|0|-1|-1|3
2021-04-09 10:13:24.693 +0100|29117.439001875|-1.488296508789062|0.69036865234375|-0.9477996826171875|29117.434011875|-2.41368987052901|-0.6363520813237983|-1.029592517508574|2.785990715026855|-1.341633677482605|4.746581554412842|-1.318396210670471|-0.006824076175689697|-0.5862617492675781|XArbitraryZVertical|-0.4209208618307539|0.3400863023377509|-0.7177260366375176|0.4382196085118084|-0.3061467409133911|0.8570891618728638|-0.4143338799476624|0|0|0|-1|-1|3
2021-04-09 10:13:24.713 +0100|29117.458962875|-1.247406005859375|0.398468017578125|-0.88909912109375|29117.453971875|-2.212359305353745|-0.4851147319543579|-1.040257837195854|1.795815229415894|-0.8955541849136353|4.51872730255127|-1.125102400779724|-0.3386245965957642|-0.4671481251716614|XArbitraryZVertical|-0.4025017289092672|0.3379111731938083|-0.6995708198547448|0.4841583278471989|-0.2359519153833389|0.8625347018241882|-0.4476167857646942|0|0|0|-1|-1|3
2021-04-09 10:13:24.733 +0100|29117.478922875|-1.059906005859375|0.240966796875|-0.7941741943359375|29117.473932875|-2.031339243032819|-0.343468107027375|-1.049243488298678|1.086754679679871|-0.6315550804138184|4.157553672790527|-0.9798797965049744|-0.5278134942054749|-0.3557177782058716|XArbitraryZVertical|-0.3858066184456829|0.341452367933026|-0.6796087244335903|0.522202734966345|-0.1677803695201874|0.8670465350151062|-0.4691270589828491|0|0|0|-1|-1|3
2021-04-09 10:13:24.753 +0100|29117.498883875|-0.89654541015625|0.0995025634765625|-0.7055511474609375|29117.493893875|-1.869563716138083|-0.2141990509417495|-1.05585557122547|0.5229974389076233|-0.5145748853683472|3.722188472747803|-0.8736487627029419|-0.7012701034545898|-0.2971378564834595|XArbitraryZVertical|-0.3717925218848436|0.3480746860897513|-0.6589762686551601|0.5535022368462181|-0.1046846657991409|0.8703219294548035|-0.4812286794185638|0|0|0|-1|-1|3
2021-04-09 10:13:24.772 +0100|29117.518844875|-0.7377166748046875|0.0791015625|-0.5701904296875|29117.513853875|-1.726960036250282|-0.1002062603889884|-1.059784411118108|0.2224758267402649|-0.5219681859016418|3.25177001953125|-0.7545275688171387|-0.7657287120819092|-0.1397362351417542|XArbitraryZVertical|-0.3608683753275923|0.3556269276185267|-0.6385967051433938|0.5792218531659287|-0.04892493411898613|0.8722500801086426|-0.4866070151329041|0|0|0|-1|-1|3
2021-04-09 10:13:24.793 +0100|29117.538804875|-0.628082275390625|0.080718994140625|-0.515625|29117.533814875|-1.603825868904295|-0.003262437176690833|-1.060152500298903|0.08137597888708115|-0.5298115015029907|2.773058652877808|-0.6754083633422852|-0.8046659231185913|-0.06106847524642944|XArbitraryZVertical|-0.3525708389096244|0.3623885826538206|-0.6194866874100479|0.6005037475618831|-0.001594478264451027|0.8724300265312195|-0.488736629486084|0|0|0|-1|-1|3
2021-04-09 10:13:24.812 +0100|29117.558765875|-0.541351318359375|0.066131591796875|-0.501983642578125|29117.553775875|-1.501256780267838|0.07544699225515335|-1.055960973124389|0.1442145258188248|-0.5386991500854492|2.278702974319458|-0.6253567934036255|-0.7682316303253174|-0.001105368137359619|XArbitraryZVertical|-0.3459175166435613|0.3672132335683158|-0.6026893973573969|0.6182727660413142|0.03711424395442009|0.8703737854957581|-0.4909910261631012|0|0|0|-1|-1|3
2021-04-09 10:13:24.832 +0100|29117.578726875|-0.491058349609375|0.0348052978515625|-0.5311126708984375|29117.573736875|-1.419864363295052|0.1350396420043986|-1.048702358068466|0.1419201195240021|-0.5836297869682312|1.820204377174377|-0.5768143534660339|-0.8262953162193298|-0.01429742574691772|XArbitraryZVertical|-0.3407652039611853|0.3698660703134373|-0.588546658373526|0.6330017588817526|0.06713930517435074|0.8667768239974976|-0.4941563308238983|0|0|0|-1|-1|3
2021-04-09 10:13:24.852 +0100|29117.598686875|-0.43536376953125|0.0705108642578125|-0.4984588623046875|29117.593696875|-1.358377150202123|0.1759140635780802|-1.041385949896414|0.09141769260168076|-0.6543304920196533|1.348470211029053|-0.5513970851898193|-0.8177254199981689|-0.02452874183654785|XArbitraryZVertical|-0.3377180284910205|0.3705821918314325|-0.5768106304359275|0.6449070859547487|0.08838346600532532|0.8631049990653992|-0.497230738401413|0|0|0|-1|-1|3
2021-04-09 10:13:24.872 +0100|29117.618647875|-0.397705078125|0.1112213134765625|-0.4300079345703125|29117.613657875|-1.314950116413739|0.1990236252158124|-1.037276908845667|-0.09761449694633484|-0.7858791351318359|0.8983017206192017|-0.5112259387969971|-0.7898250818252563|0.0450972318649292|XArbitraryZVertical|-0.337693432156867|0.3697286260420172|-0.5671094413161969|0.6539501755421961|0.1005499288439751|0.8610225319862366|-0.4985277652740479|0|0|0|-1|-1|3
2021-04-09 10:13:24.893 +0100|29117.638608875|-0.4055328369140625|0.139404296875|-0.4095001220703125|29117.633618875|-1.287316288121884|0.2058005314053641|-1.03872971293363|-0.354785293340683|-0.9059186577796936|0.4505434632301331|-0.5039399266242981|-0.7423757910728455|0.08359995484352112|XArbitraryZVertical|-0.3414008355894063|0.3676146181793459|-0.5590150102707112|0.6601570067600402|0.1036703512072563|0.8617604970932007|-0.4966099262237549|0|0|0|-1|-1|3
2021-04-09 10:13:24.912 +0100|29117.658568875|-0.4354705810546875|0.1399078369140625|-0.4184417724609375|29117.653578875|-1.274545761322958|0.1979680909255484|-1.047588981151238|-0.5844640731811523|-0.9766585826873779|-0.00267426623031497|-0.5194767117500305|-0.7550913095474243|0.08543670177459717|XArbitraryZVertical|-0.3491126748700765|0.3649238880670498|-0.552436209518041|0.663147955901774|0.09827209264039993|0.8662210702896118|-0.4899017810821533|0|0|0|-1|-1|3
2021-04-09 10:13:24.932 +0100|29117.678529875|-0.506011962890625|0.2196807861328125|-0.5172576904296875|29117.673539875|-1.279010262430021|0.1746162736649633|-1.060104704113255|-0.6017664670944214|-0.9639921188354492|-0.4484610557556152|-0.5525074005126953|-0.68473881483078|0.01722121238708496|XArbitraryZVertical|-0.3592281639470647|0.3609446672965545|-0.548318300334982|0.6633409895682723|0.08491603285074234|0.8724066615104675|-0.4813481569290161|0|0|0|-1|-1|3
2021-04-09 10:13:24.952 +0100|29117.698490875|-0.5057830810546875|0.3216705322265625|-0.56036376953125|29117.693500875|-1.301207985751746|0.1358931985480168|-1.074026550852894|-0.6667487025260925|-0.9738935828208923|-0.8201102614402771|-0.5911325216293335|-0.6201697587966919|-0.0904276967048645|XArbitraryZVertical|-0.3707946393376699|0.3555474531505908|-0.5468503413334742|0.6610992829531237|0.06456597894430161|0.8791266083717346|-0.4721947014331818|0|0|0|-1|-1|3
2021-04-09 10:13:24.972 +0100|29117.718451875|-0.38812255859375|0.2066497802734375|-0.2850799560546875|29117.713460875|-1.338501203606552|0.08074257382755608|-1.094864443153957|-1.246424436569214|-1.245632886886597|-1.129245758056641|-0.4738288521766663|-0.6344716548919678|0.02941292524337769|XArbitraryZVertical|-0.3865055346818345|0.3496801173776752|-0.5457799399473985|0.656095860082102|0.03695341944694519|0.888866126537323|-0.4566745758056641|0|0|0|-1|-1|3
2021-04-09 10:13:24.992 +0100|29117.738411875|-0.39593505859375|0.3007659912109375|-0.1976776123046875|29117.733421875|-1.392227146312941|0.005321374975634816|-1.124305486269592|-1.541590213775635|-1.422513246536255|-1.412847995758057|-0.3709664046764374|-0.6320704817771912|0.2234840393066406|XArbitraryZVertical|-0.407554049343569|0.3435128089298701|-0.5436458883932664|0.6483425535690833|0.00229777698405087|0.9019679427146912|-0.4317972958087921|0|0|0|-1|-1|3
2021-04-09 10:13:25.012 +0100|29117.758372875|-0.4669189453125|0.4729156494140625|-0.2528228759765625|29117.753382875|-1.469938270978185|-0.09380089655340867|-1.151166415879216|-1.09231424331665|-1.413841247558594|-1.745595812797546|-0.3849208652973175|-0.5682233572006226|0.2000041007995605|XArbitraryZVertical|-0.4297363253271612|0.3354262981368691|-0.5429692054015838|0.6387492189684353|-0.03816061094403267|0.9132397770881653|-0.4056317806243896|0|0|0|-1|-1|3
2021-04-09 10:13:25.032 +0100|29117.778333875|-0.5269622802734375|0.6264801025390625|-0.407135009765625|29117.773342875|-1.567589316336332|-0.2100798250280335|-1.157418494258431|-0.2055598795413971|-1.301308274269104|-2.082854986190796|-0.4232951104640961|-0.3088967204093933|0.05827835202217102|XArbitraryZVertical|-0.4471987000630969|0.3218333598985182|-0.5471464041970274|0.6301328989171485|-0.0837707445025444|0.9157691597938538|-0.392873227596283|0|0|0|-1|-1|3
2021-04-09 10:13:25.052 +0100|29117.798293875|-0.5045318603515625|0.40948486328125|-0.3849334716796875|29117.793303875|-1.674272110821588|-0.3341037056623954|-1.14721852961689|-0.1207950189709663|-1.38694441318512|-2.339465379714966|-0.385159969329834|-0.3770480155944824|-0.01397055387496948|XArbitraryZVertical|-0.4620394291821019|0.3039260476498781|-0.5547496735781646|0.6216119528371843|-0.1347843110561371|0.9116241931915283|-0.38829705119133|0|0|0|-1|-1|3
2021-04-09 10:13:25.072 +0100|29117.818254875|-0.5611724853515625|0.552490234375|-0.4286956787109375|29117.813264875|-1.784750668489109|-0.4622191433389654|-1.133581172953554|-0.4539710879325867|-1.356022238731384|-2.43149209022522|-0.3363913297653198|-0.4344990253448486|-0.04818296432495117|XArbitraryZVertical|-0.4784472756796609|0.2856478456855235|-0.5621739290907706|0.6111089094505204|-0.1888172775506973|0.9059343338012695|-0.3789870142936707|0|0|0|-1|-1|3
2021-04-09 10:13:25.092 +0100|29117.838215875|-0.6053619384765625|0.87060546875|-0.3401641845703125|29117.833225875|-1.894477388842015|-0.5873903749895478|-1.116610639888805|-0.2916359007358551|-1.241409063339233|-2.503803014755249|-0.3298279941082001|-0.2526379823684692|0.001837491989135742|XArbitraryZVertical|-0.4954148261617055|0.2682658490478891|-0.5695044071240808|0.5985503383113258|-0.2431406229734421|0.8986185789108276|-0.3651951551437378|0|0|0|-1|-1|3
2021-04-09 10:13:25.112 +0100|29117.858175875|-0.6595306396484375|0.9499969482421875|-0.470977783203125|29117.853185875|-1.985153609434725|-0.6909463413216026|-1.087205389567863|0.06783082336187363|-1.047070980072021|-2.544568538665771|-0.3590157628059387|0.1161945462226868|-0.01405617594718933|XArbitraryZVertical|-0.5086894774215345|0.2491491441465895|-0.5786468491396262|0.586794380007767|-0.2963044941425323|0.8853309750556946|-0.3583194315433502|0|0|0|-1|-1|3
2021-04-09 10:13:25.132 +0100|29117.878136875|-0.6656646728515625|0.8221893310546875|-0.6866912841796875|29117.873146875|-2.068986839834491|-0.7844352895066461|-1.05709466646489|-0.6789059042930603|-0.9144781231880188|-2.415335416793823|-0.2951942980289459|-0.01798087358474731|-0.2142018973827362|XArbitraryZVertical|-0.5218377426884737|0.2319061442458265|-0.5874443910753541|0.5734230104383318|-0.3471406698226929|0.8709314465522766|-0.3478098213672638|0|0|0|-1|-1|3
2021-04-09 10:13:25.152 +0100|29117.898097875|-0.741973876953125|0.8475341796875|-0.8074493408203125|29117.893107875|-2.172532139591769|-0.8893508241883393|-1.042308875031376|-2.260608673095703|-0.5856279730796814|-2.125785827636719|-0.3156764805316925|-0.04939264059066772|-0.4677942991256714|XArbitraryZVertical|-0.5394735213715454|0.223958927516824|-0.5930291823853413|0.5541906542091009|-0.3916151821613312|0.8635707497596741|-0.3176214396953583|0|0|0|-1|-1|3
2021-04-09 10:13:25.172 +0100|29117.918058875|-0.8109588623046875|1.061355590820312|-0.680999755859375|29117.913067875|-2.317146680573276|-1.021533322639355|-1.04559490517557|-3.697457790374756|-0.1196592897176743|-1.804538249969482|-0.3475399315357208|0.0569261908531189|-0.490565687417984|XArbitraryZVertical|-0.5625829310191224|0.2293983367708661|-0.5947372803101422|0.5264641446058421|-0.4276380836963654|0.8652229905128479|-0.2617537081241608|0|0|0|-1|-1|3
2021-04-09 10:13:25.192 +0100|29117.938018875|-0.8609771728515625|1.292205810546875|-0.6303253173828125|29117.933028875|-2.487060523297236|-1.16483247761284|-1.051870580148708|-3.957126140594482|0.5719338059425354|-1.5603187084198|-0.3781792521476746|0.3925113677978516|-0.427606999874115|XArbitraryZVertical|-0.5852317134465983|0.2440857311661674|-0.5951720272333627|0.4936561381067455|-0.4556382596492767|0.868352472782135|-0.1958519965410233|0|0|0|-1|-1|3
2021-04-09 10:13:25.211 +0100|29117.957979875|-0.800506591796875|1.209320068359375|-0.5507965087890625|29117.952989875|-2.651402748364134|-1.28825356174093|-1.049536629399086|-3.638653755187988|1.357709169387817|-1.408569097518921|-0.3661330044269562|0.3769628405570984|-0.4548854827880859|XArbitraryZVertical|-0.6013758524113657|0.2625452408338096|-0.5983426480180249|0.4597861231175958|-0.4782283306121826|0.8671925663948059|-0.1388341635465622|0|0|0|-1|-1|3
2021-04-09 10:13:25.232 +0100|29117.977940875|-0.7058563232421875|1.130935668945312|-0.3584442138671875|29117.972949875|-2.798911941916651|-1.382505349747551|-1.039928740209239|-3.369228601455688|1.92757773399353|-1.239256739616394|-0.2495391964912415|0.2951021194458008|-0.4020756483078003|XArbitraryZVertical|-0.6104153309881125|0.2828605723529446|-0.604827163293111|0.4261071194711438|-0.4973337352275848|0.8623681664466858|-0.0947660431265831|0|0|0|-1|-1|3
2021-04-09 10:13:25.252 +0100|29117.997900875|-0.664703369140625|1.248672485351562|-0.2572174072265625|29117.992910875|-2.9284500010071|-1.450873898209899|-1.026694214168145|-2.997926235198975|2.364383220672607|-1.074596166610718|-0.1814724802970886|0.3422983884811401|-0.2334355115890503|XArbitraryZVertical|-0.6137517309854764|0.3038819104936948|-0.6134142740208084|0.3933035131898601|-0.5139325261116028|0.8555924296379089|-0.06192919611930847|0|0|0|-1|-1|3
2021-04-09 10:13:25.271 +0100|29118.017861875|-0.648193359375|1.283004760742188|-0.328033447265625|29118.012871875|-3.041733109388565|-1.496435587915657|-1.012257313720495|-2.765647411346436|2.738204717636108|-0.9275999665260315|-0.1162164211273193|0.425895094871521|-0.2603424787521362|XArbitraryZVertical|-0.6120302643047907|0.3251667976579607|-0.6237571401689416|0.361403728567611|-0.528483510017395|0.8480302691459656|-0.03937101736664772|0|0|0|-1|-1|3
2021-04-09 10:13:25.291 +0100|29118.037822875|-0.6528167724609375|1.220046997070312|-0.303314208984375|29118.032832875|-3.141525510200107|-1.522033525607438|-0.998425802758436|-2.511587619781494|3.127482652664185|-0.7876682281494141|-0.1251863241195679|0.4134542346000671|-0.2900211811065674|XArbitraryZVertical|-0.6055035936839601|0.3466482632615285|-0.6357505042732489|0.3301844844188704|-0.5409826636314392|0.8406193852424622|-0.02640075981616974|0|0|0|-1|-1|3
2021-04-09 10:13:25.311 +0100|29118.057782875|-0.6243743896484375|1.057754516601562|-0.2144927978515625|29118.052792875|3.051840489681827|-1.53198742990121|-0.9860302664487661|-2.359943628311157|3.387848138809204|-0.6658744812011719|-0.09045606851577759|0.298650324344635|-0.2405155897140503|XArbitraryZVertical|-0.594777239229246|0.3681458726639094|-0.648946325041568|0.2992947599819604|-0.551588773727417|0.8338412642478943|-0.02141730487346649|0|0|0|-1|-1|3
2021-04-09 10:13:25.331 +0100|29118.077743875|-0.5277252197265625|1.053085327148438|-0.148468017578125|29118.072753875|2.971038511158881|-1.52969506379209|-0.9753235304224843|-2.048386812210083|3.563465118408203|-0.5867974162101746|-0.02856320142745972|0.2255982160568237|-0.1558016538619995|XArbitraryZVertical|-0.5806945334327061|0.3889347576992936|-0.6627028344279968|0.2689771033890631|-0.5604267120361328|0.8278834223747253|-0.02304722554981709|0|0|0|-1|-1|3
2021-04-09 10:13:25.351 +0100|29118.097704875|-0.494598388671875|1.050430297851562|-0.114410400390625|29118.092714875|2.90931914917988|-1.50848681228649|-0.9657857129305613|-1.344610571861267|3.667732954025269|-0.5475412011146545|0.07886654138565063|0.2203197479248047|-0.07981812953948975|XArbitraryZVertical|-0.5631428332812124|0.4064008981056764|-0.6779518557619165|0.2410184048092769|-0.5676672458648682|0.8224960565567017|-0.03541691973805428|0|0|0|-1|-1|3
2021-04-09 10:13:25.371 +0100|29118.117665875|-0.5222320556640625|0.9901275634765625|-0.15869140625|29118.112674875|2.871893641385172|-1.464723058491105|-0.956495858826434|-0.7833435535430908|3.792242765426636|-0.5613349080085754|0.06626540422439575|0.2089307308197021|-0.06846214085817337|XArbitraryZVertical|-0.5422115145448126|0.4189204224820642|-0.6955448261860322|0.2161711590611997|-0.5731477737426758|0.8171768188476562|-0.06102470681071281|0|0|0|-1|-1|3
2021-04-09 10:13:25.391 +0100|29118.137625875|-0.5658416748046875|0.97161865234375|-0.09259033203125|29118.132635875|2.848648081215386|-1.406897570376342|-0.9469964936733474|-0.4452555179595947|3.903623819351196|-0.577551543712616|0.02385079860687256|0.1673541069030762|-0.05695909261703491|XArbitraryZVertical|-0.5187651721862032|0.4280515594347709|-0.7144943685861482|0.1927499213607597|-0.576295793056488|0.8116647601127625|-0.09530911594629288|0|0|0|-1|-1|3
2021-04-09 10:13:25.411 +0100|29118.157586875|-0.497467041015625|0.9682464599609375|0.0110015869140625|29118.152596875|2.832379792316275|-1.342196672793083|-0.9365349777086417|-0.304967999458313|3.870933294296265|-0.6312471032142639|0.04968506097793579|0.1472793221473694|0.1038453727960587|XArbitraryZVertical|-0.4938567395497083|0.4346973595020163|-0.7337198717001762|0.1697024995440607|-0.5771665573120117|0.805509626865387|-0.1342874467372894|0|0|0|-1|-1|3
2021-04-09 10:13:25.431 +0100|29118.177547875|-0.506988525390625|0.9898223876953125|0.0145721435546875|29118.172556875|2.819037920767133|-1.276335064588596|-0.9251612435937108|-0.1818124055862427|3.810283899307251|-0.6826574206352234|0.07699763774871826|0.1997559666633606|0.1904827505350113|XArbitraryZVertical|-0.4686415440185192|0.4393861961436233|-0.7521388570774153|0.1469768672679394|-0.5758078098297119|0.7987177968025208|-0.1746297478675842|0|0|0|-1|-1|3
2021-04-09 10:13:25.451 +0100|29118.197507875|-0.5153656005859375|0.978179931640625|0.0880126953125|29118.192517875|2.806466129643999|-1.211390441195894|-0.9132521513331731|-0.1630378663539886|3.683799266815186|-0.6847860813140869|0.07119357585906982|0.1702655553817749|0.2714027166366577|XArbitraryZVertical|-0.4433903496891939|0.4426333763266569|-0.7694104483778924|0.1244524899204851|-0.5721246600151062|0.7914955615997314|-0.2149613797664642|0|0|0|-1|-1|3
2021-04-09 10:13:25.471 +0100|29118.217468875|-0.557220458984375|1.007720947265625|0.121612548828125|29118.212478875|2.795144566674771|-1.148427295226945|-0.9016769396409333|-0.01040722243487835|3.513206243515015|-0.6601063013076782|0.03471726179122925|0.2183474898338318|0.3674008846282959|XArbitraryZVertical|-0.418529244548126|0.444630967760364|-0.7852093688822631|0.1028738231431002|-0.5657843947410583|0.7843682169914246|-0.2542731463909149|0|0|0|-1|-1|3
