loggingTime(txt)|accelerometerTimestamp_sinceReboot(s)|accelerometerAccelerationX(G)|accelerometerAccelerationY(G)|accelerometerAccelerationZ(G)|motionTimestamp_sinceReboot(s)|motionYaw(rad)|motionRoll(rad)|motionPitch(rad)|motionRotationRateX(rad/s)|motionRotationRateY(rad/s)|motionRotationRateZ(rad/s)|motionUserAccelerationX(G)|motionUserAccelerationY(G)|motionUserAccelerationZ(G)|motionAttitudeReferenceFrame(txt)|motionQuaternionX(R)|motionQuaternionY(R)|motionQuaternionZ(R)|motionQuaternionW(R)|motionGravityX(G)|motionGravityY(G)|motionGravityZ(G)|motionMagneticFieldX(µT)|motionMagneticFieldY(µT)|motionMagneticFieldZ(µT)|motionHeading(°)|motionMagneticFieldCalibrationAccuracy(Z)|label
2021-04-22 21:46:03.472 +0100|140187.7000411667|0.238037109375|-0.0036163330078125|-0.9938201904296875|140187.6800801667|-1.907785256675274|0.2139661842729194|0.01090486870153391|0.1000800877809525|-0.1240439563989639|0.03241249546408653|0.008850798010826111|0.04268786311149597|-0.002918541431427002|XArbitraryZVertical|0.09023187203629483|0.05735017293224072|-0.8106613574691078|0.5756712584561405|0.2123246788978577|-0.01090465299785137|-0.977138340473175|0|0|0|-1|-1|3
2021-04-22 21:46:03.484 +0100|140187.7200021667|0.1872406005859375|-0.00994873046875|-0.9733734130859375|140187.7000411667|-1.908546050628303|0.2140254392925827|0.01387335888364509|0.1334060877561569|-0.04805411770939827|-0.003127387259155512|-0.01312616467475891|0.01895324140787125|-0.00327223539352417|XArbitraryZVertical|0.09113017504288955|0.05612828750126841|-0.8107784833571937|0.5754851750891617|0.2123747617006302|-0.0138729140162468|-0.9770898222923279|0|0|0|-1|-1|3
2021-04-22 21:46:03.498 +0100|140187.7399621667|0.21929931640625|-0.0241851806640625|-0.9828033447265625|140187.7200021667|-1.909523466581804|0.2128263364560399|0.0161169808661718|0.119790330529213|-0.03401659429073334|-0.08407816290855408|-0.01780664920806885|0.008180856704711914|0.004456162452697754|XArbitraryZVertical|0.091315071597334|0.05482803422702927|-0.8110384833759943|0.5752148727455764|0.2111958712339401|-0.01611628383398056|-0.9773108959197998|0|0|0|-1|-1|3
2021-04-22 21:46:03.500 +0100|140187.7599231667|0.221282958984375|-0.045562744140625|-0.9728546142578125|140187.7399621667|-1.91230458744761|0.2119150324299945|0.01749813770389443|0.1031416952610016|-0.06930188089609146|-0.1429251432418823|0.00886102020740509|-0.0009057056158781052|-0.008649587631225586|XArbitraryZVertical|0.09141677617805542|0.0538780572058466|-0.8118323178066718|0.574167812972042|0.2103002816438675|-0.01749724522233009|-0.9774802327156067|0|0|0|-1|-1|3
2021-04-22 21:46:03.500 +0100|140187.7798841667|0.21038818359375|-0.0220489501953125|-0.97467041015625|140187.7599231667|-1.915599982741581|0.2109579890257694|0.01824168468577497|0.08122103661298752|-0.06796939671039581|-0.1490316838026047|0.01149311661720276|-0.0363256111741066|0.00360792875289917|XArbitraryZVertical|0.09132889658874549|0.05315065517294888|-0.8127957321698369|0.5728850796590808|0.2093619108200073|-0.0182406734675169|-0.9776681065559387|0|0|0|-1|-1|3
2021-04-22 21:46:03.501 +0100|140187.7998441667|0.19677734375|-0.014312744140625|-0.98095703125|140187.7798841667|-1.918503004677343|0.2086052885842162|0.01813461915858855|0.03914974629878998|-0.08686628192663193|-0.1266056448221207|0.006087779998779297|-0.003611005842685699|0.001856625080108643|XArbitraryZVertical|0.09041825735209504|0.05238909122106157|-0.8137369707316657|0.5717623243927115|0.2070615738630295|-0.01813362538814545|-0.9781598448753357|0|0|0|-1|-1|3
2021-04-22 21:46:03.505 +0100|140187.8198051667|0.205657958984375|-0.0054931640625|-0.981903076171875|140187.7998441667|-1.920606091682089|0.2069912100054208|0.01788139849338346|0.004481547977775335|-0.08501299470663071|-0.07553731650114059|-0.006143286824226379|0.006694899871945381|-0.001635909080505371|XArbitraryZVertical|0.08974397417581316|0.05193647021562681|-0.8144189233903616|0.5709382432206471|0.2054834216833115|-0.01788044534623623|-0.9784972667694092|0|0|0|-1|-1|3
2021-04-22 21:46:03.525 +0100|140187.8397661667|0.202178955078125|-0.01239013671875|-0.9857177734375|140187.8198051667|-1.921803290798217|0.2056869371297978|0.01778253275095847|0.01397265493869781|-0.05599960684776306|-0.04222489893436432|-0.001357704401016235|0.004200413823127747|-0.002664029598236084|XArbitraryZVertical|0.08921554947632357|0.05155105257116332|-0.8148222172372456|0.5704806061440486|0.2042073756456375|-0.01778159476816654|-0.978766143321991|0|0|0|-1|-1|3
2021-04-22 21:46:03.545 +0100|140187.8597271667|0.192535400390625|-0.0017547607421875|-0.9854583740234375|140187.8397661667|-1.922392957028632|0.2048481854131899|0.01818867803345473|-0.01125575322657824|-0.05727440863847733|-0.01163236889988184|0.0009754151105880737|0.01023699343204498|-0.003568351268768311|XArbitraryZVertical|0.08900446062986404|0.05111987215815369|-0.8150143267864317|0.5702777750073732|0.2033848762512207|-0.01818767562508583|-0.9789299368858337|0|0|0|-1|-1|3
2021-04-22 21:46:03.565 +0100|140187.8796871667|0.200531005859375|-0.0111541748046875|-0.982666015625|140187.8597271667|-1.922261021655751|0.2041173256752618|0.0182999239846601|0.01233474351465702|-0.03733036667108536|0.01837053708732128|-0.008104801177978516|0.01477326452732086|-0.005817592144012451|XArbitraryZVertical|0.08873491079891301|0.05087193022760179|-0.8150055037753561|0.5703544858219077|0.2026689499616623|-0.01829890348017216|-0.9790763258934021|0|0|0|-1|-1|3
2021-04-22 21:46:03.585 +0100|140187.8996481667|0.2042236328125|-0.0253143310546875|-0.9824676513671875|140187.8796871667|-1.921949112754436|0.2037240782645907|0.01866288869293893|0.01529148500412703|-0.007708346005529165|0.01723496429622173|-0.007794708013534546|0.01586858928203583|-0.004569590091705322|XArbitraryZVertical|0.08866999109269848|0.05062550845256725|-0.8149220542475539|0.5705058203158792|0.2022825628519058|-0.01866180449724197|-0.9791494011878967|0|0|0|-1|-1|3
2021-04-22 21:46:03.605 +0100|140187.9196091667|0.19873046875|-0.005828857421875|-0.976348876953125|140187.8996481667|-1.921467591672292|0.20348025846509|0.01854925434401014|-0.02890443801879883|-0.01122478395700455|0.02615824155509472|0.00256018340587616|-0.002738675102591515|-0.002381980419158936|XArbitraryZVertical|0.08852613517918891|0.0506236355850397|-0.8147992052879997|0.5707037053114228|0.2020442485809326|-0.01854819059371948|-0.9792007207870483|0|0|0|-1|-1|3
2021-04-22 21:46:03.625 +0100|140187.9395691667|0.1954498291015625|-0.02484130859375|-0.97454833984375|140187.9196091667|-1.920762792898806|0.2034129092229842|0.01764054207504525|-0.01960920728743076|0.006397352553904057|0.02421573176980019|-0.0005052387714385986|0.00869712233543396|0.001721799373626709|XArbitraryZVertical|0.08822211411827734|0.051006205895076|-0.8146308175351357|0.5709570813877543|0.2019816190004349|-0.01763962768018246|-0.9792304635047913|0|0|0|-1|-1|3
2021-04-22 21:46:03.645 +0100|140187.9595301667|0.194000244140625|-7.62939453125e-05|-0.9701385498046875|140187.9395691667|-1.920133669276773|0.2034051731373042|0.01693878704783881|-0.04817503690719604|0.002506367396563292|0.02498245611786842|-0.006191641092300415|-0.003997936844825745|0.002391338348388672|XArbitraryZVertical|0.08800300126270831|0.05131787438883042|-0.8144744107303943|0.5711860198099018|0.2019764930009842|-0.01693797670304775|-0.9792438745498657|0|0|0|-1|-1|3
2021-04-22 21:46:03.665 +0100|140187.9794911667|0.21209716796875|-0.0150146484375|-0.980377197265625|140187.9595301667|-1.919404759234109|0.2032190832694195|0.01536731393504297|-0.07752101123332977|0.003162676934152842|0.02309764735400677|-0.009813964366912842|0.005768075585365295|0.008740425109863281|XArbitraryZVertical|0.08746056449832236|0.05193733504652827|-0.814325275718127|0.571425985163782|0.2017993777990341|-0.01536670885980129|-0.9793063402175903|0|0|0|-1|-1|3
2021-04-22 21:46:03.685 +0100|140187.9994511667|0.211669921875|-0.0019989013671875|-0.9892730712890625|140187.9794911667|-1.918606219728674|0.2031232807377324|0.01368552729734553|-0.1142258420586586|-0.01809467375278473|0.01467087306082249|0.004419818520545959|0.003109902143478394|0.003504097461700439|XArbitraryZVertical|0.08692108418316309|0.0526301690883041|-0.8141551594932405|0.5716872289946024|0.2017104923725128|-0.01368509978055954|-0.9793495535850525|0|0|0|-1|-1|3
2021-04-22 21:46:03.705 +0100|140188.0194121667|0.1876678466796875|0.0270233154296875|-0.9839019775390625|140187.9994511667|-1.917806393116119|0.202304746225289|0.01150030576883257|-0.1033420041203499|-0.06037858873605728|0.02513310313224792|0.01369987428188324|-0.0007383525371551514|-0.008572220802307129|XArbitraryZVertical|0.08594308506638559|0.05332099416797069|-0.8140309389814998|0.5719478774536955|0.2009143233299255|-0.01150005217641592|-0.9795413017272949|0|0|0|-1|-1|3
2021-04-22 21:46:03.725 +0100|140188.0393731667|0.193115234375|-0.0088043212890625|-0.977691650390625|140188.0194121667|-1.916666702654262|0.2015097368808146|0.01129644859426452|0.05825874209403992|-0.0004627369344234467|0.08573669940233231|-0.009172901511192322|0.03883746266365051|-0.005328238010406494|XArbitraryZVertical|0.08553096515676746|0.05322543251809969|-0.8137453639759027|0.572424887726854|0.2001359760761261|-0.01129620801657438|-0.9797030091285706|0|0|0|-1|-1|3
2021-04-22 21:46:03.745 +0100|140188.0593331667|0.1902618408203125|-0.02117919921875|-0.97509765625|140188.0393731667|-1.915047435291134|0.201413578041207|0.01334169316729344|0.07008364796638489|-0.004249113611876965|0.09901513904333115|-0.007578283548355103|0.01262328028678894|0.001639604568481445|XArbitraryZVertical|0.08603381217776633|0.05243472698738603|-0.8132214242867707|0.5731664190776881|0.2000367343425751|-0.01334129739552736|-0.979697585105896|0|0|0|-1|-1|3
2021-04-22 21:46:03.765 +0100|140188.0792941667|0.199676513671875|-0.0242462158203125|-0.9748687744140625|140188.0593331667|-1.913780527127289|0.2012238595134809|0.01417589590366099|0.001943738199770451|-0.01514996401965618|0.04509145021438599|-0.01141847670078278|-0.005646600387990475|0.00342106819152832|XArbitraryZVertical|0.08616228872194738|0.05209542257845799|-0.8128398840689511|0.5737190659898721|0.1998485624790192|-0.01417542155832052|-0.9797242283821106|0|0|0|-1|-1|3
2021-04-22 21:46:03.785 +0100|140188.0992551667|0.1889801025390625|-0.0033721923828125|-0.9782562255859375|140188.0792941667|-1.913045868179487|0.2010194637556381|0.01388495688874421|-0.03700805455446243|-0.03171274811029434|0.02157103642821312|-0.000141143798828125|-0.01040833350270987|0.007570505142211914|XArbitraryZVertical|0.08597676729623586|0.05218673705763668|-0.8126471170876718|0.5740115422208295|0.1996491253376007|-0.01388451084494591|-0.9797690510749817|0|0|0|-1|-1|3
2021-04-22 21:46:03.805 +0100|140188.1192151667|0.181488037109375|0.00177001953125|-0.9866790771484375|140188.0992551667|-1.912698377862758|0.2002676714371357|0.01247107880251194|-0.04251633584499359|-0.02956229820847511|-0.00627550994977355|-0.00526757538318634|0.007205621339380741|0.005297183990478516|XArbitraryZVertical|0.08525713074287128|0.05256084663764699|-0.8126241676388644|0.5741172801856607|0.1989161968231201|-0.01247075572609901|-0.9799371361732483|0|0|0|-1|-1|3
2021-04-22 21:46:03.825 +0100|140188.1391761667|0.192962646484375|-0.01593017578125|-0.9858245849609375|140188.1192151667|-1.912956127320817|0.1997459190314757|0.01159310161792004|0.01967872679233551|0.002721284981817007|-0.03727861121296883|-0.01453924179077148|0.01038654148578644|-0.005804061889648438|XArbitraryZVertical|0.08480033937143305|0.05275719414220598|-0.812747730716335|0.5739919338285775|0.1984069794416428|-0.01159284170717001|-0.9800511598587036|0|0|0|-1|-1|3
2021-04-22 21:46:03.845 +0100|140188.1591371667|0.1983795166015625|-0.02386474609375|-0.977996826171875|140188.1391761667|-1.914240933624565|0.1998070199634945|0.01207808709827641|0.03541497886180878|0.01322010532021523|-0.07189455628395081|-0.01047810912132263|0.00614127516746521|-0.005562424659729004|XArbitraryZVertical|0.08499787403822398|0.05252289205077764|-0.8130986328551982|0.5734871488539663|0.1984657198190689|-0.01207779347896576|-0.9800333976745605|0|0|0|-1|-1|3
2021-04-22 21:46:03.865 +0100|140188.1790960417|0.18896484375|-0.0117950439453125|-0.9840850830078125|140188.1591371667|-1.915684573980534|0.2001127695224224|0.01247314111782029|0.009425372816622257|0.01465048920363188|-0.06274047493934631|0.0009724795818328857|-0.01377315819263458|0.0001552104949951172|XArbitraryZVertical|0.08527309403772995|0.05238828023646699|-0.8134870277884234|0.5729075012285648|0.1987643837928772|-0.01247281767427921|-0.9799679517745972|0|0|0|-1|-1|3
2021-04-22 21:46:03.885 +0100|140188.1990570417|0.1778106689453125|0.0020294189453125|-0.9751739501953125|140188.1790960417|-1.916965066970034|0.20027263538396|0.01259168301761602|0.05115893855690956|-0.0002958634868264198|-0.06359508633613586|-0.01018546521663666|-0.002653032541275024|-0.001205563545227051|XArbitraryZVertical|0.08540554446974735|0.05233114426014026|-0.8138431159395376|0.5723869211404687|0.1989207565784454|-0.01259134989231825|-0.9799346923828125|0|0|0|-1|-1|3
2021-04-22 21:46:03.918 +0100|140188.2190180417|0.198333740234375|-0.0257110595703125|-0.97119140625|140188.1990570417|-1.91885648745222|0.2001666759451474|0.01352495162616773|0.1047338768839836|0.03800151124596596|-0.1088705062866211|-0.01825791597366333|0.01616345345973969|0.004113614559173584|XArbitraryZVertical|0.08567808925156313|0.05183970541856291|-0.8143593655871986|0.5716562973041924|0.1988144963979721|-0.01352453883737326|-0.9799438118934631|0|0|0|-1|-1|3
2021-04-22 21:46:03.929 +0100|140188.2389780417|0.2024383544921875|-0.0501861572265625|-0.9665679931640625|140188.2190180417|-1.922183949254602|0.2011977089719877|0.0158483805628973|0.1975585371255875|0.08132933080196381|-0.152916431427002|-0.006504997611045837|-0.004905087873339653|0.008055627346038818|XArbitraryZVertical|0.08684565623783046|0.05104303726489081|-0.815191232276371|0.5703646809427846|0.1998179256916046|-0.01584771648049355|-0.9797048568725586|0|0|0|-1|-1|3
2021-04-22 21:46:03.944 +0100|140188.2589390417|0.2254638671875|-0.07464599609375|-0.976837158203125|140188.2389780417|-1.926307100447027|0.2028466406298618|0.0187332901654596|0.1364873647689819|0.08299391716718674|-0.1891579777002335|0.0007399469614028931|-0.01961400173604488|0.01429826021194458|XArbitraryZVertical|0.08844197635216408|0.05015389332339014|-0.8161998327472418|0.5687536468559371|0.2014230787754059|-0.01873219385743141|-0.9793252348899841|0|0|0|-1|-1|3
2021-04-22 21:46:03.964 +0100|140188.2789000417|0.1567840576171875|-0.212799072265625|-0.996734619140625|140188.2589390417|-1.932425320064021|0.2046434071740051|0.01848893737903906|-0.02561906352639198|0.1838884055614471|-0.736868143081665|0.002260386943817139|-0.06162162125110626|0.003731071949005127|XArbitraryZVertical|0.08926079038844477|0.05049185249622204|-0.8178639841480196|0.566199441420154|0.2031832933425903|-0.01848788373172283|-0.9789661765098572|0|0|0|-1|-1|3
2021-04-22 21:46:03.984 +0100|140188.2988600417|0.2086181640625|-0.1420440673828125|-0.952789306640625|140188.2789000417|-1.944653701041021|0.2045018701958466|0.01645770329735958|0.08713918924331665|-0.1163299009203911|-0.2437844723463058|0.0454673171043396|-0.1545186340808868|-0.04996216297149658|XArbitraryZVertical|0.08894130064277447|0.05074063587864253|-0.8213825449455395|0.5611111199284577|0.2030519396066666|-0.01645695976912975|-0.979029655456543|0|0|0|-1|-1|3
2021-04-22 21:46:04.005 +0100|140188.3188210417|0.1390838623046875|-0.0962982177734375|-0.914794921875|140188.2988600417|-1.951560985234796|0.2062005684755377|0.01645743726734925|0.002261054003611207|0.07422923296689987|-0.3504897654056549|-0.05241736769676208|-0.141991451382637|0.0426175594329834|XArbitraryZVertical|0.08981519288844655|0.05090741901235265|-0.8232395236353772|0.5582279005281719|0.2047147154808044|-0.01645669527351856|-0.9786833524703979|0|0|0|-1|-1|3
2021-04-22 21:46:04.024 +0100|140188.3387820417|0.142425537109375|-0.1257781982421875|-0.905975341796875|140188.3188210417|-1.95919478901784|0.2069556078661771|0.01501708454601799|-0.04006987437605858|0.06616965681314468|-0.4314895868301392|-0.0385735034942627|-0.08386131376028061|0.04832899570465088|XArbitraryZVertical|0.08992166983569956|0.05136883916084193|-0.8253763530807499|0.5550039860674867|0.2054582536220551|-0.01501652039587498|-0.9785506725311279|0|0|0|-1|-1|3
2021-04-22 21:46:04.044 +0100|140188.3587430417|0.1522674560546875|-0.085357666015625|-0.8843841552734375|140188.3387820417|-1.968036044074826|0.2093989953817205|0.01307486087961952|-0.09521864354610443|0.148814469575882|-0.496342658996582|-0.07498137652873993|-0.1163819655776024|0.05958473682403564|XArbitraryZVertical|0.09062501615022282|0.05244898946833109|-0.827772831572035|0.5512064419325057|0.207854300737381|-0.01307448837906122|-0.9780724048614502|0|0|0|-1|-1|3
2021-04-22 21:46:04.064 +0100|140188.3787030417|0.1623687744140625|-0.0645599365234375|-0.9178924560546875|140188.3587430417|-1.978435567400472|0.2134731748066479|0.009573824178563308|-0.3193826377391815|0.148184210062027|-0.6241334080696106|-0.06546884775161743|-0.07409115135669708|0.07930684089660645|XArbitraryZVertical|0.09163311679766922|0.05454597864854|-0.8305515699621224|0.5466373830253058|0.211845800280571|-0.009573677554726601|-0.9772562384605408|0|0|0|-1|-1|3
2021-04-22 21:46:04.084 +0100|140188.3986640417|0.1533355712890625|0.003814697265625|-0.92535400390625|140188.3787030417|-1.989915300707798|0.2153993536416675|0.004201145513251369|-0.3050715923309326|0.1876867264509201|-0.7062311172485352|-0.05097079277038574|-0.09949849545955658|0.06150764226913452|XArbitraryZVertical|0.09129406810305532|0.05678155611559613|-0.8337514848284417|0.5415715864914024|0.2137356847524643|-0.004201133269816637|-0.9768825173377991|0|0|0|-1|-1|3
2021-04-22 21:46:04.104 +0100|140188.4186250417|0.11578369140625|0.0947723388671875|-0.89263916015625|140188.3986640417|-2.004300198847844|0.218241216356152|-0.001845852387531226|-0.123566247522831|0.1182821244001389|-0.8754634857177734|-0.06032416224479675|-0.01284834742546082|0.04959648847579956|XArbitraryZVertical|0.09127193788896577|0.05941704593221885|-0.8376727603704252|0.5352040982065369|0.216512531042099|0.001845851307734847|-0.9762780666351318|0|0|0|-1|-1|3
2021-04-22 21:46:04.124 +0100|140188.4385850417|0.12164306640625|0.071380615234375|-0.8592529296875|140188.4186250417|-2.022759971032934|0.2189683863992552|-0.002438641701871409|0.2146213054656982|0.1271855086088181|-1.008543491363525|-0.09565591812133789|0.07385437935590744|0.07778835296630859|XArbitraryZVertical|0.09196641199570371|0.05901355805225024|-0.8425603725224036|0.5274008712686433|0.2172221094369888|0.002438639290630817|-0.9761191606521606|0|0|0|-1|-1|3
2021-04-22 21:46:04.144 +0100|140188.4585460417|0.1694488525390625|0.141204833984375|-0.8492889404296875|140188.4385850417|-2.045263582748869|0.2217399755767531|-0.001519887560813548|0.3806847631931305|0.1257921308279037|-1.148873567581177|-0.1042507439851761|0.08423357456922531|0.1112419366836548|XArbitraryZVertical|0.09403821497480233|0.05830305093107388|-0.8482858804014047|0.5178502315721485|0.2199270725250244|0.001519887009635568|-0.9755151271820068|0|0|0|-1|-1|3
2021-04-22 21:46:04.164 +0100|140188.4785070417|0.24835205078125|0.161773681640625|-0.960113525390625|140188.4585460417|-2.07060169738805|0.2237678854785817|0.002225536741710682|0.5163848996162415|0.05240628123283386|-1.251964807510376|-0.07275044918060303|0.1137205511331558|0.1236405372619629|XArbitraryZVertical|0.0965855301559702|0.05602062569375891|-0.8545747920680192|0.5071834458735338|0.2219045907258987|-0.002225534990429878|-0.9750658273696899|0|0|0|-1|-1|3
2021-04-22 21:46:04.184 +0100|140188.4984670417|0.2350311279296875|0.1850128173828125|-0.94830322265625|140188.4785070417|-2.099471579395616|0.2243886472505017|0.009351817944123401|0.8892225623130798|-0.07099804282188416|-1.353781223297119|0.00668586790561676|0.1783875823020935|0.05441641807556152|XArbitraryZVertical|0.09941315397856341|0.05170278910947082|-0.8615689122426099|0.4951191529391702|0.2225006520748138|-0.009351681917905807|-0.9748876690864563|0|0|0|-1|-1|3
2021-04-22 21:46:04.204 +0100|140188.5184280417|0.1577301025390625|0.127777099609375|-0.9306793212890625|140188.4984670417|-2.130771949245412|0.2206268416404908|0.02226575132997119|1.147803425788879|-0.3163914382457733|-1.452445983886719|0.0322805792093277|0.2179416418075562|0.05590182542800903|XArbitraryZVertical|0.1016772517820448|0.04361691828863983|-0.8690102000609625|0.4822662083915725|0.2187870740890503|-0.0222639124840498|-0.9755185842514038|0|0|0|-1|-1|3
2021-04-22 21:46:04.224 +0100|140188.5383890417|0.1073455810546875|0.012908935546875|-0.9250946044921875|140188.5184280417|-2.165394265491494|0.2134718172915297|0.04096301575877324|1.301019430160522|-0.4723546206951141|-1.51828408241272|-0.03458341956138611|0.1849630177021027|0.03341197967529297|XArbitraryZVertical|0.1036227056916703|0.03196252599117942|-0.8769921852010545|0.4681084677498632|0.2116764634847641|-0.04095156118273735|-0.9764814376831055|0|0|0|-1|-1|3
2021-04-22 21:46:04.244 +0100|140188.5583490417|0.0977325439453125|0.0234222412109375|-0.8809967041015625|140188.5383890417|-2.200837090859911|0.2056901011138229|0.0585192251134163|1.116007089614868|-0.495866060256958|-1.59535539150238|-0.09078018367290497|0.09338165819644928|0.05123448371887207|XArbitraryZVertical|0.1046642578091836|0.02056929284525909|-0.8849463476565014|0.4533126882461191|0.2038931548595428|-0.05848583206534386|-0.9772446155548096|0|0|0|-1|-1|3
2021-04-22 21:46:04.264 +0100|140188.5783100417|0.142669677734375|0.0656585693359375|-0.892608642578125|140188.5583490417|-2.237582761784084|0.196874731153052|0.07354036517260146|1.106576561927795|-0.6755545735359192|-1.729199051856995|-0.09499469399452209|0.06784257292747498|0.07205671072006226|XArbitraryZVertical|0.1043276756805132|0.009986150822094872|-0.8930352348509186|0.4376119037196202|0.1950767040252686|-0.07347409427165985|-0.9780320525169373|0|0|0|-1|-1|3
2021-04-22 21:46:04.284 +0100|140188.5982710417|0.1232757568359375|-0.177459716796875|-0.945098876953125|140188.5783100417|-2.276965111605322|0.1851082981031879|0.08798109727208434|1.104100108146667|-0.9133613109588623|-1.802927136421204|-0.05379432439804077|0.1953037083148956|0.0577736496925354|XArbitraryZVertical|0.10218396512113|-0.001074695648292288|-0.9015350050346368|0.4204665776482696|0.1833411008119583|-0.08786763250827789|-0.9791145920753479|0|0|0|-1|-1|3
2021-04-22 21:46:04.304 +0100|140188.6182310417|0.040802001953125|-0.095703125|-1.020645141601562|140188.5982710417|-2.316099845467642|0.1668068517012241|0.09547211175246698|0.2970125377178192|-1.1613609790802|-1.974695444107056|-0.02740015089511871|-0.01314866542816162|0.09962546825408936|XArbitraryZVertical|0.09529834687829312|-0.01018026672767955|-0.9102040624593611|0.4029183256918221|0.1652782559394836|-0.09532713890075684|-0.9816291928291321|0|0|0|-1|-1|3
2021-04-22 21:46:04.324 +0100|140188.6381920417|-0.073394775390625|0.212921142578125|-1.071426391601562|140188.6182310417|-2.35584332206591|0.1466456174227751|0.08588067723141449|-0.5980219841003418|-1.24225652217865|-2.056791543960571|-0.07522405683994293|-0.09083116054534912|-0.03455120325088501|XArbitraryZVertical|0.0840037578298008|-0.0115297448817378|-0.9192769656186368|0.3843702434020732|0.1455820500850677|-0.08577514439821243|-0.9856208562850952|0|0|0|-1|-1|3
2021-04-22 21:46:04.344 +0100|140188.6581530417|-0.107269287109375|0.1685333251953125|-1.035980224609375|140188.6381920417|-2.396054666028859|0.1249153039415328|0.06991892804737179|-0.3513341248035431|-1.228005170822144|-2.121935367584229|-0.1791571080684662|0.2203583121299744|-0.06987786293029785|XArbitraryZVertical|0.07079954741145351|-0.009770295103540718|-0.9281441257161461|0.3652953414094308|0.1242862790822983|-0.06986197084188461|-0.9897839426994324|0|0|0|-1|-1|3
2021-04-22 21:46:04.364 +0100|140188.6781130417|-0.0657958984375|0.050079345703125|-1.063491821289062|140188.6581530417|-2.436619770433266|0.1039912908542096|0.058793854637256|-0.3328503668308258|-1.123279690742493|-2.120453834533691|-0.2062554061412811|0.2726413309574127|-0.06385290622711182|XArbitraryZVertical|0.05888934002319059|-0.00961351821503416|-0.9363165957733438|0.3460507019484346|0.1036246046423912|-0.05875998735427856|-0.9928792715072632|0|0|0|-1|-1|3
2021-04-22 21:46:04.384 +0100|140188.6980740417|-0.096710205078125|0.020050048828125|-1.075042724609375|140188.6781130417|-2.478162212088224|0.08443800949001615|0.04584509499770395|-0.6557192802429199|-1.077934980392456|-2.114172458648682|-0.1581780612468719|0.1064358428120613|-0.05317842960357666|XArbitraryZVertical|0.04735287255211684|-0.007910153297138019|-0.9440794153240541|0.3262041972537882|0.0842490941286087|-0.04582903906702995|-0.9953902959823608|0|0|0|-1|-1|3
2021-04-22 21:46:04.418 +0100|140188.7180350417|-0.16949462890625|0.0921783447265625|-0.99951171875|140188.6980740417|-2.52038591099894|0.06558601626161373|0.02358078249316132|-1.204573512077332|-0.9489692449569702|-2.273796558380127|-0.1513515710830688|0.0521572008728981|-0.07232791185379028|XArbitraryZVertical|0.03481758804566286|-0.001199777905724589|-0.9514531488585564|0.305815730706657|0.06552078574895859|-0.02357859723269939|-0.9975726008415222|0|0|0|-1|-1|3
2021-04-22 21:46:04.434 +0100|140188.7379950417|-0.216888427734375|0.2110595703125|-1.014968872070312|140188.7180350417|-2.565625991654043|0.04864235802887003|-0.008828806309802669|-1.787639141082764|-0.7447401285171509|-2.44236421585083|-0.1936408579349518|0.06816604733467102|0.0002431273460388184|XArbitraryZVertical|0.02206367198575343|0.01113827947397886|-0.9585561916555235|0.283829498187875|0.0486212819814682|0.008828691206872463|-0.9987782835960388|0|0|0|-1|-1|3
2021-04-22 21:46:04.444 +0100|140188.7579560417|-0.2241668701171875|0.329437255859375|-1.046920776367188|140188.7379950417|-2.612700695120519|0.03506165304004857|-0.0499002299283333|-2.13254976272583|-0.4788534641265869|-2.428817510604858|-0.2485881000757217|0.1091464757919312|-0.02659314870834351|XArbitraryZVertical|0.01039562968268409|0.02865703668130307|-0.964903111579851|0.2608309574978734|0.03501083701848984|0.0498795248568058|-0.9981414079666138|0|0|0|-1|-1|3
2021-04-22 21:46:04.464 +0100|140188.7779170417|-0.2378082275390625|0.3096771240234375|-0.9548492431640625|140188.7579560417|-2.660384687655451|0.02527195918821776|-0.09408065425291189|-2.126000165939331|-0.1622231304645538|-2.459412097930908|-0.2466235309839249|0.2201133668422699|-0.03957611322402954|XArbitraryZVertical|0.001053911707828112|0.0486724071211587|-0.9701840702746931|0.2374296345439393|0.02515752054750919|0.09394192695617676|-0.9952597618103027|0|0|0|-1|-1|3
2021-04-22 21:46:04.484 +0100|140188.7978770417|-0.2328948974609375|0.3453826904296875|-0.862335205078125|140188.7779170417|-2.709252931762737|0.01911638860437899|-0.1384723237346787|-2.19660210609436|0.1018663495779037|-2.50523567199707|-0.2564504444599152|0.1849209666252136|-0.003725886344909668|XArbitraryZVertical|-0.005524711542651966|0.06961285843106335|-0.9744834133228771|0.213320742349179|0.01893225312232971|0.1380302160978317|-0.9902470707893372|0|0|0|-1|-1|3
2021-04-22 21:46:04.504 +0100|140188.8178380417|-0.2069854736328125|0.3765411376953125|-0.8604583740234375|140188.7978770417|-2.75935068983156|0.0149748835734918|-0.1839096410603046|-2.338803052902222|0.2874869406223297|-2.537946701049805|-0.2472350597381592|0.1380776315927505|0.104180634021759|XArbitraryZVertical|-0.01012262253278215|0.09156707472029883|-0.9777472589140282|0.188476771978784|0.01472180057317019|0.1828746646642685|-0.9830260276794434|0|0|0|-1|-1|3
2021-04-22 21:46:04.523 +0100|140188.8377990417|-0.205474853515625|0.392333984375|-0.866546630859375|140188.8178380417|-2.810601447833578|0.01192205051514938|-0.2327230740875809|-2.490042209625244|0.4541119933128357|-2.53047513961792|-0.2282902300357819|0.1415633112192154|0.1031148433685303|XArbitraryZVertical|-0.01328618649738758|0.1154861718241939|-0.9797635930719646|0.1629416926775272|0.01160038076341152|0.2306280434131622|-0.9729728698730469|0|0|0|-1|-1|3
2021-04-22 21:46:04.543 +0100|140188.8577600417|-0.1845855712890625|0.49017333984375|-0.905609130859375|140188.8377990417|-2.86206967811309|0.009315561527605647|-0.28403269487373|-2.54449725151062|0.6008669137954712|-2.48066520690918|-0.2124178558588028|0.104367733001709|0.1027897596359253|XArbitraryZVertical|-0.01515130065758716|0.1408001328935121|-0.9803612803004073|0.1372501695223025|0.008942186832427979|0.2802290320396423|-0.9598914980888367|0|0|0|-1|-1|3
2021-04-22 21:46:04.563 +0100|140188.8777200417|-0.0735931396484375|0.4910125732421875|-0.8529815673828125|140188.8577600417|-2.911643021712059|0.007589206663742229|-0.3338462519992127|-2.378867864608765|0.7171444892883301|-2.274016618728638|-0.2040997296571732|0.1323874592781067|0.04961985349655151|XArbitraryZVertical|-0.01534361103669914|0.1654801417432518|-0.9796553949229039|0.11250000276969|0.007170130033046007|0.3276793360710144|-0.9447618126869202|0|0|0|-1|-1|3
2021-04-22 21:46:04.583 +0100|140188.8976810417|-0.0003662109375|0.49859619140625|-0.857025146484375|140188.8777200417|-2.959541463997253|0.00571728027821885|-0.3814120983840877|-2.307703256607056|0.7445838451385498|-2.210060358047485|-0.1126516088843346|0.1415920853614807|0.08110904693603516|XArbitraryZVertical|-0.01443502470908772|0.1890217977956418|-0.9778510956580171|0.08871203523748898|0.00530640734359622|0.3722314536571503|-0.9281247854232788|0|0|0|-1|-1|3
2021-04-22 21:46:04.603 +0100|140188.9176420417|0.02276611328125|0.5016632080078125|-0.85662841796875|140188.8976810417|-3.005545577056554|0.001543758094831191|-0.4273811570995438|-2.245789766311646|0.6468250155448914|-2.099447250366211|-0.01663274876773357|0.08604425191879272|0.05078470706939697|XArbitraryZVertical|-0.01366191103113289|0.2116287014500159|-0.9750057749829102|0.06626177678663037|0.001404903247021139|0.4144889414310455|-0.9100533127784729|0|0|0|-1|-1|3
2021-04-22 21:46:04.623 +0100|140188.9376020417|0.0554962158203125|0.53814697265625|-0.821197509765625|140188.9176420417|-3.051557451988514|-0.006536637889981368|-0.4707054959244124|-2.107205152511597|0.5670810341835022|-2.042298793792725|0.02653237245976925|0.04323387145996094|0.02724593877792358|XArbitraryZVertical|-0.01366886758162832|0.2328054809722753|-0.9714075737963455|0.04452291060123277|-0.005825727712363005|0.4535151720046997|-0.8912295699119568|0|0|0|-1|-1|3
2021-04-22 21:46:04.644 +0100|140188.9575630417|0.1061859130859375|0.614959716796875|-0.8306732177734375|140188.9575630417|3.137746071216056|-0.03277626863967519|-0.5541784913908818|-2.175562143325806|0.3872638344764709|-1.948273062705994|0.1277655959129333|0.06872504949569702|0.04520362615585327|XArbitraryZVertical|-0.01523622613713196|0.2735501323026824|-0.96173355400775|0.002633200119638369|-0.02786575444042683|0.5262449383735657|-0.849876344203949|0|0|0|-1|-1|3
2021-04-22 21:46:04.663 +0100|140188.9775240417|0.1552276611328125|0.69940185546875|-0.87701416015625||||||||||||||||||||||||3
2021-04-22 21:46:04.683 +0100|140188.9974840417|0.1604461669921875|0.721099853515625|-0.9442901611328125|140188.9775240417|3.091126951007986|-0.05168808585539342|-0.594278201098991|-1.982058644294739|0.252224326133728|-1.831205368041992|0.1874001026153564|0.1221563220024109|-0.04325121641159058|XArbitraryZVertical|-0.01731631599915529|0.2932183232989841|-0.9557453954289784|-0.01655296753877953|-0.04280724376440048|0.5599108338356018|-0.8274463415145874|0|0|0|-1|-1|3
2021-04-22 21:46:04.703 +0100|140189.0174450417|0.1831207275390625|0.756683349609375|-1.022186279296875|140188.9974840417|3.045825550173133|-0.07356151122140878|-0.6290766621804741|-1.669719338417053|0.1911250799894333|-1.640176177024841|0.2248624861240387|0.1325634717941284|-0.1194431185722351|XArbitraryZVertical|-0.02012987938644694|0.3104876211886924|-0.9497515422822367|-0.03412264893548335|-0.05942608788609505|0.5883983969688416|-0.8063844442367554|0|0|0|-1|-1|3
2021-04-22 21:46:04.723 +0100|140189.0374060417|0.2431793212890625|0.7969207763671875|-1.080856323242188|140189.0174450417|3.00428520218601|-0.09383502813951423|-0.6569490249668435|-1.430024743080139|0.2758638262748718|-1.390581130981445|0.2398909479379654|0.133909285068512|-0.2146614789962769|XArbitraryZVertical|-0.02218231562065724|0.3245306823188452|-0.9443045824832155|-0.04976634137456804|-0.07419513165950775|0.6107037663459778|-0.7883755564689636|0|0|0|-1|-1|3
2021-04-22 21:46:04.743 +0100|140189.0573660417|0.291473388671875|0.7352752685546875|-1.013565063476562|140189.0374060417|2.970382575664306|-0.1092837443341132|-0.6804181564214721|-1.182631731033325|0.2794610857963562|-1.020649552345276|0.3161327242851257|0.168015718460083|-0.3042626976966858|XArbitraryZVertical|-0.02280831364153947|0.3363680104015386|-0.939389354345713|-0.06232245424241251|-0.08477833122014999|0.6291181445121765|-0.772672712802887|0|0|0|-1|-1|3
2021-04-22 21:46:04.763 +0100|140189.0773270417|0.375030517578125|0.810882568359375|-1.008743286132812|140189.0573660417|2.946676566702977|-0.1182970025573231|-0.7007138016230829|-1.063327431678772|0.3063775599002838|-0.525945782661438|0.3666727542877197|0.1132773756980896|-0.2817931175231934|XArbitraryZVertical|-0.02191988845441085|0.3464094782316458|-0.9351329206520134|-0.07103926599848487|-0.09021336585283279|0.6447634696960449|-0.7590399980545044|0|0|0|-1|-1|3
2021-04-22 21:46:04.783 +0100|140189.0972880417|0.4611053466796875|0.8304595947265625|-0.955413818359375|140189.0773270417|2.933548326082839|-0.1184941182568875|-0.7229198093338338|-1.202290058135986|0.5108265280723572|-0.2434471398591995|0.42835533618927|0.1304451823234558|-0.253413200378418|XArbitraryZVertical|-0.01843110837217516|0.3568624163016986|-0.9308674757413382|-0.076127971383356|-0.08864825963973999|0.6615769863128662|-0.7446190118789673|0|0|0|-1|-1|3
2021-04-22 21:46:04.803 +0100|140189.1172480417|0.4561614990234375|0.7030792236328125|-0.9127655029296875|140189.0972880417|2.92802120763926|-0.1126311136502967|-0.7416894493629129|-0.665129542350769|0.4493091106414795|0.01183753646910191|0.5371712446212769|0.1555196046829224|-0.2300362586975098|XArbitraryZVertical|-0.01359602636161417|0.3653585288722673|-0.9274177340181777|-0.07889819655117146|-0.08287064731121063|0.6755345463752747|-0.7326565980911255|0|0|0|-1|-1|3
2021-04-22 21:46:04.823 +0100|140189.1372090417|0.4625396728515625|0.64898681640625|-0.9540252685546875|140189.1172480417|2.929655540824156|-0.1028582569914479|-0.7537548971105017|-0.6674944162368774|0.4431709349155426|0.241618275642395|0.5332847833633423|0.06001806259155273|-0.2041122317314148|XArbitraryZVertical|-0.008656526131629649|0.3705262887417067|-0.925381173233129|-0.0794047672324586|-0.07486428320407867|0.684381365776062|-0.725270688533783|0|0|0|-1|-1|3
2021-04-22 21:46:04.843 +0100|140189.1571700417|0.404205322265625|0.8497161865234375|-0.8084716796875|140189.1372090417|2.937933063763055|-0.08821006393855169|-0.7719680752097251|-1.139907360076904|0.4148175418376923|0.6042511463165283|0.5240011811256409|-0.054313063621521|-0.225242555141449|XArbitraryZVertical|-0.002402782637189322|0.378308780691802|-0.9224205173043681|-0.07757061275520971|-0.06312403827905655|0.6975467801094055|-0.7137534022331238|0|0|0|-1|-1|3
2021-04-22 21:46:04.863 +0100|140189.177130375|0.3872833251953125|0.8874359130859375|-0.6923675537109375|140189.1571700417|2.958315152788991|-0.06513929736253365|-0.7998859073369735|-1.509936928749084|0.4434178173542023|0.9428653120994568|0.4705735743045807|0.08821910619735718|-0.09808570146560669|XArbitraryZVertical|0.00574398852216641|0.390271144374303|-0.9178924195509039|-0.07161810321200672|-0.04535623267292976|0.7172765731811523|-0.6953108906745911|0|0|0|-1|-1|3
2021-04-22 21:46:04.883 +0100|140189.197091375|0.4211578369140625|0.8719635009765625|-0.630401611328125|140189.177130375|2.98817142740712|-0.03397484883589782|-0.8294277725550436|-1.333954572677612|0.4929273128509521|1.2205650806427|0.4055688083171844|0.1425203084945679|-0.05653762817382812|XArbitraryZVertical|0.01537314298287619|0.4028765809539531|-0.9129330365131313|-0.06330478761004618|-0.02293873205780983|0.7375450730323792|-0.6749082803726196|0|0|0|-1|-1|3
2021-04-22 21:46:04.935 +0100|140189.217052375|0.355712890625|0.7940521240234375|-0.5736236572265625|140189.217052375|3.075779314864149|0.04420117499783174|-0.8619102348050918|-0.3425388634204865|0.1178231537342072|1.66089129447937|0.3481581807136536|0.05544143915176392|0.06583380699157715|XArbitraryZVertical|0.03380791803663236|0.4167500336419391|-0.9075499138604919|-0.0391117540258024|0.02876509726047516|0.7590875029563904|-0.6503528952598572|0|0|0|-1|-1|3
2021-04-22 21:46:04.936 +0100|140189.237012375|0.2758026123046875|0.722991943359375|-0.5460052490234375||||||||||||||||||||||||3
2021-04-22 21:46:04.943 +0100|140189.256973375|0.249053955078125|0.5658416748046875|-0.5136566162109375|140189.237012375|3.128719172474864|0.08616354605815775|-0.862115821498824|0.0504496730864048|0.07660834491252899|1.747708916664124|0.2344887852668762|-0.02095586061477661|0.09415733814239502|XArbitraryZVertical|0.04181487425212096|0.4171838970509213|-0.9075467561526473|-0.02383747208228593|0.05600868910551071|0.7592213153839111|-0.6484182476997375|0|0|0|-1|-1|3
2021-04-22 21:46:04.963 +0100|140189.276934375|0.2226715087890625|0.612945556640625|-0.4581756591796875|140189.256973375|-3.102042878866265|0.1265478950942824|-0.8560925399349267|0.1642589271068573|-0.01629501767456532|1.731251358985901|0.1701975464820862|-0.1650627255439758|0.1279813051223755|XArbitraryZVertical|0.04932413880120699|0.4153199613976164|-0.9082994387369778|-0.008288385038509134|0.08271750807762146|0.7552874088287354|-0.6501529216766357|0|0|0|-1|-1|3
2021-04-22 21:46:04.983 +0100|140189.296894375|0.1584930419921875|0.6519775390625|-0.45745849609375|140189.276934375|-3.050700600348363|0.1629966134063736|-0.8490367242999679|0.04994498565793037|-0.2019378393888474|1.702287197113037|0.1306531578302383|-0.1553995013237|0.1924607157707214|XArbitraryZVertical|0.05545565637941791|0.413461065542361|-0.9087983749990438|0.007764564352511326|0.1072167083621025|0.750644326210022|-0.6519492268562317|0|0|0|-1|-1|3
2021-04-22 21:46:05.002 +0100|140189.316855375|0.0928192138671875|0.681121826171875|-0.4606170654296875|140189.296894375|-3.00215735926166|0.1936233353275113|-0.841839510034899|0.09066140651702881|-0.3635073006153107|1.605871796607971|0.04375474154949188|-0.1086785197257996|0.1957892179489136|XArbitraryZVertical|0.05967875123472278|0.4118445749141035|-0.9089840882096517|0.02388343239097747|0.128166601061821|0.7458696365356445|-0.6536449790000916|0|0|0|-1|-1|3
2021-04-22 21:46:05.023 +0100|140189.336816375|0.0430755615234375|0.6808319091796875|-0.4934234619140625|140189.316855375|-2.958709767655474|0.2172646447442228|-0.833082573845037|0.1755285114049911|-0.4893510937690735|1.418340444564819|-0.03730298578739166|-0.05778837203979492|0.1946879029273987|XArbitraryZVertical|0.06200617391291868|0.4095880727211882|-0.9093108391938495|0.03933101960431687|0.1449848115444183|0.7400082349777222|-0.6567856669425964|0|0|0|-1|-1|3
2021-04-22 21:46:05.042 +0100|140189.356777375|-0.0073394775390625|0.7065277099609375|-0.51708984375|140189.336816375|-2.921260875776571|0.2341522721848779|-0.8230488887687575|0.240133136510849|-0.5761864185333252|1.281831741333008|-0.1036007702350616|-0.0518876314163208|0.1798650026321411|XArbitraryZVertical|0.062730741129818|0.4066304997444254|-0.9098571959097747|0.05363341479211212|0.1577699929475784|0.7332224249839783|-0.6614329814910889|0|0|0|-1|-1|3
2021-04-22 21:46:05.062 +0100|140189.376737375|-0.055145263671875|0.7672271728515625|-0.5299530029296875|140189.356777375|-2.888296491671034|0.2457760762316005|-0.8117657648968567|0.328999400138855|-0.6503633856773376|1.166029810905457|-0.1595758348703384|-0.03122925758361816|0.1535133123397827|XArbitraryZVertical|0.06222310857852697|0.4029390804667026|-0.9106359660664328|0.0671623539393375|0.167449876666069|0.7255035638809204|-0.667536735534668|0|0|0|-1|-1|3
2021-04-22 21:46:05.082 +0100|140189.396698375|-0.083831787109375|0.8451385498046875|-0.5412445068359375|140189.376737375|-2.860952621873015|0.2525806446796499|-0.7987798423384699|0.4628260135650635|-0.6591481566429138|0.9761894345283508|-0.222118154168129|0.03218156099319458|0.1492783427238464|XArbitraryZVertical|0.06094916380432224|0.3981975914878625|-0.9118282396518779|0.07932965827190057|0.174328088760376|0.7165054678916931|-0.6754477620124817|0|0|0|-1|-1|3
2021-04-22 21:46:05.102 +0100|140189.416659375|-0.12164306640625|0.9091033935546875|-0.5354766845703125|140189.396698375|-2.841527730316789|0.2528115809789905|-0.784227736252152|0.5680522322654724|-0.7116563320159912|0.6916415095329285|-0.2542672753334045|0.1174816489219666|0.1415612697601318|XArbitraryZVertical|0.0585291764912479|0.3922484905091891|-0.9136330510236439|0.08938866769012266|0.1770735234022141|0.7062786817550659|-0.6854309439659119|0|0|0|-1|-1|3
2021-04-22 21:46:05.122 +0100|140189.436619375|-0.178558349609375|0.99749755859375|-0.519805908203125|140189.416659375|-2.831254182805883|0.2451004036285973|-0.7728690465831146|0.3291124701499939|-0.8007000684738159|0.3157958388328552|-0.2852749228477478|0.1941107511520386|0.1557866930961609|XArbitraryZVertical|0.05405861190747488|0.3870666414545036|-0.9153872551169981|0.09655863057575199|0.1737183779478073|0.6981921195983887|-0.6945141553878784|0|0|0|-1|-1|3
2021-04-22 21:46:05.143 +0100|140189.456580375|-0.23284912109375|1.020477294921875|-0.567779541015625|140189.436619375|-2.828682450599607|0.2301423735626643|-0.7693770127137372|0.01473546773195267|-0.8678158521652222|-0.04178610071539879|-0.3262342810630798|0.2817283868789673|0.191957414150238|XArbitraryZVertical|0.0470390884239057|0.3848183660597299|-0.9162525122986234|0.1009132546253223|0.1638659089803696|0.6956878304481506|-0.6994042992591858|0|0|0|-1|-1|3
2021-04-22 21:46:05.162 +0100|140189.476541375|-0.222259521484375|0.8973541259765625|-0.5968780517578125|140189.456580375|-2.832402825656868|0.2098757803010192|-0.7707466485582015|-0.1183901280164719|-0.907276451587677|-0.208442822098732|-0.3736570179462433|0.3268725872039795|0.1459536552429199|XArbitraryZVertical|0.0383421827163072|0.3843246412293522|-0.9166330499851679|0.1029970659949269|0.1494600474834442|0.6966710686683655|-0.7016488909721375|0|0|0|-1|-1|3
2021-04-22 21:46:05.182 +0100|140189.496501375|-0.1368560791015625|0.6889495849609375|-0.6273345947265625|140189.476541375|-2.838465737971126|0.1886371262712203|-0.7760170981868777|-0.3284194767475128|-0.8028151392936707|-0.331971675157547|-0.3689572811126709|0.2423364520072937|0.1168344616889954|XArbitraryZVertical|0.02930834837017576|0.3855085727903483|-0.9163655297007689|0.1039155346785925|0.1338349729776382|0.700442373752594|-0.7010483145713806|0|0|0|-1|-1|3
2021-04-22 21:46:05.202 +0100|140189.516462375|-0.0733184814453125|0.6089630126953125|-0.6037139892578125|140189.516462375|-2.854337557063984|0.1462825097891244|-0.8131135035192212|-1.567170739173889|-0.7726295590400696|-0.4761948883533478|-0.1829668581485748|-0.1174528002738953|0.06931912899017334|XArbitraryZVertical|0.009977377118084085|0.3999379222606843|-0.910736446379473|0.1025153225703846|0.1001730486750603|0.7264304161071777|-0.6799002289772034|0|0|0|-1|-1|3
2021-04-22 21:46:05.222 +0100|140189.536423375|-0.0641937255859375|0.7136688232421875|-0.6031494140625||||||||||||||||||||||||3
2021-04-22 21:46:05.242 +0100|140189.556383375|-0.04541015625|0.7635040283203125|-0.6486053466796875|140189.536423375|-2.861540655490902|0.1255544249100846|-0.8507516695353465|-1.989722490310669|-0.7536736726760864|-0.5254137516021729|-0.1448767781257629|-0.06859517097473145|0.04527920484542847|XArbitraryZVertical|-0.0008956045909843675|0.4157949072172208|-0.9038048780729662|0.1012451471316673|0.08257552981376648|0.7517762780189514|-0.654227614402771|0|0|0|-1|-1|3
2021-04-22 21:46:05.262 +0100|140189.576344375|0.0157012939453125|0.8136138916015625|-0.66802978515625|140189.556383375|-2.87201364349929|0.1037609743747605|-0.8929284080761617|-2.06982946395874|-0.6272373795509338|-0.594740092754364|-0.1220380663871765|-0.009106218814849854|-0.0095100998878479|XArbitraryZVertical|-0.01159527236155545|0.4335724774386148|-0.8956045876107319|0.09885876137964056|0.06495531648397446|0.7789115905761719|-0.6237609386444092|0|0|0|-1|-1|3
2021-04-22 21:46:05.282 +0100|140189.596305375|0.0524749755859375|0.802490234375|-0.7022247314453125|140189.576344375|-2.88513563909279|0.08283866387997077|-0.9334368687503606|-1.842190027236938|-0.4187775552272797|-0.6085580587387085|-0.04890282824635506|-0.00697857141494751|-0.06254452466964722|XArbitraryZVertical|-0.02081477765324348|0.4506099655542019|-0.8873406549747427|0.09562426035038861|0.0492388941347599|0.8036698698997498|-0.5930348038673401|0|0|0|-1|-1|3
2021-04-22 21:46:05.302 +0100|140189.616265375|0.06744384765625|0.7268524169921875|-0.6652679443359375|140189.596305375|-2.904066536966542|0.06138560944420825|-0.965080332133101|-1.23249340057373|-0.2020046412944794|-0.7309306263923645|0.01489231362938881|-0.01102948188781738|-0.128911554813385|XArbitraryZVertical|-0.02796185372949173|0.4637659491005136|-0.8808523737132096|0.09076619264209562|0.03492800891399384|0.8220946788787842|-0.5682785511016846|0|0|0|-1|-1|3
2021-04-22 21:46:05.322 +0100|140189.636226375|0.08258056640625|0.81463623046875|-0.60406494140625|140189.616265375|-2.929943365483302|0.03784789963935802|-0.9868142345736349|-0.8571403026580811|0.005505726672708988|-0.8170109987258911|0.04282809048891068|-0.09465014934539795|-0.117883563041687|XArbitraryZVertical|-0.03344665862233914|0.4726557315979832|-0.8765873186343666|0.08409959845737545|0.02086248062551022|0.8342737555503845|-0.5509557723999023|0|0|0|-1|-1|3
2021-04-22 21:46:05.342 +0100|140189.656187375|0.080291748046875|0.9388885498046875|-0.543701171875|140189.636226375|-2.961562840143737|0.0134059278002269|-0.9989771303454851|-0.2389142364263535|0.1619110405445099|-0.9308565258979797|0.07007735967636108|-0.05260348320007324|-0.07918685674667358|XArbitraryZVertical|-0.03719569585876021|0.4775556117918849|-0.8745427463549375|0.07571162730339062|0.007254573050886393|0.8409178853034973|-0.5411142110824585|0|0|0|-1|-1|3
2021-04-22 21:46:05.362 +0100|140189.676147375|0.0846405029296875|0.98626708984375|-0.580413818359375|140189.656187375|-2.99672491801039|-0.01176081487964794|-0.9979530710404233|0.3966551125049591|0.268444150686264|-1.019007444381714|0.09087807685136795|0.07659792900085449|0.004372537136077881|XArbitraryZVertical|-0.03978052699819948|0.4768903761851804|-0.8755515571826556|0.06635205396173323|-0.006374492775648832|0.8403632640838623|-0.5419861674308777|0|0|0|-1|-1|3
2021-04-22 21:46:05.382 +0100|140189.696108375|0.0868072509765625|0.972503662109375|-0.575927734375|140189.676147375|-3.03416802915074|-0.03758269077252709|-0.9810162581439116|1.185853481292725|0.2604230642318726|-1.061528325080872|0.1038907319307327|0.1435152888298035|-0.02673476934432983|XArbitraryZVertical|-0.04183669989775317|0.469421904425194|-0.8801907801056821|0.05618698099212108|-0.02089775539934635|0.8310630321502686|-0.5557855367660522|0|0|0|-1|-1|3
2021-04-22 21:46:05.402 +0100|140189.716069375|0.093658447265625|0.915985107421875|-0.61517333984375|140189.696108375|-3.067878164813971|-0.06079000011448364|-0.9510982641525078|1.660309433937073|0.2186325937509537|-0.9866096377372742|0.1201847940683365|0.1548024415969849|0.003986597061157227|XArbitraryZVertical|-0.04386252154835652|0.4563087821187082|-0.8875147604236745|0.04664912953887965|-0.03528445586562157|0.8140538334846497|-0.5797167420387268|0|0|0|-1|-1|3
2021-04-22 21:46:05.422 +0100|140189.736029375|0.1005096435546875|0.77886962890625|-0.6430816650390625|140189.716069375|-3.095281451986372|-0.07883263696865522|-0.9135273907714265|1.975024938583374|0.1821035593748093|-0.9017128944396973|0.1403838396072388|0.1534041166305542|0.005085647106170654|XArbitraryZVertical|-0.0455607309972787|0.4397662521317865|-0.8961447762508478|0.0381390430873212|-0.04811349511146545|0.7916637659072876|-0.609059751033783|0|0|0|-1|-1|3
2021-04-22 21:46:05.441 +0100|140189.755990375|0.0982513427734375|0.617645263671875|-0.6367950439453125|140189.736029375|-3.115139026701418|-0.09162616880096941|-0.8733441992370035|1.832272171974182|0.07626895606517792|-0.6621719002723694|0.1600086838006973|0.05059605836868286|-0.0041046142578125|XArbitraryZVertical|-0.04708394991203682|0.4218965082716322|-0.9048781724559974|0.03133981666019457|-0.05876616016030312|0.7664811015129089|-0.6395728588104248|0|0|0|-1|-1|3
2021-04-22 21:46:05.462 +0100|140189.775951375|0.1019134521484375|0.49310302734375|-0.705841064453125|140189.755990375|-3.128558247426302|-0.1015797405341282|-0.8416244211908392|1.211605548858643|-0.05551230162382126|-0.5331874489784241|0.1659047901630402|-0.08769166469573975|0.03746640682220459|XArbitraryZVertical|-0.04899675329269907|0.4076644588765174|-0.911426005589448|0.02667930899867521|-0.06756141781806946|0.7457264065742493|-0.6628180146217346|0|0|0|-1|-1|3
2021-04-22 21:46:05.481 +0100|140189.795911375|0.088958740234375|0.5473480224609375|-0.7471466064453125|140189.775951375|-3.139308118981978|-0.1120446013351527|-0.8233857348260097|0.5308221578598022|-0.2077784240245819|-0.3606372177600861|0.1740098297595978|-0.2238237261772156|-0.01359272003173828|XArbitraryZVertical|-0.05177082409806162|0.3994746065786107|-0.9149808859807564|0.02345139291288303|-0.07600215822458267|0.7334514260292053|-0.6754796504974365|0|0|0|-1|-1|3
2021-04-22 21:46:05.501 +0100|140189.815872375|0.037261962890625|0.621795654296875|-0.8282470703125|140189.795911375|3.136704358313883|-0.1236535032625887|-0.8190241742300391|-0.1251398026943207|-0.4131909012794495|-0.1971978694200516|0.1826518476009369|-0.2056084871292114|-0.05586230754852295|XArbitraryZVertical|-0.0557070137389901|0.3975383630292652|-0.9156199881887948|0.02236352297400791|-0.08423219621181488|0.7304797768592834|-0.6777199506759644|0|0|0|-1|-1|3
2021-04-22 21:46:05.521 +0100|140189.835833375|0.02532958984375|0.671295166015625|-0.8734283447265625|140189.815872375|3.132145511338557|-0.1364566591072319|-0.8243039603371812|-0.3814219534397125|-0.5265102982521057|-0.04735397174954414|0.1393278241157532|-0.1297362446784973|-0.1368000507354736|XArbitraryZVertical|-0.06057798248487446|0.39994054551909|-0.914248058381702|0.0229915825633562|-0.09237607568502426|0.7340753078460693|-0.6727557182312012|0|0|0|-1|-1|3
2021-04-22 21:46:05.541 +0100|140189.855794375|-0.0149688720703125|0.7130126953125|-0.910186767578125|140189.835833375|3.130071465618899|-0.1495148934854214|-0.8331940689339615|-0.5605735778808594|-0.6271998286247253|0.03146165981888771|0.1265750080347061|-0.07895094156265259|-0.2065550088882446|XArbitraryZVertical|-0.06597422590170461|0.4039073697206205|-0.9120762090546916|0.0249688247056396|-0.1001768559217453|0.7400832176208496|-0.6650124788284302|0|0|0|-1|-1|3
2021-04-22 21:46:05.561 +0100|140189.875754375|-0.065948486328125|0.7834625244140625|-0.888824462890625|140189.855794375|3.129536700780439|-0.1630651975080878|-0.8450866010248674|-0.5565107464790344|-0.6795932650566101|0.1419307291507721|0.1062928065657616|-0.04813903570175171|-0.2475734353065491|XArbitraryZVertical|-0.07181427373708617|0.4091594404711851|-0.9092039870952867|0.02791784768274751|-0.1077419444918633|0.748028576374054|-0.6548625230789185|0|0|0|-1|-1|3
2021-04-22 21:46:05.581 +0100|140189.895715375|-0.0948486328125|0.7337799072265625|-0.8621978759765625|140189.875754375|3.134091406064025|-0.1733837469953782|-0.8546729758667415|-0.3120966851711273|-0.6941443085670471|0.2918685674667358|0.05764838308095932|0.01485395431518555|-0.2495267391204834|XArbitraryZVertical|-0.07724798110858604|0.413184497085992|-0.9067834172782822|0.03248354170694388|-0.1132509857416153|0.7543562650680542|-0.6466226577758789|0|0|0|-1|-1|3
2021-04-22 21:46:05.601 +0100|140189.915676375|-0.1117401123046875|0.5985870361328125|-0.8286590576171875|140189.895715375|-3.139555095524212|-0.1801073410148175|-0.8582654526361098|0.06008576974272728|-0.68125319480896|0.3956722617149353|0.0266561284661293|0.005328953266143799|-0.2276129722595215|XArbitraryZVertical|-0.082199714381279|0.4143127164941707|-0.9056038494034886|0.03834172629954082|-0.1171098276972771|0.7567097544670105|-0.6431763768196106|0|0|0|-1|-1|3
2021-04-22 21:46:05.621 +0100|140189.935636375|-0.1585540771484375|0.508758544921875|-0.8545379638671875|140189.915676375|-3.120955827665389|-0.1771002583726557|-0.852796782096224|0.1983566433191299|-0.6682335138320923|0.5161012411117554|0.007763877511024475|-0.1244007349014282|-0.1904850602149963|XArbitraryZVertical|-0.08476269336872677|0.4111211633821131|-0.9064684464288553|0.04593158079732026|-0.1159025207161903|0.7531232833862305|-0.6475893259048462|0|0|0|-1|-1|3
2021-04-22 21:46:05.641 +0100|140189.955597375|-0.1785430908203125|0.477752685546875|-0.8966827392578125|140189.935636375|-3.102558578136792|-0.1744324412103362|-0.8489832065360278|0.157598465681076|-0.5467872619628906|0.5501856803894043|-0.0350620299577713|-0.2215872406959534|-0.1911537647247314|XArbitraryZVertical|-0.08736695545608401|0.4086648330035972|-0.9069118165478705|0.05358443692024542|-0.1146721020340919|0.7506089210510254|-0.6507201194763184|0|0|0|-1|-1|3
2021-04-22 21:46:05.661 +0100|140189.975558375|-0.1325531005859375|0.5137481689453125|-0.8965301513671875|140189.955597375|-3.083953640436552|-0.169650909650509|-0.8499359454159504|-0.04665737226605415|-0.3636880218982697|0.6633380651473999|-0.06298430263996124|-0.2763394117355347|-0.2306247353553772|XArbitraryZVertical|-0.0889933640624945|0.4084143112416598|-0.9063929331371278|0.06107442821542852|-0.1114385724067688|0.7512381076812744|-0.6505558490753174|0|0|0|-1|-1|3
2021-04-22 21:46:05.681 +0100|140189.995518375|-0.120635986328125|0.5059356689453125|-0.8427276611328125|140189.975558375|-3.063737675447705|-0.1598195089757675|-0.8540662774367227|-0.09000987559556961|-0.2009786367416382|0.7175500988960266|-0.0534311905503273|-0.2509067058563232|-0.2641236186027527|XArbitraryZVertical|-0.08866848790072053|0.4097101210551274|-0.9053200885275227|0.06834589954887436|-0.1045427098870277|0.7539578676223755|-0.6485510468482971|0|0|0|-1|-1|3
2021-04-22 21:46:05.701 +0100|140190.015479375|-0.13714599609375|0.46173095703125|-0.743194580078125|140189.995518375|-3.042453642943236|-0.1472103091822284|-0.8569313467656942|-0.01874257996678352|-0.1594931781291962|0.7079343795776367|-0.01757693290710449|-0.2398462295532227|-0.2181519269943237|XArbitraryZVertical|-0.08733970360534837|0.4105272652135671|-0.9045134407254297|0.07546416261376103|-0.09603968262672424|0.7558369040489197|-0.6476782560348511|0|0|0|-1|-1|3
2021-04-22 21:46:05.721 +0100|140190.035440375|-0.085418701171875|0.5515899658203125|-0.6666107177734375|140190.015479375|-3.021798748880833|-0.1342400643959698|-0.8611430577506847|-0.2531297206878662|-0.1144141256809235|0.6948709487915039|-0.05613628774881363|-0.2948890924453735|-0.1266613006591797|XArbitraryZVertical|-0.08576791733270814|0.4120551103509398|-0.9033795706832142|0.0822189952355548|-0.0872044563293457|0.7585878372192383|-0.6457089185714722|0|0|0|-1|-1|3
2021-04-22 21:46:05.741 +0100|140190.055400375|-0.1286773681640625|0.57928466796875|-0.667938232421875|140190.035440375|-3.002897336548059|-0.1229425955247841|-0.86910151127286|-0.3765222430229187|-0.2189862430095673|0.5782949328422546|-0.01634315401315689|-0.2378861904144287|-0.04597485065460205|XArbitraryZVertical|-0.08470613484639206|0.4153365149632782|-0.9013780452230299|0.08853448040001526|-0.07916129380464554|0.7637492418289185|-0.640640914440155|0|0|0|-1|-1|3
2021-04-22 21:46:05.761 +0100|140190.075361375|-0.1999664306640625|0.578857421875|-0.722015380859375|140190.055400375|-2.992415140169923|-0.1212892113585226|-0.869213146930537|-0.276886373758316|-0.2995837330818176|0.2885120213031769|-0.03248850256204605|-0.1868260502815247|-0.01519834995269775|XArbitraryZVertical|-0.08613933208676708|0.4150143529681328|-0.9009494631315493|0.09291574088524128|-0.07809163630008698|0.7638213038444519|-0.6406862139701843|0|0|0|-1|-1|3
2021-04-22 21:46:05.781 +0100|140190.095322375|-0.2963104248046875|0.4593353271484375|-0.819793701171875|140190.075361375|-2.988349257048287|-0.1237573772883554|-0.8663634847704048|-0.1062977984547615|-0.2206519395112991|0.01782574318349361|-0.1016534715890884|-0.1810163855552673|-0.05553305149078369|XArbitraryZVertical|-0.08803256229930166|0.4134317824202105|-0.9012528656245526|0.09522504555825427|-0.07994107902050018|0.7619789838790894|-0.6426488757133484|0|0|0|-1|-1|3
2021-04-22 21:46:05.801 +0100|140190.115282375|-0.39068603515625|0.2223052978515625|-0.9031829833984375|140190.095322375|-2.996257303309112|-0.1341880828739133|-0.8653984162930802|-0.6171557903289795|-0.1127647757530212|-0.4061703681945801|-0.176399290561676|-0.2495133876800537|-0.151010274887085|XArbitraryZVertical|-0.091080046779968|0.41285609208026|-0.9013631026336809|0.09380284933565033|-0.0867382287979126|0.761353611946106|-0.6425085663795471|0|0|0|-1|-1|3
2021-04-22 21:46:05.821 +0100|140190.135243375|-0.423065185546875|0.37628173828125|-0.8876953125|140190.115282375|-3.021470445935629|-0.1532430612411329|-0.8805477691586259|-1.623198986053467|0.1822724044322968|-0.8312915563583374|-0.2750602662563324|-0.4994513988494873|-0.2512724995613098|XArbitraryZVertical|-0.0946286854688405|0.4200140685463143|-0.8983961841388912|0.08670574880421882|-0.09719283133745193|0.7710877656936646|-0.6292672157287598|0|0|0|-1|-1|3
2021-04-22 21:46:05.841 +0100|140190.155204375|-0.3998260498046875|0.886871337890625|-0.739227294921875|140190.135243375|-3.06150887492557|-0.1782110916478439|-0.9187902431108419|-2.482376575469971|0.5007622838020325|-0.9651381969451904|-0.3076885044574738|-0.5114519000053406|-0.3099939823150635|XArbitraryZVertical|-0.09737722260015902|0.4380998910139613|-0.8904698919566036|0.07516448557105242|-0.1075638607144356|0.7948681712150574|-0.5971723198890686|0|0|0|-1|-1|3
2021-04-22 21:46:05.861 +0100|140190.175164375|-0.2321624755859375|1.27508544921875|-0.5334930419921875|140190.155204375|-3.108685057146475|-0.2036214629975074|-0.9653326391668275|-2.481959581375122|0.762093722820282|-0.8587521314620972|-0.2981780469417572|-0.0707891583442688|-0.2402838468551636|XArbitraryZVertical|-0.09760903792163639|0.4601953684045555|-0.8802785428979089|0.06166470259051016|-0.1150906607508659|0.8222382664680481|-0.5573853850364685|0|0|0|-1|-1|3
2021-04-22 21:46:05.881 +0100|140190.195125375|0.0604705810546875|1.20892333984375|-0.4328460693359375|140190.175164375|3.129427010462125|-0.2231467616245738|-1.00262503084218|-1.63474714756012|1.084683179855347|-0.8998222351074219|-0.1721342206001282|0.3552638292312622|-0.02330058813095093|XArbitraryZVertical|-0.09473479745226247|0.4781738627559431|-0.8718092281147259|0.04820626663539272|-0.1190793886780739|0.8428863883018494|-0.5247501730918884|0|0|0|-1|-1|3
2021-04-22 21:46:05.901 +0100|140190.215086375|0.077606201171875|1.050201416015625|-0.1590118408203125|140190.195125375|3.081176696076244|-0.2413892935587172|-1.017430756285772|-0.2959169745445251|1.081944823265076|-1.196939587593079|0.1284578591585159|0.4188160300254822|0.05619847774505615|XArbitraryZVertical|-0.09050375837558775|0.4864679075423838|-0.8683930563801318|0.03242876507994988|-0.12563456594944|0.8507605791091919|-0.5103160738945007|0|0|0|-1|-1|3
2021-04-22 21:46:05.921 +0100|140190.235046375|-0.2069549560546875|0.99041748046875|-0.4262237548828125|140190.215086375|3.036304459045586|-0.2590944622346399|-1.011359124712566|-0.04095186293125153|1.031991004943848|-1.369124174118042|0.2303161174058914|0.263087272644043|0.2647648453712463|XArbitraryZVertical|-0.08758491698667473|0.4856243532345159|-0.8696059528085944|0.01684234341758031|-0.1359706223011017|0.8475539088249207|-0.512995719909668|0|0|0|-1|-1|3
2021-04-22 21:46:05.941 +0100|140190.255007375|-0.2650604248046875|1.565277099609375|-0.345306396484375|140190.235046375|2.993942108749127|-0.2767490014986521|-1.008053667860172|-0.1234381198883057|0.9856318831443787|-0.7878504395484924|0.03787589073181152|0.0189659595489502|0.06403374671936035|XArbitraryZVertical|-0.08517013817173195|0.4859447191234373|-0.8698264091971248|0.002465438417616555|-0.1457703411579132|0.8457950353622437|-0.5132075548171997|0|0|0|-1|-1|3
2021-04-22 21:46:05.961 +0100|140190.274968375|-0.15631103515625|1.161300659179688|-0.2990570068359375|140190.255007375|2.970238368767524|-0.2719908268839744|-0.9990741638325926|0.6448588371276855|1.438487529754639|-0.6673306822776794|-0.1570674329996109|0.6620352268218994|0.189615786075592|XArbitraryZVertical|-0.07796084866079968|0.4830394319175582|-0.8720669411244937|-0.009716715988864961|-0.1453612744808197|0.8409703969955444|-0.5211900472640991|0|0|0|-1|-1|3
2021-04-22 21:46:05.981 +0100|140190.294929375|-0.16156005859375|1.027694702148438|-0.2689056396484375|140190.274968375|2.958831097892332|-0.252343799358313|-0.9785473406909402|0.9105449914932251|1.461002707481384|-0.4896431565284729|-0.02811996638774872|0.443261444568634|0.1975156664848328|XArbitraryZVertical|-0.06806310781923235|0.4744394474651566|-0.8774013509816722|-0.02101207172576814|-0.139375239610672|0.8296873569488525|-0.5405492186546326|0|0|0|-1|-1|3
2021-04-22 21:46:06.000 +0100|140190.314889375|-0.2448577880859375|1.11956787109375|-0.189422607421875|140190.294929375|2.94848719132013|-0.2316397782344539|-0.9651080663373917|0.2234856933355331|1.433587908744812|-0.3906155526638031|-0.0266910195350647|0.1834738850593567|0.2837966680526733|XArbitraryZVertical|-0.05745336272500023|0.4686555586103117|-0.8809496920854143|-0.03144719061263879|-0.1307028532028198|0.8221104741096497|-0.5541221499443054|0|0|0|-1|-1|3
2021-04-22 21:46:06.020 +0100|140190.334850375|-0.2553863525390625|1.142684936523438|-0.09466552734375|140190.314889375|2.938064574549819|-0.2122315780488821|-0.9642540892197202|-0.2331098616123199|1.40744149684906|-0.2531475126743317|-0.09745650738477707|0.2844548225402832|0.3379555940628052|XArbitraryZVertical|-0.04651980421299506|0.4682047732816398|-0.8814579958974503|-0.04064643801935506|-0.120072215795517|0.8216239809989929|-0.55724036693573|0|0|0|-1|-1|3
2021-04-22 21:46:06.040 +0100|140190.354811375|-0.225128173828125|1.2056884765625|-0.1037139892578125|140190.334850375|2.927996261726905|-0.1921860804134872|-0.9689047596035723|-0.2709296047687531|1.405842542648315|-0.2159417420625687|-0.1562865674495697|0.3033885955810547|0.4315711259841919|XArbitraryZVertical|-0.03500611626768321|0.4699844354645472|-0.8805921676902119|-0.04946486712601843|-0.1081476584076881|0.8242660760879517|-0.5557783842086792|0|0|0|-1|-1|3
2021-04-22 21:46:06.060 +0100|140190.374771375|-0.275421142578125|1.2762451171875|-0.132537841796875|140190.354811375|2.920720759598703|-0.1710840125819696|-0.9696809907459988|0.1734362542629242|1.300871849060059|-0.1569049656391144|-0.1344248354434967|0.3581556677818298|0.4617242813110352|XArbitraryZVertical|-0.0239522472584975|0.4698651436792702|-0.8805329547743014|-0.05757603873654438|-0.09628743678331375|0.8247053623199463|-0.5573060512542725|0|0|0|-1|-1|3
2021-04-22 21:46:06.080 +0100|140190.394732375|-0.3336334228515625|1.167098999023438|-0.1371307373046875|140190.374771375|2.918428910838468|-0.1481673393081188|-0.960168517320248|0.7509897351264954|1.191053867340088|-0.1279532909393311|-0.1685577034950256|0.4573532938957214|0.4382079839706421|XArbitraryZVertical|-0.01395399639108408|0.4650327116624921|-0.8828291143003499|-0.06452019711573857|-0.08464599400758743|0.8192881941795349|-0.5670997500419617|0|0|0|-1|-1|3
2021-04-22 21:46:06.100 +0100|140190.414693375|-0.30889892578125|0.990447998046875|-0.1414794921875|140190.394732375|2.91766761715681|-0.12526694091783|-0.9412228224506793|1.079070448875427|1.166877031326294|-0.1580215394496918|-0.2551397085189819|0.4001864790916443|0.4562714099884033|XArbitraryZVertical|-0.004876884460234418|0.4559418364827114|-0.8871449701673553|-0.07118390437158877|-0.07356444746255875|0.8082786798477173|-0.5841864943504333|0|0|0|-1|-1|3
2021-04-22 21:46:06.120 +0100|140190.434653375|-0.260498046875|0.888641357421875|-0.1905059814453125|140190.414693375|2.917739386287984|-0.1030109580845983|-0.9204722254074252|0.8779202699661255|1.050808906555176|-0.07962118834257126|-0.2561015188694|0.2383221387863159|0.4556127190589905|XArbitraryZVertical|0.003706585933983333|0.4459470469788243|-0.8917148485505237|-0.07721500072497267|-0.06225716695189476|0.7958875894546509|-0.602234959602356|0|0|0|-1|-1|3
2021-04-22 21:46:06.140 +0100|140190.454614375|-0.221038818359375|0.916473388671875|-0.2420196533203125|140190.434653375|2.918283109306762|-0.08285542995334889|-0.9084261473821411|0.3449947535991669|0.9044870138168335|0.007776126731187105|-0.2231656312942505|0.1193454265594482|0.4369891285896301|XArbitraryZVertical|0.01186062823602851|0.4397958853970138|-0.8942695309148797|-0.08198118286777498|-0.0508967787027359|0.7885368466377258|-0.6128777861595154|0|0|0|-1|-1|3
2021-04-22 21:46:06.160 +0100|140190.474575375|-0.188018798828125|0.9294586181640625|-0.2929534912109375|140190.454614375|2.919365131623206|-0.06541967714633791|-0.9055894725545687|-0.03622906655073166|0.7637091279029846|0.03475705534219742|-0.1878142952919006|0.114913284778595|0.3942061066627502|XArbitraryZVertical|0.01925717873001443|0.4378108363586531|-0.8947911352679926|-0.08543869394874616|-0.04034966602921486|0.7867891192436218|-0.6159016489982605|0|0|0|-1|-1|3
2021-04-22 21:46:06.180 +0100|140190.494535375|-0.1192169189453125|0.916961669921875|-0.31207275390625|140190.494535375|2.92108556944497|-0.03982787915991705|-0.9031584780893154|0.3845658302307129|0.4277006089687347|-0.04208783432841301|-0.1110434532165527|0.1359932422637939|0.3060191869735718|XArbitraryZVertical|0.03019851351750515|0.4356226341698398|-0.8950749439166883|-0.09034436252898773|-0.02465223334729671|0.7852863669395447|-0.6186419129371643|0|0|0|-1|-1|3
2021-04-22 21:46:06.200 +0100|140190.514496375|-0.0410614013671875|0.8026123046875|-0.3591766357421875||||||||||||||||||||||||3
2021-04-22 21:46:06.220 +0100|140190.534457375|0.0927581787109375|0.64190673828125|-0.3917999267578125|140190.514496375|2.917760243525855|-0.0354686195333573|-0.8891538842430138|1.009448170661926|0.2702557742595673|-0.2019703537225723|-0.04082764685153961|0.06930112838745117|0.2808413505554199|XArbitraryZVertical|0.03211509849023669|0.4291061539448717|-0.8978554932262182|-0.09323152174485967|-0.02234300412237644|0.7765389084815979|-0.6296730637550354|0|0|0|-1|-1|3
2021-04-22 21:46:06.240 +0100|140190.554417375|0.21044921875|0.5925445556640625|-0.5557098388671875|140190.534457375|2.910843764763541|-0.03777599628996935|-0.8663993067921334|1.119709134101868|0.008447666652500629|-0.3298557698726654|0.07713103294372559|-0.09316408634185791|0.2754689455032349|XArbitraryZVertical|0.03128728191636602|0.4188851911552123|-0.902345154341969|-0.09659068191086247|-0.02445695735514164|0.762002170085907|-0.6471126079559326|0|0|0|-1|-1|3
2021-04-22 21:46:06.260 +0100|140190.574378375|0.2306671142578125|0.566436767578125|-0.6488800048828125|140190.554417375|2.900056079950414|-0.04885799921755003|-0.8466091101658629|0.7857410907745361|-0.311838686466217|-0.4575517177581787|0.2256864607334137|-0.1516112089157104|0.1458361148834229|XArbitraryZVertical|0.02736502376569361|0.4103449307225504|-0.9060346823552426|-0.09984793457317183|-0.0323568657040596|0.7490381598472595|-0.6617363691329956|0|0|0|-1|-1|3
2021-04-22 21:46:06.280 +0100|140190.594339375|0.23382568359375|0.571929931640625|-0.7364349365234375|140190.574378375|2.886383634565235|-0.06789120659451792|-0.8354337850152203|0.2726798951625824|-0.5553056001663208|-0.4957640767097473|0.2766205966472626|-0.1634325385093689|0.009031772613525391|XArbitraryZVertical|0.02082711836778271|0.4060922214266229|-0.90781613925451|-0.1025932499617555|-0.04551025480031967|0.7415875792503357|-0.6693106889724731|0|0|0|-1|-1|3
2021-04-22 21:46:06.300 +0100|140190.614299375|0.2173919677734375|0.7291412353515625|-0.7874603271484375|140190.594339375|2.869781239737343|-0.09254088557887109|-0.8376490883543516|-0.5747383832931519|-0.6542340517044067|-0.6020929217338562|0.2960642278194427|-0.1654966473579407|-0.00253671407699585|XArbitraryZVertical|0.01317565803974698|0.408230719635182|-0.9067235761701824|-0.1050073368949843|-0.06184108182787895|0.7430719137191772|-0.6663481593132019|0|0|0|-1|-1|3
2021-04-22 21:46:06.320 +0100|140190.634260375|0.13507080078125|0.869232177734375|-0.8773040771484375|140190.614299375|2.849397219394021|-0.1209666760119385|-0.853465534874824|-1.030959129333496|-0.6373672485351562|-0.6141901612281799|0.3107880651950836|-0.094551682472229|-0.1420301795005798|XArbitraryZVertical|0.005705005582962557|0.4167511819826475|-0.9026203277392669|-0.1075289770157216|-0.07932674884796143|0.7535631060600281|-0.6525717973709106|0|0|0|-1|-1|3
2021-04-22 21:46:06.340 +0100|140190.654221375|0.1218414306640625|0.7057647705078125|-0.9156494140625|140190.634260375|2.828017453829034|-0.149425388831534|-0.8702450056729228|-0.8352299928665161|-0.5401630401611328|-0.4884645044803619|0.2485560476779938|0.1037225723266602|-0.2715106606483459|XArbitraryZVertical|-0.001222258924495589|0.4257587144174129|-0.8981097426218025|-0.1101233944233639|-0.09596743434667587|0.7644869089126587|-0.6374560594558716|0|0|0|-1|-1|3
2021-04-22 21:46:06.360 +0100|140190.674181375|0.033966064453125|0.76513671875|-0.8738861083984375|140190.654221375|2.812493863952706|-0.1716558309258937|-0.884597857120891|-0.850177526473999|-0.5750921368598938|-0.2448186725378036|0.2364024817943573|-0.04012483358383179|-0.2780859470367432|XArbitraryZVertical|-0.006572318447745007|0.4333731966928719|-0.8942907814798805|-0.1113045420932341|-0.10822793841362|0.7736602425575256|-0.6242889761924744|0|0|0|-1|-1|3
2021-04-22 21:46:06.380 +0100|140190.694142375|0.0073394775390625|0.707672119140625|-0.940093994140625|140190.674181375|2.803973935038159|-0.1889505020907024|-0.8999339839898947|-0.7149308323860168|-0.4776471257209778|-0.1196271851658821|0.1732543408870697|-0.04839241504669189|-0.2579182386398315|XArbitraryZVertical|-0.0109901959499045|0.4411128063986973|-0.8905968259133004|-0.1101644955722833|-0.1167656034231186|0.7832858562469482|-0.6105974316596985|0|0|0|-1|-1|3
2021-04-22 21:46:06.400 +0100|140190.714103375|-0.00506591796875|0.6381072998046875|-0.9669342041015625|140190.694142375|2.798506552147879|-0.2014738432705466|-0.909489260498066|-0.3394873142242432|-0.3287924528121948|-0.04319846630096436|0.1362364441156387|-0.06314682960510254|-0.3312729001045227|XArbitraryZVertical|-0.01442205916618147|0.4460143591292678|-0.8882401591813718|-0.1090537118116785|-0.1228995472192764|0.7891901731491089|-0.6017264127731323|0|0|0|-1|-1|3
2021-04-22 21:46:06.420 +0100|140190.734064375|-0.0208740234375|0.5789031982421875|-0.9398193359375|140190.714103375|2.796065077780307|-0.2081171936003659|-0.9141424838220202|-0.1610764861106873|-0.1555406302213669|-0.001079949084669352|0.127691239118576|-0.1409624814987183|-0.3646175861358643|XArbitraryZVertical|-0.01636552523380295|0.4484234822789094|-0.8870890011139639|-0.1082668485985686|-0.1261341422796249|0.7920393943786621|-0.5972970724105835|0|0|0|-1|-1|3
2021-04-22 21:46:06.440 +0100|140190.754024375|-0.039764404296875|0.5265655517578125|-0.9362945556640625|140190.734064375|2.796187593315881|-0.2094467486237787|-0.9162741461428792|-0.05499660968780518|0.01881034672260284|0.04908264055848122|0.1073209792375565|-0.1975445151329041|-0.3495012521743774|XArbitraryZVertical|-0.01677077826913591|0.4494225676543849|-0.8866405260776385|-0.107735548773155|-0.1265768706798553|0.7933388948440552|-0.5954762101173401|0|0|0|-1|-1|3
2021-04-22 21:46:06.460 +0100|140190.773985375|-0.0417327880859375|0.5113677978515625|-0.88336181640625|140190.754024375|2.798783445691038|-0.2060898647718112|-0.9176889901272681|-0.05505071952939034|0.1085731461644173|0.1455812156200409|0.09111443907022476|-0.2621716260910034|-0.346822202205658|XArbitraryZVertical|-0.01572631938440972|0.4498372274612126|-0.8865115912072501|-0.1072212817320983|-0.1243473738431931|0.7941994667053223|-0.5947983264923096|0|0|0|-1|-1|3
2021-04-22 21:46:06.479 +0100|140190.793946375|-0.0025787353515625|0.4483795166015625|-0.805572509765625|140190.773985375|2.804688929578602|-0.1980006718797664|-0.9184748051232791|0.09198386967182159|0.2101817429065704|0.2036203742027283|0.07317571341991425|-0.2729332447052002|-0.3023041486740112|XArbitraryZVertical|-0.01339177723686251|0.4497046816117931|-0.8867212033917432|-0.1063582385424929|-0.1194091439247131|0.7946767210960388|-0.5951727032661438|0|0|0|-1|-1|3
2021-04-22 21:46:06.499 +0100|140190.813906375|0.0189971923828125|0.4053497314453125|-0.766937255859375|140190.793946375|2.812353085356287|-0.187303738637521|-0.9148424415521581|0.3066100776195526|0.2422244697809219|0.189923107624054|0.1021750420331955|-0.3291948437690735|-0.2268940806388855|XArbitraryZVertical|-0.0107099465647031|0.4475056786335484|-0.8879545272104901|-0.1056441876401909|-0.1135726422071457|0.7924665212631226|-0.599247932434082|0|0|0|-1|-1|3
2021-04-22 21:46:06.519 +0100|140190.833867375|-0.018280029296875|0.5565948486328125|-0.7248077392578125|140190.813906375|2.819965657042688|-0.1765851435499191|-0.9100098278391856|0.252741664648056|0.2035612314939499|0.2067560702562332|0.1260648965835571|-0.3821767568588257|-0.1692440509796143|XArbitraryZVertical|-0.008090705586048234|0.4447892464032394|-0.8894202510389471|-0.1050189582579449|-0.107814684510231|0.7895097732543945|-0.6041941046714783|0|0|0|-1|-1|3
2021-04-22 21:46:06.539 +0100|140190.853828375|-0.040618896484375|0.6721649169921875|-0.7063751220703125|140190.833867375|2.828539251494396|-0.1659620058477852|-0.905846581087898|0.3752210438251495|0.1796638816595078|0.2227887362241745|0.09494457393884659|-0.2675389647483826|-0.1117347478866577|XArbitraryZVertical|-0.005636044317490081|0.4423769138203247|-0.8907771862993398|-0.1038610665712438|-0.1019323989748955|0.7869477868080139|-0.6085417866706848|0|0|0|-1|-1|3
2021-04-22 21:46:06.559 +0100|140190.873788375|-0.0613250732421875|0.6855621337890625|-0.72808837890625|140190.853828375|2.84043297845061|-0.1527439102834843|-0.8864071483474748|0.8783960938453674|0.1518692821264267|0.2249916195869446|0.05723466724157333|-0.1316325068473816|-0.08838748931884766|XArbitraryZVertical|-0.004003326039876054|0.4330868727612529|-0.8954649468557127|-0.102773804065619|-0.09618964791297913|0.7748053669929504|-0.6248394846916199|0|0|0|-1|-1|3
2021-04-22 21:46:06.579 +0100|140190.893749375|-0.098236083984375|0.63873291015625|-0.698028564453125|140190.873788375|2.850994786338622|-0.1409345601685734|-0.8587484399863275|1.136744379997253|0.1271782517433167|0.06239933893084526|0.04000770300626755|-0.06317818164825439|-0.06920355558395386|XArbitraryZVertical|-0.003217095695851426|0.42016188491231|-0.9016569009753128|-0.1023160731714382|-0.09178005903959274|0.757025420665741|-0.6469072699546814|0|0|0|-1|-1|3
2021-04-22 21:46:06.599 +0100|140190.913710375|-0.084625244140625|0.6002655029296875|-0.6245269775390625|140190.893749375|2.856411208166425|-0.1339798895939681|-0.8372743850527046|1.036256551742554|0.1689478158950806|-0.01124115101993084|-0.007584579288959503|-0.09684067964553833|-0.05410081148147583|XArbitraryZVertical|-0.002898902513332405|0.4101786466806135|-0.9062100412907905|-0.1026090193395297|-0.08943008631467819|0.7428210973739624|-0.6634901762008667|0|0|0|-1|-1|3
2021-04-22 21:46:06.619 +0100|140190.933670375|-0.1378936767578125|0.670013427734375|-0.5914764404296875|140190.913710375|2.858179295357111|-0.1294152796186872|-0.8202715626824338|0.6502835750579834|0.1373710334300995|-0.0755736231803894|0.004965111613273621|-0.1203238368034363|0.0407138466835022|XArbitraryZVertical|-0.002508939723434086|0.4022860734804687|-0.9096158089557157|-0.1037242406048891|-0.08801797777414322|0.7313310503959656|-0.6763192415237427|0|0|0|-1|-1|3
2021-04-22 21:46:06.639 +0100|140190.953631375|-0.230865478515625|0.8389892578125|-0.59259033203125|140190.933670375|2.856968739699494|-0.1283660009917595|-0.810524261788365|0.4027361571788788|0.05617476254701614|-0.1231490448117256|-0.02948889881372452|-0.08199453353881836|0.09516096115112305|XArbitraryZVertical|-0.002544204011654603|0.3978304459754768|-0.9114222703786902|-0.1050434814231223|-0.08821667730808258|0.7246485352516174|-0.6834489107131958|0|0|0|-1|-1|3
2021-04-22 21:46:06.659 +0100|140190.973592375|-0.2891845703125|0.9449920654296875|-0.604583740234375|140190.953631375|2.854704727859359|-0.1297043561399485|-0.8020076439521023|0.4437403380870819|-0.03289316967129707|-0.1550196260213852|-0.1224905997514725|0.0750083327293396|0.09300416707992554|XArbitraryZVertical|-0.003369604879743702|0.3940509286970253|-0.9129146742100227|-0.1062983852700578|-0.08992628008127213|0.7187533974647522|-0.6894250512123108|0|0|0|-1|-1|3
2021-04-22 21:46:06.679 +0100|140190.993552375|-0.3441009521484375|0.9418487548828125|-0.630126953125|140190.973592375|2.850535126957003|-0.1341149200773674|-0.7927662269212925|0.4536499679088593|-0.1031621620059013|-0.2442812472581863|-0.1808681786060333|0.2242559790611267|0.1030755043029785|XArbitraryZVertical|-0.005295857007436314|0.3901083119499182|-0.914412866110615|-0.1078740668982188|-0.09385033696889877|0.7122975587844849|-0.695574939250946|0|0|0|-1|-1|3
2021-04-22 21:46:06.699 +0100|140191.013513375|-0.373870849609375|0.91986083984375|-0.664520263671875|140190.993552375|2.845160437030956|-0.1401463716189109|-0.784843072528408|0.2384009957313538|-0.09034266322851181|-0.24935482442379|-0.2330029606819153|0.2423515915870667|0.08285582065582275|XArbitraryZVertical|-0.007648385871849545|0.386859366100978|-0.9155667855170966|-0.1096315493569358|-0.09882920235395432|0.7067141532897949|-0.7005626559257507|0|0|0|-1|-1|3
2021-04-22 21:46:06.719 +0100|140191.033474375|-0.387603759765625|0.9595489501953125|-0.6568603515625|140191.013513375|2.840003217096942|-0.1455541756884949|-0.781547627762552|-0.003021625569090247|-0.0876278355717659|-0.1534849405288696|-0.2591674029827118|0.2062957286834717|0.04498445987701416|XArbitraryZVertical|-0.009399014268384047|0.3856844057720241|-0.9158630498272419|-0.1111492207349273|-0.1029534637928009|0.7043787837028503|-0.7023183703422546|0|0|0|-1|-1|3
2021-04-22 21:46:06.739 +0100|140191.053434375|-0.3532867431640625|0.9267578125|-0.5631866455078125|140191.033474375|2.835169576922381|-0.1497048888647042|-0.7825986542512333|-0.1368006020784378|-0.009844254702329636|-0.1707305908203125|-0.2953650951385498|0.2531117796897888|0.03184050321578979|XArbitraryZVertical|-0.01027827748863142|0.3864169603578427|-0.915380338337602|-0.1124952522493433|-0.1057572141289711|0.7051244378089905|-0.7011525630950928|0|0|0|-1|-1|3
2021-04-22 21:46:06.759 +0100|140191.073395375|-0.363311767578125|0.83636474609375|-0.6255645751953125|140191.053434375|2.830317095392727|-0.1537849503558013|-0.7843854607887136|-0.1428506970405579|-0.04590851441025734|-0.2013710588216782|-0.2406659424304962|0.2162166237831116|0.1193446516990662|XArbitraryZVertical|-0.01105401299268254|0.3874832136271825|-0.9147576746966196|-0.1138119310307795|-0.1084239110350609|0.7063903212547302|-0.6994691491127014|0|0|0|-1|-1|3
2021-04-22 21:46:06.779 +0100|140191.093356375|-0.374542236328125|0.9355010986328125|-0.5663604736328125|140191.073395375|2.825070405295146|-0.1593996454712728|-0.7863586595944096|-0.1488154828548431|-0.1529817581176758|-0.02299288287758827|-0.250694751739502|0.1397480964660645|0.06327009201049805|XArbitraryZVertical|-0.01243174687645266|0.3887281202148672|-0.9140639599318987|-0.1149919454114467|-0.1121280267834663|0.7077856063842773|-0.6974717974662781|0|0|0|-1|-1|3
2021-04-22 21:46:06.799 +0100|140191.113317375|-0.34954833984375|0.890838623046875|-0.618988037109375|140191.093356375|2.823651778424275|-0.1628680597972104|-0.7897301749220654|-0.1068267822265625|-0.1038465946912766|-0.06327692419290543|-0.26512810587883|0.2173112034797668|0.1542226076126099|XArbitraryZVertical|-0.01344344659714169|0.3904603014809399|-0.9133429187233981|-0.114738855628392|-0.1141588911414146|0.7101633548736572|-0.6947200298309326|0|0|0|-1|-1|3
2021-04-22 21:46:06.819 +0100|140191.133277375|-0.411865234375|0.8300933837890625|-0.684112548828125|140191.113317375|2.822496188323947|-0.166093766022882|-0.7891736205169587|0.1229127570986748|-0.1310663968324661|-0.06360121071338654|-0.228474885225296|0.1975462436676025|0.09355622529983521|XArbitraryZVertical|-0.01474025640066494|0.3904021321054993|-0.9133557328177981|-0.1146745426022955|-0.1164645701646805|0.7097713947296143|-0.6947377920150757|0|0|0|-1|-1|3
2021-04-22 21:46:06.839 +0100|140191.153238375|-0.5084228515625|0.8208770751953125|-0.737060546875|140191.133277375|2.820622945143626|-0.1704935202885007|-0.7856262139737819|0.193026527762413|-0.1752942055463791|-0.1377069503068924|-0.2650319635868073|0.1268685460090637|0.02918410301208496|XArbitraryZVertical|-0.01670156793266503|0.3890671287722254|-0.9138610656165242|-0.1149168419670528|-0.1199465543031693|0.7072679996490479|-0.6966956257820129|0|0|0|-1|-1|3
2021-04-22 21:46:06.859 +0100|140191.1732002917|-0.4751739501953125|0.7425079345703125|-0.7113037109375|140191.153238375|2.81658833684582|-0.1761200423191197|-0.7804822768129315|0.2821856141090393|-0.05219059437513351|-0.2271832078695297|-0.3642226159572601|0.1197263598442078|-0.02821660041809082|XArbitraryZVertical|-0.01895517740229189|0.387103976381641|-0.9145100025869558|-0.1160295753697571|-0.1245004162192345|0.7036222219467163|-0.6995823979377747|0|0|0|-1|-1|3
2021-04-22 21:46:06.879 +0100|140191.1931602917|-0.466552734375|0.5464324951171875|-0.7686920166015625|140191.1732002917|2.809597624711853|-0.1797562832237634|-0.7726110206519485|0.3949652016162872|0.1659713536500931|-0.3907698392868042|-0.3674224615097046|0.07588750123977661|-0.01547980308532715|XArbitraryZVertical|-0.01999528251476045|0.3838279957947071|-0.9154748807801398|-0.1190889455983522|-0.1280297040939331|0.698007345199585|-0.7045525312423706|0|0|0|-1|-1|3
2021-04-22 21:46:06.899 +0100|140191.2131212917|-0.63525390625|0.356781005859375|-0.833892822265625|140191.1931602917|2.796864935880258|-0.1845129861236248|-0.7618940490194027|0.4229192435741425|0.2066017091274261|-0.7262742519378662|-0.3158327043056488|-0.08142203092575073|-0.04191064834594727|XArbitraryZVertical|-0.02075737921355474|0.3794006680597932|-0.9165428062279889|-0.1247947157421307|-0.1327444463968277|0.6902930736541748|-0.711248517036438|0|0|0|-1|-1|3
2021-04-22 21:46:06.919 +0100|140191.2330822917|-0.703338623046875|0.33154296875|-0.8351287841796875|140191.2131212917|2.773381610725409|-0.1937800914930742|-0.75453129999418|-0.06723029166460037|0.5625719428062439|-1.103053331375122|-0.4576253294944763|-0.2942768931388855|-0.1039228439331055|XArbitraryZVertical|-0.02129354333371552|0.376919915067831|-0.9162016338983376|-0.1343607181021868|-0.1403048187494278|0.6849472522735596|-0.7149559259414673|0|0|0|-1|-1|3
2021-04-22 21:46:06.939 +0100|140191.2530422917|-0.6783447265625|0.3933868408203125|-0.830535888671875|140191.2330822917|2.737309368464071|-0.2030394706486948|-0.7559065867722894|-0.5309353470802307|0.9776139855384827|-1.453621387481689|-0.5492544770240784|-0.3632561564445496|-0.1411338448524475|XArbitraryZVertical|-0.01856910535497466|0.3785548988271569|-0.9133183030092498|-0.1490003741173384|-0.1467286497354507|0.6859486103057861|-0.712702751159668|0|0|0|-1|-1|3
2021-04-22 21:46:06.959 +0100|140191.2730032917|-0.58935546875|0.37237548828125|-0.8891143798828125|140191.2530422917|2.690489774299787|-0.2120600160591991|-0.7599325056357944|-0.476233959197998|1.316879153251648|-1.781784415245056|-0.5395077466964722|-0.3136898279190063|-0.1138502955436707|XArbitraryZVertical|-0.01331255673591552|0.3814451477924431|-0.9088498160632553|-0.1682690903009005|-0.1525690853595734|0.6888725161552429|-0.7086447477340698|0|0|0|-1|-1|3
2021-04-22 21:46:06.979 +0100|140191.2929642917|-0.4555511474609375|0.3062591552734375|-0.8706207275390625|140191.2730032917|2.636254054339988|-0.2200485608619951|-0.7558643664458997|0.06611183285713196|1.609062194824219|-2.161522626876831|-0.461265504360199|-0.2945760488510132|-0.167187511920929|XArbitraryZVertical|-0.007125099113195604|0.3806350399559849|-0.9046064747657458|-0.1917122292284097|-0.1588356047868729|0.6859179139137268|-0.7101324200630188|0|0|0|-1|-1|3
2021-04-22 21:46:06.999 +0100|140191.3129242917|-0.4229888916015625|0.2613983154296875|-0.7468719482421875|140191.2929642917|2.575881897117807|-0.2275791430339973|-0.7398340777520029|0.4632126986980438|1.713451862335205|-2.502066135406494|-0.3205128908157349|-0.3543109893798828|-0.1883161664009094|XArbitraryZVertical|-0.0014047067021668|0.3744726648621868|-0.9009749299829504|-0.2191176367264943|-0.1666383445262909|0.6741653680801392|-0.7195364832878113|0|0|0|-1|-1|3
2021-04-22 21:46:07.019 +0100|140191.3328852917|-0.442718505859375|0.4265289306640625|-0.7204742431640625|140191.3129242917|2.507175318231633|-0.2397117224207366|-0.7168850040947153|0.5037353038787842|1.64882755279541|-2.988853454589844|-0.2452720105648041|-0.386181116104126|-0.03239405155181885|XArbitraryZVertical|0.002256436440055857|0.3658477450277269|-0.8964258408415393|-0.2501422131865393|-0.1789824664592743|0.6570395827293396|-0.7323006987571716|0|0|0|-1|-1|3
2021-04-22 21:46:07.038 +0100|140191.3528462917|-0.592498779296875|0.8148651123046875|-0.8018646240234375|140191.3328852917|2.428722319816891|-0.2581095688663375|-0.6952855476376528|0.1344902813434601|1.601496338844299|-3.31929087638855|-0.2387662529945374|-0.2908276915550232|0.03087103366851807|XArbitraryZVertical|0.004494887244217961|0.3588349269040828|-0.889057035510839|-0.2842447985438521|-0.1960014998912811|0.6406047344207764|-0.742434561252594|0|0|0|-1|-1|3
2021-04-22 21:46:07.058 +0100|140191.3728062917|-0.6092376708984375|0.9640655517578125|-0.7381744384765625|140191.3528462917|2.343665497210528|-0.2800494488408872|-0.6765445218437753|-0.09230630099773407|1.615535140037537|-3.512167453765869|-0.3373326361179352|0.1064566373825073|-0.04676413536071777|XArbitraryZVertical|0.006334566696468115|0.3539464723159353|-0.878728836298165|-0.3201834127870568|-0.2155228406190872|0.6261023879051208|-0.7493635416030884|0|0|0|-1|-1|3
2021-04-22 21:46:07.078 +0100|140191.3927672917|-0.461883544921875|1.286880493164062|-0.5641632080078125|140191.3728062917|2.254953861804785|-0.3014202672600901|-0.6573331945858006|0.08616415411233902|1.669485330581665|-3.742113590240479|-0.4005736708641052|0.3313901424407959|-0.005463898181915283|XArbitraryZVertical|0.008517534976069732|0.3492277799179207|-0.866076799549697|-0.3576012802213945|-0.2350149303674698|0.6110079288482666|-0.7559348344802856|0|0|0|-1|-1|3
2021-04-22 21:46:07.098 +0100|140191.4127282917|-0.5164031982421875|1.969009399414062|-0.5339508056640625|140191.3927672917|2.165656822683032|-0.3221567966605814|-0.6286560386981077|0.45830899477005|1.591641187667847|-3.941518783569336|-0.2361496686935425|0.5734407305717468|0.1982539296150208|XArbitraryZVertical|0.00835275870335188|0.3410657719176181|-0.8523840295542885|-0.3962902985665276|-0.2560825943946838|0.5880582928657532|-0.7672087550163269|0|0|0|-1|-1|3
2021-04-22 21:46:07.118 +0100|140191.4326882917|-0.24163818359375|2.434127807617188|-0.332489013671875|140191.4127282917|2.080977848533951|-0.3411130907929398|-0.5907054345977564|0.8669056296348572|1.419433116912842|-3.786952018737793|-0.2069985866546631|1.228270292282104|0.2537632584571838|XArbitraryZVertical|0.00501173330132559|0.3295872403479335|-0.8383126361988776|-0.4342571567383264|-0.2778484225273132|0.5569470524787903|-0.7826942801475525|0|0|0|-1|-1|3
2021-04-22 21:46:07.138 +0100|140191.4526492917|0.8970794677734375|2.577545166015625|-0.1180267333984375|140191.4326882917|2.009778127351689|-0.3502284478132247|-0.5533536052442301|0.5513503551483154|1.558880567550659|-3.048205852508545|-0.1241059303283691|1.862289428710938|0.3937552571296692|XArbitraryZVertical|0.00275657004693584|0.3169103169820272|-0.8250988065869604|-0.4677309699365386|-0.2919086515903473|0.5255433320999146|-0.7991204857826233|0|0|0|-1|-1|3
2021-04-22 21:46:07.158 +0100|140191.4726102917|1.916152954101562|3.056793212890625|-0.1110382080078125|140191.4526492917|1.958575303445515|-0.3467742865592193|-0.5317339928685199|0.03170992061495781|1.35023295879364|-1.752712965011597|0.8916962146759033|1.997671127319336|0.6845077872276306|XArbitraryZVertical|0.006137011241103375|0.3076546267736739|-0.8142016981057071|-0.4923278144057442|-0.2929403185844421|0.5070286989212036|-0.8106219172477722|0|0|0|-1|-1|3
2021-04-22 21:46:07.178 +0100|140191.4925712917|2.5576171875|3.3795166015625|0.08099365234375|140191.4726102917|1.935759260265862|-0.3373794249122298|-0.5261398392907336|-0.1758576333522797|0.7585892677307129|-0.2699165642261505|1.990577697753906|2.46365213394165|0.7035139799118042|XArbitraryZVertical|0.01183387410572386|0.3030824102331353|-0.8088147879433546|-0.5038053582901643|-0.28624626994133|0.5021989941596985|-0.8160020112991333|0|0|0|-1|-1|3
2021-04-22 21:46:07.198 +0100|140191.5125312917|2.378204345703125|3.819915771484375|-0.041168212890625|140191.4925712917|1.942341073746167|-0.3251760651079509|-0.5325393098097747|-0.1060534864664078|0.180984765291214|0.9288260936737061|2.686429738998413|2.7129807472229|0.8207359910011292|XArbitraryZVertical|0.01761309768926375|0.3024957427112325|-0.809987415055451|-0.5021023090338312|-0.2752348482608795|0.5077226161956787|-0.8163722157478333|0|0|0|-1|-1|3
2021-04-22 21:46:07.218 +0100|140191.5324922917|1.246017456054688|3.625457763671875|-0.245361328125|140191.5125312917|1.983569271180326|-0.3156144816808583|-0.5307082714140211|1.472968935966492|-1.281693696975708|2.433526515960693|2.863866567611694|3.328633785247803|0.8444458246231079|XArbitraryZVertical|0.01478599232097723|0.2997614647743927|-0.82022404262806|-0.4869877753984651|-0.2677046954631805|0.5061443448066711|-0.819848895072937|0|0|0|-1|-1|3
2021-04-22 21:46:07.238 +0100|140191.5524532917|0.1255950927734375|3.73291015625|-0.3496246337890625|140191.5324922917|2.06273381804703|-0.3083358938092286|-0.5119997464106658|2.337476015090942|-1.919723153114319|3.498774528503418|1.759569406509399|3.147804498672485|0.5973925590515137|XArbitraryZVertical|0.001060036733533721|0.2909843678495588|-0.8401676091678874|-0.4576520776183609|-0.2645579874515533|0.4899215400218964|-0.830653965473175|0|0|0|-1|-1|3
2021-04-22 21:46:07.258 +0100|140191.5724132917|-1.171417236328125|3.994140625|-0.31768798828125|140191.5524532917|2.168667535483784|-0.3031306499201435|-0.4890239707392793|2.492291212081909|-2.560648441314697|4.681397438049316|0.7146031260490417|3.273903131484985|0.5186589956283569|XArbitraryZVertical|-0.01762342963481656|0.2800325535302756|-0.864953341010094|-0.4160854154324533|-0.263521820306778|0.4697644710540771|-0.8425423502922058|0|0|0|-1|-1|3
2021-04-22 21:46:07.278 +0100|140191.5923742917|-2.657257080078125|4.595809936523438|-0.5274200439453125|140191.5724132917|2.290796826485735|-0.2966528654463931|-0.4780648272287675|1.887971043586731|-2.377138376235962|5.321146488189697|-0.6022064685821533|3.399892807006836|0.5751017928123474|XArbitraryZVertical|-0.0341494089798963|0.2725466692236532|-0.8896985912965029|-0.3646761767235596|-0.2595479190349579|0.4600618183612823|-0.8491042852401733|0|0|0|-1|-1|3
2021-04-22 21:46:07.298 +0100|140191.6123352917|-4.535629272460938|3.47216796875|-0.219451904296875|140191.5923742917|2.427326838788157|-0.2760670450271504|-0.4696940330940415|2.348350286483765|-1.84042751789093|6.275421142578125|-1.991913318634033|4.113243103027344|0.3524487018585205|XArbitraryZVertical|-0.04480132508919246|0.2627198347613341|-0.9137112914042033|-0.3067619668139552|-0.2430558651685715|0.4526134729385376|-0.8579422831535339|0|0|0|-1|-1|3
2021-04-22 21:46:07.318 +0100|140191.6322952917|-5.516357421875|3.162582397460938|-0.62298583984375|140191.6123352917|2.592644251538687|-0.2215453600491366|-0.4756600208388948|0.1131369918584824|0.1214523613452911|8.35506534576416|-3.854871273040771|3.246969223022461|0.5933061838150024|XArbitraryZVertical|-0.03994874940874649|0.2545047081229349|-0.9367985111734829|-0.2367278618537282|-0.1953445672988892|0.4579252898693085|-0.8672628998756409|0|0|0|-1|-1|3
2021-04-22 21:46:07.338 +0100|140191.6522562917|-5.943313598632812|3.325225830078125|-0.7905120849609375|140191.6322952917|2.809029256186568|-0.08934169990687744|-0.5333575892784398|-2.780994415283203|2.320697784423828|11.53377628326416|-5.457409858703613|2.81743860244751|0.3841745853424072|XArbitraryZVertical|0.00109160122443193|0.2667649814943882|-0.9523449031411477|-0.1479006526603225|-0.07683026790618896|0.5084274411201477|-0.8576704859733582|0|0|0|-1|-1|3
2021-04-22 21:46:07.358 +0100|140191.6722172917|-6.081100463867188|2.41448974609375|-0.91943359375|140191.6522562917|3.120904732408346|0.1343205627775485|-0.6120979473449771|-5.411607265472412|2.940033435821533|14.19380664825439|-5.892485618591309|2.778746128082275|0.07599496841430664|XArbitraryZVertical|0.06709736413662989|0.2999362989426568|-0.9511218644998649|-0.03005954709740037|0.1096036434173584|0.5745857954025269|-0.8110723495483398|0|0|0|-1|-1|3
2021-04-22 21:46:07.378 +0100|140191.6921772917|-5.338638305664062|2.125442504882812|-0.3697662353515625|140191.6722172917|-2.756156582969159|0.4245722471166936|-0.6588072702107446|-8.107988357543945|1.4169762134552|15.72980403900146|-6.381112098693848|1.870307922363281|-0.2693651914596558|XArbitraryZVertical|0.1351121992188924|0.3485474721956202|-0.920923744554096|0.1102680507497379|0.3257233798503876|0.6121741533279419|-0.7205187082290649|0|0|0|-1|-1|3
2021-04-22 21:46:07.398 +0100|140191.7121382917|-4.523452758789062|-0.888153076171875|-0.4958038330078125|140191.6921772917|-2.315938943511634|0.6918158764185879|-0.6310798137548438|-7.947846412658691|-1.504203915596008|14.95439720153809|-6.097583770751953|1.857888698577881|0.09501349925994873|XArbitraryZVertical|0.1781046095298105|0.3967333711488608|-0.8614030749674692|0.26242374755677|0.5150642395019531|0.5900169610977173|-0.621762752532959|0|0|0|-1|-1|3
2021-04-22 21:46:07.418 +0100|140191.7320992917|-3.885986328125|-1.943008422851562|-1.600051879882812|140191.7121382917|-1.971929387966152|0.8211044686031488|-0.5467834119434044|-5.511140823364258|-4.027868747711182|11.00876140594482|-5.196722507476807|-0.5756680965423584|0.266862690448761|XArbitraryZVertical|0.1837564289007918|0.4185707396887181|-0.795613038242636|0.397532666557502|0.6251891255378723|0.5199422836303711|-0.5820642113685608|0|0|0|-1|-1|3
2021-04-22 21:46:07.438 +0100|140191.7520592917|-4.601028442382812|-0.74932861328125|-0.0582122802734375|140191.7320992917|-1.787489022733306|0.8181638808853127|-0.44106345987645|1.221277117729187|-4.434073448181152|7.928884983062744|-4.607489109039307|-2.672309160232544|-0.9142507314682007|XArbitraryZVertical|0.1767830229437939|0.3995942372293455|-0.7523032847333024|0.4930640975420728|0.660040020942688|0.4269014000892639|-0.6181443929672241|0|0|0|-1|-1|3
2021-04-22 21:46:07.458 +0100|140191.7720202917|-3.626861572265625|-2.320556640625|0.0205078125|140191.7520592917|-1.748172275342449|0.7582854002934308|-0.2936511577922|5.213537216186523|-2.871654272079468|4.93086576461792|-5.028159618377686|-1.138921737670898|0.1097322106361389|XArbitraryZVertical|0.1936027573456607|0.3391887572250192|-0.7395708732137879|0.5481823779837705|0.6582404971122742|0.289449006319046|-0.6949379444122314|0|0|0|-1|-1|3
2021-04-22 21:46:07.477 +0100|140191.7919812917|-2.50408935546875|-2.915252685546875|-0.5221710205078125|140191.7720202917|-1.767216302455243|0.7030756255045943|-0.1750089668770714|3.465744018554688|-2.345673084259033|1.919168472290039|-4.460589408874512|-1.990600228309631|0.6821579933166504|XArbitraryZVertical|0.2131204879667097|0.2810291152595011|-0.7420706546592094|0.5700295496868563|0.6366907358169556|0.1741169691085815|-0.7512046098709106|0|0|0|-1|-1|3
2021-04-22 21:46:07.497 +0100|140191.8119412917|-2.210494995117188|-1.4661865234375|-1.0450439453125|140191.7919812917|-1.760192858018824|0.6504224440927546|-0.1435669196037586|-1.113850831985474|-3.103260040283203|0.5681537389755249|-3.439656257629395|-3.35823917388916|0.3816341757774353|XArbitraryZVertical|0.2023460344726421|0.2554129704823447|-0.7431155940609347|0.5844653266651682|0.599293053150177|0.143074244260788|-0.7876405715942383|0|0|0|-1|-1|3
2021-04-22 21:46:07.517 +0100|140191.8319022917|-1.883010864257812|-0.7029266357421875|-0.9992218017578125|140191.8119412917|-1.749027154528598|0.5849390666024934|-0.1730857677842821|-1.469436883926392|-3.473159790039062|-1.352037906646729|-2.749572277069092|-1.928586363792419|-0.1502702236175537|XArbitraryZVertical|0.1672959941082512|0.2477258232247393|-0.7478849454521441|0.5927159348513541|0.5438984036445618|0.1722228229045868|-0.8212879300117493|0|0|0|-1|-1|3
2021-04-22 21:46:07.537 +0100|140191.8518632917|-1.426651000976562|-0.1615447998046875|-0.8779449462890625|140191.8319022917|-1.775568440889396|0.5128641349259516|-0.2175993406127931|-1.104975581169128|-3.291422605514526|-3.110725879669189|-2.498727321624756|-1.055059194564819|-0.2402392625808716|XArbitraryZVertical|0.1292812478263025|0.2406008388775689|-0.7632567132052309|0.5855227048997395|0.479104071855545|0.2158862054347992|-0.8507952094078064|0|0|0|-1|-1|3
2021-04-22 21:46:07.558 +0100|140191.8718242917|-1.288864135742188|0.7393341064453125|-1.351394653320312|140191.8518632917|-1.830182082587413|0.4349442142428606|-0.2743423518289535|-1.755483627319336|-3.293948888778687|-4.103464603424072|-1.925531029701233|-0.6175485849380493|-0.009544134140014648|XArbitraryZVertical|0.08800044299814765|0.2361491647992966|-0.7846677971045332|0.5663798121777855|0.4056024551391602|0.2709139287471771|-0.8729789853096008|0|0|0|-1|-1|3
2021-04-22 21:46:07.577 +0100|140191.8917842917|-1.266021728515625|1.551162719726562|-1.898529052734375|140191.8718242917|-1.897132163421016|0.3487279371815371|-0.3499587344228822|-2.822041273117065|-3.21441650390625|-4.567150592803955|-1.619407653808594|0.160268247127533|-0.3049469590187073|XArbitraryZVertical|0.03888701205599823|0.2388850960938864|-0.8056422893756308|0.5407053126458872|0.3209909200668335|0.3428590297698975|-0.8828434348106384|0|0|0|-1|-1|3
2021-04-22 21:46:07.597 +0100|140191.9117452917|-0.87152099609375|1.758987426757812|-1.976821899414062|140191.8917842917|-1.970082828750477|0.2606368054430664|-0.4448954729356464|-4.079436779022217|-2.716111183166504|-4.722611904144287|-1.528173923492432|0.9847053289413452|-0.9192433953285217|XArbitraryZVertical|-0.01531120908401908|0.2523506190382536|-0.8217203489639374|0.5107452045693319|0.232610672712326|0.4303635358810425|-0.8721694350242615|0|0|0|-1|-1|3
2021-04-22 21:46:07.617 +0100|140191.9317062917|-0.592041015625|1.93243408203125|-1.9429931640625|140191.9117452917|-2.050160229479151|0.1750774897057937|-0.5454580703998613|-4.254487991333008|-2.098166942596436|-4.211923122406006|-1.129408240318298|1.201114416122437|-1.157889485359192|XArbitraryZVertical|-0.06730434328760856|0.273055977307848|-0.8322344345259745|0.4778040147356249|0.1489084959030151|0.5188097357749939|-0.8418211340904236|0|0|0|-1|-1|3
2021-04-22 21:46:07.638 +0100|140191.9516662917|-0.3325653076171875|2.089950561523438|-1.87713623046875|140191.9317062917|-2.132463891338364|0.09334037141049063|-0.63577639919449|-3.648631572723389|-1.41846227645874|-3.825244426727295|-0.7170534133911133|1.29206109046936|-1.137322902679443|XArbitraryZVertical|-0.1121423717788689|0.2947369654196085|-0.8376701816633635|0.4459405317044751|0.07499367743730545|0.5938023924827576|-0.8011084198951721|0|0|0|-1|-1|3
2021-04-22 21:46:07.657 +0100|140191.9716272917|0.0846099853515625|2.162002563476562|-1.915679931640625|140191.9516662917|-2.221309641027183|0.01885418947678717|-0.6958123189466312|-1.927573204040527|-0.4942505061626434|-3.533599376678467|-0.4260460734367371|1.42960786819458|-1.174269437789917|XArbitraryZVertical|-0.1434513878290652|0.3093917796437584|-0.8436995148044016|0.4145716044079647|0.01447036024183035|0.6410091519355774|-0.767396867275238|0|0|0|-1|-1|3
2021-04-22 21:46:07.677 +0100|140191.9915882917|0.5224609375|2.101226806640625|-1.925918579101562|140191.9915882917|-2.374939594569281|-0.06564022599288616|-0.7078828105362418|0.7633246183395386|0.8759273290634155|-2.35796856880188|0.4887982606887817|1.460047841072083|-1.202589869499207|XArbitraryZVertical|-0.1581066861836268|0.3097582787965103|-0.8652160391325321|0.3611835025691157|-0.04983372241258621|0.6502267122268677|-0.758104145526886|0|0|0|-1|-1|3
2021-04-22 21:46:07.697 +0100|140192.0115482917|0.5964202880859375|1.903549194335938|-1.821075439453125||||||||||||||||||||||||3
2021-04-22 21:46:07.716 +0100|140192.0315092917|0.5373382568359375|1.403182983398438|-1.355087280273438|140192.0115482917|-2.431380059172618|-0.08197085914059005|-0.6883901440894563|0.7496379613876343|1.222489476203918|-2.153192043304443|0.6721344590187073|1.348667502403259|-1.089210629463196|XArbitraryZVertical|-0.1533899612563998|0.3027096732645019|-0.8770679337373437|0.3399859639028374|-0.06323274970054626|0.6352947354316711|-0.7696767449378967|0|0|0|-1|-1|3
2021-04-22 21:46:07.736 +0100|140192.0514702917|0.5361328125|0.9730224609375|-0.88922119140625|140192.0315092917|-2.486724042854886|-0.08925762882998303|-0.6733092669298689|0.2934872806072235|1.472211956977844|-2.289259672164917|0.6126847267150879|0.9180945158004761|-0.7297883629798889|XArbitraryZVertical|-0.1460059907553517|0.298926501117205|-0.888088553506055|0.3172131797285839|-0.06968564540147781|0.6235764622688293|-0.7786504030227661|0|0|0|-1|-1|3
2021-04-22 21:46:07.756 +0100|140192.0714302917|0.52679443359375|1.068161010742188|-0.942352294921875|140192.0514702917|-2.546555079306206|-0.09666969796834085|-0.6699507277020692|-0.363233745098114|1.434401988983154|-2.414422750473022|0.606097936630249|0.4307790994644165|-0.2223867774009705|XArbitraryZVertical|-0.139884803745894|0.300559401923243|-0.8972163042989517|0.291717798398713|-0.07565680146217346|0.6209473609924316|-0.7801925539970398|0|0|0|-1|-1|3
2021-04-22 21:46:07.776 +0100|140192.0913912917|0.500335693359375|1.279617309570312|-1.263427734375|140192.0714302917|-2.610102321365279|-0.109544446387076|-0.675877828821517|-0.6338827013969421|1.317950248718262|-2.451491832733154|0.6225988268852234|0.3538327217102051|-0.1181039810180664|XArbitraryZVertical|-0.1367775518605591|0.3058610313436416|-0.904190626535373|0.2649157219963771|-0.08529116958379745|0.6255823969841003|-0.7754818797111511|0|0|0|-1|-1|3
2021-04-22 21:46:07.797 +0100|140192.1113522917|0.6083221435546875|0.86566162109375|-1.317459106445312|140192.1113522917|-2.7435925964884|-0.1195656986090522|-0.6550910146301413|1.142084121704102|2.210855960845947|-2.891826868057251|0.6866910457611084|0.3819634318351746|-0.5537341237068176|XArbitraryZVertical|-0.1189412831209447|0.3036239438339106|-0.922690781099903|0.2056871705633912|-0.09458895027637482|0.6092314124107361|-0.7873309254646301|0|0|0|-1|-1|3
2021-04-22 21:46:07.816 +0100|140192.1313122917|0.547943115234375|0.4861602783203125|-1.14739990234375||||||||||||||||||||||||3
2021-04-22 21:46:07.837 +0100|140192.1512732917|0.3232269287109375|0.3078460693359375|-0.907379150390625|140192.1313122917|-2.810844162452839|-0.1153736774820366|-0.623651670414086|1.302941083908081|2.202799558639526|-2.830557107925415|0.6718316078186035|-0.02707356214523315|-0.3775906562805176|XArbitraryZVertical|-0.1045471344215971|0.2930743211821875|-0.9343163785270373|0.1738690364024525|-0.09344710409641266|0.5840032696723938|-0.8063547015190125|0|0|0|-1|-1|3
2021-04-22 21:46:07.856 +0100|140192.1712334167|0.1495513916015625|0.144073486328125|-0.680633544921875|140192.1512732917|-2.875212936653247|-0.1099576784155346|-0.5954465273628919|0.8134275674819946|2.05633544921875|-2.727395534515381|0.4781339466571808|-0.2141690850257874|-0.1431667804718018|XArbitraryZVertical|-0.09096462375901163|0.2833307470975158|-0.9439674996839681|0.1427393125874218|-0.09085042774677277|0.5608785152435303|-0.822898268699646|0|0|0|-1|-1|3
2021-04-22 21:46:07.876 +0100|140192.1911944167|0.1000823974609375|0.08721923828125|-0.4765625|140192.1712334167|-2.935939110224632|-0.1024174413053344|-0.5794022388357387|0.3414393961429596|2.081182718276978|-2.472246885299683|0.2631342113018036|-0.3669979572296143|0.1099162697792053|XArbitraryZVertical|-0.07807818779238158|0.2787492809757138|-0.9505169537243238|0.1127843749379036|-0.0855521559715271|0.5475238561630249|-0.8324052691459656|0|0|0|-1|-1|3
2021-04-22 21:46:07.896 +0100|140192.2111544167|0.0643463134765625|0.014312744140625|-0.357666015625|140192.1911944167|-2.990421183296222|-0.09045133728725634|-0.5678232985856417|0.4125856459140778|2.037688255310059|-2.194160938262939|0.1825683414936066|-0.4472380876541138|0.329433798789978|XArbitraryZVertical|-0.06440718556009581|0.2757500952314699|-0.9552911603116759|0.08504445418112418|-0.07615319639444351|0.5377982258796692|-0.839627206325531|0|0|0|-1|-1|3
2021-04-22 21:46:07.916 +0100|140192.2311154167|0.0259552001953125|-0.0021209716796875|-0.3663330078125|140192.2111544167|-3.038019189911909|-0.07735487910760892|-0.5547993197434332|0.5217586159706116|1.823724746704102|-1.941919803619385|0.1411416977643967|-0.4880161881446838|0.469717264175415|XArbitraryZVertical|-0.05130484611465069|0.2713588613031545|-0.9592151074559722|0.06032269089604196|-0.06568657606840134|0.5267727375030518|-0.847464382648468|0|0|0|-1|-1|3
2021-04-22 21:46:07.936 +0100|140192.2510764167|0.0223388671875|0.192718505859375|-0.43121337890625|140192.2311154167|-3.079053855689979|-0.06384390323402814|-0.5414938287092347|0.5777220726013184|1.702646017074585|-1.674272656440735|0.09027242660522461|-0.5318053960800171|0.5052329897880554|XArbitraryZVertical|-0.03909623588981923|0.2662227601669247|-0.9623429161377458|0.03864198923871327|-0.0546732172369957|0.51541668176651|-0.8551938533782959|0|0|0|-1|-1|3
2021-04-22 21:46:07.956 +0100|140192.2710364167|-0.0617218017578125|0.3684539794921875|-0.5724639892578125|140192.2510764167|-3.113781669304624|-0.04892397791517532|-0.5289962939290096|0.5114397406578064|1.561625838279724|-1.428370952606201|0.06994563341140747|-0.3759751915931702|0.4645602703094482|XArbitraryZVertical|-0.02724069170218341|0.2609931022684649|-0.9647529703186065|0.0198111841520335|-0.04221991077065468|0.5046671032905579|-0.8622810840606689|0|0|0|-1|-1|3
2021-04-22 21:46:07.976 +0100|140192.2909974167|-0.2528228759765625|0.436920166015625|-0.6503448486328125|140192.2710364167|3.138317910076796|-0.03472806521893931|-0.5159389892638302|0.7180293798446655|1.392566919326782|-1.311038255691528|0.004689285531640053|-0.1551263034343719|0.3242762684822083|XArbitraryZVertical|-0.01637092968413256|0.2551064327749741|-0.9667702534263571|0.002846691579450718|-0.03020143695175648|0.4933518171310425|-0.8693053722381592|0|0|0|-1|-1|3
2021-04-22 21:46:07.996 +0100|140192.3109584167|-0.61669921875|0.390594482421875|-0.712982177734375|140192.2909974167|3.109072728078802|-0.02492291015516331|-0.4991985922295234|0.9601790904998779|0.9644471406936646|-1.358831882476807|-0.1671308279037476|-0.04940155148506165|0.2643358707427979|XArbitraryZVertical|-0.00805740529606944|0.2471601642921981|-0.9688583187833141|-0.01267649116626493|-0.02187921479344368|0.478722095489502|-0.8776938915252686|0|0|0|-1|-1|3
2021-04-22 21:46:08.016 +0100|140192.3309184167|-0.915069580078125|0.382568359375|-0.73687744140625|140192.3109584167|3.076122294124313|-0.02609796246784238|-0.4760567980073481|1.100576281547546|0.5243425369262695|-1.664706349372864|-0.4931175708770752|-0.05414971709251404|0.1436175107955933|XArbitraryZVertical|-0.004957411274540299|0.2360557173923132|-0.9713021148404011|-0.02872876925956369|-0.0231934692710638|0.4582780003547668|-0.8885062336921692|0|0|0|-1|-1|3
2021-04-22 21:46:08.036 +0100|140192.3508794167|-0.8691558837890625|0.420135498046875|-0.8728790283203125|140192.3309184167|3.031628616846279|-0.03532522326145584|-0.4588400953623086|0.4058014750480652|0.6191806197166443|-2.387088537216187|-0.8489649891853333|-0.05728909373283386|0.1625476479530334|XArbitraryZVertical|-0.004677571354504114|0.2279788809087759|-0.972396018389311|-0.04949566752345894|-0.03166483715176582|0.4429084658622742|-0.8960074782371521|0|0|0|-1|-1|3
2021-04-22 21:46:08.056 +0100|140192.3708404167|-0.8488922119140625|0.4993438720703125|-0.9565887451171875|140192.3508794167|2.968834899599946|-0.04980653021636335|-0.4568861922043495|-0.4545570313930511|0.6747973561286926|-3.238984346389771|-0.847501277923584|-0.04039967060089111|0.0669867992401123|XArbitraryZVertical|-0.004632241236483891|0.2276394422741936|-0.9705744018010443|-0.07838613945303258|-0.0446794219315052|0.4411558210849762|-0.8963176608085632|0|0|0|-1|-1|3
2021-04-22 21:46:08.076 +0100|140192.3908014167|-0.82525634765625|0.60845947265625|-0.9496612548828125|140192.3708404167|2.889553886163221|-0.07269302945708719|-0.470971906172133|-1.290858030319214|0.6311125755310059|-3.762939929962158|-0.7760825753211975|0.02985882759094238|-0.06253528594970703|XArbitraryZVertical|-0.005750237291823751|0.2357536674147855|-0.965118580120306|-0.1137255189973547|-0.06472174078226089|0.4537525773048401|-0.8887742757797241|0|0|0|-1|-1|3
2021-04-22 21:46:08.096 +0100|140192.4107614167|-0.7071990966796875|0.733306884765625|-1.000457763671875|140192.3908014167|2.796489191905802|-0.1019641789876341|-0.4945015023502892|-1.729283332824707|0.767423689365387|-4.263755321502686|-0.7515764832496643|0.1036688387393951|-0.0816115140914917|XArbitraryZVertical|-0.006710164659336767|0.2492751132413533|-0.9560908086399424|-0.1539723209187676|-0.08959399163722992|0.474592924118042|-0.8756337761878967|0|0|0|-1|-1|3
2021-04-22 21:46:08.116 +0100|140192.4307224167|-0.731414794921875|0.9688720703125|-0.8991546630859375|140192.4107614167|2.689216669068244|-0.136400960240012|-0.5161986428599923|-1.501334667205811|0.9706658720970154|-4.727751731872559|-0.6211641430854797|0.1945169568061829|-0.1333106756210327|XArbitraryZVertical|-0.007103142159375132|0.2629403989554924|-0.9439594033550168|-0.19938071403733|-0.1182606443762779|0.4935776591300964|-0.8616237640380859|0|0|0|-1|-1|3
2021-04-22 21:46:08.136 +0100|140192.4506834167|-0.7101287841796875|0.898681640625|-0.6933746337890625|140192.4307224167|2.574693330186374|-0.1731855965748511|-0.5255921377295951|-0.9048115611076355|1.10082471370697|-4.932428359985352|-0.5639646053314209|0.4190659523010254|-0.09011316299438477|XArbitraryZVertical|-0.007802064658729118|0.2718375618229182|-0.9299434084819437|-0.2474851228735419|-0.14906245470047|0.5017253160476685|-0.8520869612693787|0|0|0|-1|-1|3
2021-04-22 21:46:08.162 +0100|140192.4706434167|-0.610015869140625|0.59698486328125|-0.5775299072265625|140192.4506834167|2.461272268477855|-0.2059051830405272|-0.5153070096368297|0.008958321996033192|1.271155953407288|-4.916858196258545|-0.5582255125045776|0.4606431424617767|0.08316004276275635|XArbitraryZVertical|-0.009119227414445864|0.2720963007740265|-0.915493500152653|-0.2962298904423851|-0.1779032945632935|0.4928020238876343|-0.8517608642578125|0|0|0|-1|-1|3
2021-04-22 21:46:08.176 +0100|140192.4906044167|-0.618255615234375|0.52947998046875|-0.502288818359375|140192.4706434167|2.354455565961754|-0.2318472882652789|-0.488925282123977|0.2721332311630249|1.190964460372925|-4.772335052490234|-0.4282171726226807|0.1921571791172028|0.2700591087341309|XArbitraryZVertical|-0.0114509616508657|0.2650671296785387|-0.900808603136004|-0.3437328767154043|-0.2028548270463943|0.4696773588657379|-0.859216570854187|0|0|0|-1|-1|3
2021-04-22 21:46:08.196 +0100|140192.5105654167|-0.767486572265625|0.8386383056640625|-0.5249481201171875|140192.4906044167|2.254514438685863|-0.2564293797539809|-0.4654346230821536|-0.2526482343673706|0.9238619804382324|-4.503458023071289|-0.3528024852275848|0.03417509794235229|0.370616614818573|XArbitraryZVertical|-0.01422146421940891|0.2599893465380128|-0.8843306678223204|-0.3875082820946052|-0.2266490012407303|0.4488112330436707|-0.8644065856933594|0|0|0|-1|-1|3
2021-04-22 21:46:08.215 +0100|140192.5305254167|-0.8505401611328125|1.374160766601562|-0.4282379150390625|140192.5105654167|2.15580467696232|-0.2810711794930369|-0.4572732370631818|-1.33689284324646|1.021617293357849|-4.2552490234375|-0.4904009699821472|0.2766517996788025|0.331440806388855|XArbitraryZVertical|-0.01400052273655949|0.2622572689828556|-0.8646041060412382|-0.4283513767321466|-0.2488863468170166|0.4415031373500824|-0.8620502352714539|0|0|0|-1|-1|3
2021-04-22 21:46:08.235 +0100|140192.5504864167|-0.854278564453125|1.726425170898438|-0.2126617431640625|140192.5305254167|2.055928457579455|-0.3045331891131824|-0.4563218876139127|-1.03718638420105|1.125190377235413|-4.349570274353027|-0.5754209756851196|0.8027132153511047|0.3570760488510132|XArbitraryZVertical|-0.01102134007370524|0.2677523307161091|-0.8421305221075741|-0.4679780508538395|-0.2691672444343567|0.4406493306159973|-0.8563744425773621|0|0|0|-1|-1|3
2021-04-22 21:46:08.256 +0100|140192.5704474167|-0.558837890625|2.13226318359375|-0.129730224609375|140192.5504864167|1.959230147267754|-0.3225850394753142|-0.4431530208175334|-0.3055721819400787|1.25989294052124|-4.310041427612305|-0.5856117010116577|1.244946718215942|0.58536696434021|XArbitraryZVertical|-0.009182589509946926|0.2674187810095324|-0.8191416487073095|-0.5073557088713934|-0.2863965630531311|0.4287900328636169|-0.8568057417869568|0|0|0|-1|-1|3
2021-04-22 21:46:08.276 +0100|140192.5904084167|-0.0216217041015625|2.7322998046875|-0.259033203125|140192.5704474167|1.873118282612895|-0.3327379052116523|-0.4185296256756916|-0.05841369554400444|1.246697306632996|-3.812184810638428|-0.3642486333847046|1.61116099357605|0.787874162197113|XArbitraryZVertical|-0.009086699745097038|0.2610187841027591|-0.7974566299358107|-0.5439207796974601|-0.2984395921230316|0.4064174294471741|-0.8635732531547546|0|0|0|-1|-1|3
2021-04-22 21:46:08.296 +0100|140192.6103684167|0.612060546875|3.684066772460938|-0.3152618408203125|140192.5904084167|1.801747693578194|-0.3387693344761258|-0.3987503614317844|-0.4213591814041138|1.02126145362854|-2.951218366622925|0.1263697147369385|2.161354780197144|0.5974109768867493|XArbitraryZVertical|-0.008305295689347375|0.2556284703788897|-0.7780769892135583|-0.5737433275417201|-0.3062545657157898|0.3882670402526855|-0.8691701889038086|0|0|0|-1|-1|3
2021-04-22 21:46:08.315 +0100|140192.6303294167|0.8819580078125|4.920608520507812|-0.2149505615234375|140192.6103684167|1.750055870321158|-0.3421059084182283|-0.393597502187615|-0.5080616474151611|0.505989670753479|-1.65206253528595|0.7741459608078003|2.986329555511475|0.5588288307189941|XArbitraryZVertical|-0.004630949317632409|0.2548924962669021|-0.763093840439808|-0.5938822973944589|-0.3098199665546417|0.3835133016109467|-0.8700167536735535|0|0|0|-1|-1|3
2021-04-22 21:46:08.335 +0100|140192.6502904167|1.2791748046875|5.212799072265625|-0.0930328369140625|140192.6303294167|1.731443222198112|-0.3453249553574596|-0.3893876987790533|0.3553683757781982|-0.0808732658624649|-0.08703640103340149|1.144279479980469|4.317903518676758|0.613766610622406|XArbitraryZVertical|-0.004849709090760206|0.2543880327442011|-0.7576066558805731|-0.6010785919783402|-0.3131627440452576|0.3796220123767853|-0.8705264329910278|0|0|0|-1|-1|3
2021-04-22 21:46:08.355 +0100|140192.6702504167|1.8380126953125|5.271820068359375|-0.2122650146484375|140192.6502904167|1.749450677110382|-0.3446347323970286|-0.3842629233369055|0.4770271480083466|-0.5205870270729065|1.497068643569946|1.476546049118042|4.793352603912354|0.7771333456039429|XArbitraryZVertical|-0.008529918867080011|0.2522820655580597|-0.7630861125201975|-0.5949627536153639|-0.3132149875164032|0.3748759031295776|-0.8725619912147522|0|0|0|-1|-1|3
2021-04-22 21:46:08.375 +0100|140192.6902114167|1.582000732421875|5.35687255859375|-0.106353759765625|140192.6702504167|1.799049848386604|-0.3405043151990507|-0.3929807323202048|0.3087087869644165|-1.001906871795654|3.226577997207642|2.000965118408203|4.91489315032959|0.6794196963310242|XArbitraryZVertical|-0.01044387229009614|0.2540149916217738|-0.7774348384511185|-0.5752933006989448|-0.308505117893219|0.3829436302185059|-0.8707346320152283|0|0|0|-1|-1|3
2021-04-22 21:46:08.395 +0100|140192.7101724167|-0.685211181640625|5.40997314453125|-0.549285888671875|140192.6902114167|1.89288230407513|-0.3381726609507372|-0.4113401123026003|1.297018647193909|-2.679395914077759|5.63589334487915|2.167601108551025|4.872195720672607|0.7642086148262024|XArbitraryZVertical|-0.01597515646855644|0.2596313481970574|-0.803004125557738|-0.5362098613444586|-0.3040900230407715|0.399838000535965|-0.8646727204322815|0|0|0|-1|-1|3
2021-04-22 21:46:08.416 +0100|140192.7301324167|-2.722274780273438|4.477767944335938|-0.6148529052734375|140192.7101724167|2.049575422816309|-0.340562191646967|-0.4087762416699163|3.471926689147949|-3.62829852104187|7.631491184234619|0.2294102907180786|5.183537483215332|0.4561847448348999|XArbitraryZVertical|-0.03793327551688502|0.2571139024740466|-0.8425735785640136|-0.4717239123456559|-0.3064967095851898|0.397486686706543|-0.8649070262908936|0|0|0|-1|-1|3
2021-04-22 21:46:08.435 +0100|140192.7500934167|-4.49462890625|4.368988037109375|-0.4176483154296875|140192.7301324167|2.23908845721564|-0.3379884770464558|-0.4013208880760704|2.607182502746582|-3.351045370101929|8.340737342834473|-1.991279244422913|4.278509140014648|0.1436870098114014|XArbitraryZVertical|-0.06263619735088154|0.2486853308840857|-0.8839022471900642|-0.3910871586562657|-0.3052438199520111|0.3906346261501312|-0.8684646487236023|0|0|0|-1|-1|3
2021-04-22 21:46:08.455 +0100|140192.7700544167|-6.761642456054688|3.774612426757812|-0.3259735107421875|140192.7500934167|2.429172213765693|-0.3196667363099829|-0.4228520306229633|1.014647722244263|-2.121922492980957|9.069360733032227|-3.675081968307495|3.910849571228027|0.4791274070739746|XArbitraryZVertical|-0.073592721377308|0.2484388531607241|-0.9163227231360187|-0.3053113358854249|-0.2865717709064484|0.4103629589080811|-0.865724503993988|0|0|0|-1|-1|3
2021-04-22 21:46:08.475 +0100|140192.7900154167|-7.69598388671875|6.026840209960938|-0.4823760986328125|140192.7700544167|2.641314963410029|-0.2334376987801353|-0.4919189548059977|-2.629322290420532|0.9588160514831543|11.53074836730957|-6.239479064941406|3.45921516418457|0.5070262551307678|XArbitraryZVertical|-0.04957168984608058|0.2622633997558452|-0.9403441399348101|-0.2109825661197186|-0.2038949131965637|0.472318172454834|-0.857521116733551|0|0|0|-1|-1|3
2021-04-22 21:46:08.495 +0100|140192.8099754167|-8.036865234375|4.064559936523438|-0.28765869140625|140192.7900154167|2.918648188653636|-0.06521638245377377|-0.5673104471640612|1.249152660369873|2.215498685836792|11.9348087310791|-6.884185791015625|4.939394474029541|1.144076824188232|XArbitraryZVertical|1.092998081765216e-05|0.2814635711605267|-0.9545882353915841|-0.0976717531432129|-0.05496121197938919|0.537365734577179|-0.8415564894676208|0|0|0|-1|-1|3
2021-04-22 21:46:08.515 +0100|140192.8299364167|-7.665969848632812|0.705413818359375|0.8167877197265625|140192.8099754167|-3.062668926050239|0.1320328009911395|-0.494265195421926|6.313606739044189|1.715143203735352|13.0052604675293|-8.077760696411133|3.01653528213501|0.8485005497932434|XArbitraryZVertical|0.05428457599711026|0.2464252702641527|-0.9673892110394615|0.02204472881345622|0.1158933863043785|0.4743849039077759|-0.8726555705070496|0|0|0|-1|-1|3
2021-04-22 21:46:08.535 +0100|140192.8498974167|-7.7869873046875|0.00823974609375|3.052749633789062|140192.8299364167|-2.829720299843123|0.2569670621316429|-0.2776094105661689|10.08433246612549|1.249324321746826|12.92101860046387|-7.640245914459229|1.352437019348145|1.432348012924194|XArbitraryZVertical|0.1040474542734575|0.1552618984290685|-0.9730544223250185|0.1350306062960684|0.2444178909063339|0.2740573585033417|-0.9301357269287109|0|0|0|-1|-1|3
